"success","timeout","failed_images","failed_audio","failed_video","trial_type","trial_index","time_elapsed","internal_node_id","subject_id","study_id","session_id","view_history","rt","stimulus","response","choice"
"true","false","[]","[]","[]","preload","0","33562","0.0-0.0","B68BD0E6F41A485B82915E7849D16C84","06b6fbd1-2115-42b3-b4c8-b6057b8b2cc0","61e1ec61-13c7-4a8f-bf47-a91ec9909364","","","","",""
"","","","","","instructions","1","102630","0.0-1.0","B68BD0E6F41A485B82915E7849D16C84","06b6fbd1-2115-42b3-b4c8-b6057b8b2cc0","61e1ec61-13c7-4a8f-bf47-a91ec9909364","[{""page_index"":0,""viewing_time"":69068}]","69069","","",""
"","","","","","instructions","2","114279","0.0-2.0","B68BD0E6F41A485B82915E7849D16C84","06b6fbd1-2115-42b3-b4c8-b6057b8b2cc0","61e1ec61-13c7-4a8f-bf47-a91ec9909364","[{""page_index"":0,""viewing_time"":11648}]","11649","","",""
"true","","","","","fullscreen","3","117164","0.0-3.0","B68BD0E6F41A485B82915E7849D16C84","06b6fbd1-2115-42b3-b4c8-b6057b8b2cc0","61e1ec61-13c7-4a8f-bf47-a91ec9909364","","1882","","",""
"","","","","","instructions","4","129885","0.0-4.0","B68BD0E6F41A485B82915E7849D16C84","06b6fbd1-2115-42b3-b4c8-b6057b8b2cc0","61e1ec61-13c7-4a8f-bf47-a91ec9909364","[{""page_index"":0,""viewing_time"":12720}]","12720","","",""
"","","","","","html-keyboard-response","5","132887","0.0-5.0","B68BD0E6F41A485B82915E7849D16C84","06b6fbd1-2115-42b3-b4c8-b6057b8b2cc0","61e1ec61-13c7-4a8f-bf47-a91ec9909364","","null","<div style=""display: flex; justify-content: center; align-items: center;"">
                <img src=""images/causal/causal_series_11/causal_series_11_a.jpg"" style=""width: 300px; height: 300px;"" />
              </div>","null",""
"","","","","","html-keyboard-response","6","135890","0.0-6.0","B68BD0E6F41A485B82915E7849D16C84","06b6fbd1-2115-42b3-b4c8-b6057b8b2cc0","61e1ec61-13c7-4a8f-bf47-a91ec9909364","","null","<div style=""display: flex; justify-content: center; align-items: center;"">
                <img src=""images/causal/causal_series_11/causal_series_11_b.jpg"" style=""width: 300px; height: 300px;"" />
              </div>","null",""
"","","","","","html-keyboard-response","7","138892","0.0-7.0","B68BD0E6F41A485B82915E7849D16C84","06b6fbd1-2115-42b3-b4c8-b6057b8b2cc0","61e1ec61-13c7-4a8f-bf47-a91ec9909364","","null","<div style=""display: flex; justify-content: center; align-items: center;"">
                <img src=""images/causal/causal_series_11/causal_series_11_c.jpg"" style=""width: 300px; height: 300px;"" />
              </div>","null",""
"","","","","","html-button-response","8","142704","0.0-8.0","B68BD0E6F41A485B82915E7849D16C84","06b6fbd1-2115-42b3-b4c8-b6057b8b2cc0","61e1ec61-13c7-4a8f-bf47-a91ec9909364","","3810","
    <div style=""display: flex; justify-content: center; align-items: center;"">
      <img src=""images/red_deck_2.png"" style=""width: 300px; height: 300px; margin-right: 10px;"" />
      <img src=""images/blue_deck_1.png"" style=""width: 300px; height: 300px;"" />
    </div>","0","0"
"","","","","","html-keyboard-response","9","145706","0.0-9.0-0.0-0.0","B68BD0E6F41A485B82915E7849D16C84","06b6fbd1-2115-42b3-b4c8-b6057b8b2cc0","61e1ec61-13c7-4a8f-bf47-a91ec9909364","","null","<div style=""display: flex; justify-content: center; align-items: center;"">
                <img src=""images/causal/causal_series_11/causal_series_11_d.jpg"" style=""width: 300px; height: 300px;"" />
              </div>","null",""
"","","","","","html-keyboard-response","10","148707","0.0-10.0","B68BD0E6F41A485B82915E7849D16C84","06b6fbd1-2115-42b3-b4c8-b6057b8b2cc0","61e1ec61-13c7-4a8f-bf47-a91ec9909364","","null","<div style=""display: flex; justify-content: center; align-items: center;"">
                <img src=""images/other/blank.jpg"" style=""width: 300px; height: 300px;"" />
              </div>","null",""
"","","","","","html-keyboard-response","11","151709","0.0-11.0","B68BD0E6F41A485B82915E7849D16C84","06b6fbd1-2115-42b3-b4c8-b6057b8b2cc0","61e1ec61-13c7-4a8f-bf47-a91ec9909364","","null","<div style=""display: flex; justify-content: center; align-items: center;"">
                <img src=""images/causal/causal_series_8/causal_series_8_a.jpg"" style=""width: 300px; height: 300px;"" />
              </div>","null",""
"","","","","","html-keyboard-response","12","154712","0.0-12.0","B68BD0E6F41A485B82915E7849D16C84","06b6fbd1-2115-42b3-b4c8-b6057b8b2cc0","61e1ec61-13c7-4a8f-bf47-a91ec9909364","","null","<div style=""display: flex; justify-content: center; align-items: center;"">
                <img src=""images/causal/causal_series_8/causal_series_8_b.jpg"" style=""width: 300px; height: 300px;"" />
              </div>","null",""
"","","","","","html-keyboard-response","13","157714","0.0-13.0","B68BD0E6F41A485B82915E7849D16C84","06b6fbd1-2115-42b3-b4c8-b6057b8b2cc0","61e1ec61-13c7-4a8f-bf47-a91ec9909364","","null","<div style=""display: flex; justify-content: center; align-items: center;"">
                <img src=""images/causal/causal_series_8/causal_series_8_c.jpg"" style=""width: 300px; height: 300px;"" />
              </div>","null",""
"","","","","","html-button-response","14","159850","0.0-14.0","B68BD0E6F41A485B82915E7849D16C84","06b6fbd1-2115-42b3-b4c8-b6057b8b2cc0","61e1ec61-13c7-4a8f-bf47-a91ec9909364","","2135","
    <div style=""display: flex; justify-content: center; align-items: center;"">
      <img src=""images/red_deck_2.png"" style=""width: 300px; height: 300px; margin-right: 10px;"" />
      <img src=""images/blue_deck_1.png"" style=""width: 300px; height: 300px;"" />
    </div>","1","1"
"","","","","","html-keyboard-response","15","162853","0.0-15.0-1.0-0.0","B68BD0E6F41A485B82915E7849D16C84","06b6fbd1-2115-42b3-b4c8-b6057b8b2cc0","61e1ec61-13c7-4a8f-bf47-a91ec9909364","","null","<div style=""display: flex; justify-content: center; align-items: center;"">
                <img src=""images/semantic/semantic_series_7/semantic_series_7_d.jpg"" style=""width: 300px; height: 300px;"" />
              </div>","null",""
"","","","","","html-keyboard-response","16","165856","0.0-16.0","B68BD0E6F41A485B82915E7849D16C84","06b6fbd1-2115-42b3-b4c8-b6057b8b2cc0","61e1ec61-13c7-4a8f-bf47-a91ec9909364","","null","<div style=""display: flex; justify-content: center; align-items: center;"">
                <img src=""images/other/blank.jpg"" style=""width: 300px; height: 300px;"" />
              </div>","null",""
"","","","","","html-keyboard-response","17","168859","0.0-17.0","B68BD0E6F41A485B82915E7849D16C84","06b6fbd1-2115-42b3-b4c8-b6057b8b2cc0","61e1ec61-13c7-4a8f-bf47-a91ec9909364","","null","<div style=""display: flex; justify-content: center; align-items: center;"">
                <img src=""images/causal/causal_series_18/causal_series_18_a.jpg"" style=""width: 300px; height: 300px;"" />
              </div>","null",""
"","","","","","html-keyboard-response","18","171860","0.0-18.0","B68BD0E6F41A485B82915E7849D16C84","06b6fbd1-2115-42b3-b4c8-b6057b8b2cc0","61e1ec61-13c7-4a8f-bf47-a91ec9909364","","null","<div style=""display: flex; justify-content: center; align-items: center;"">
                <img src=""images/causal/causal_series_18/causal_series_18_b.jpg"" style=""width: 300px; height: 300px;"" />
              </div>","null",""
"","","","","","html-keyboard-response","19","174863","0.0-19.0","B68BD0E6F41A485B82915E7849D16C84","06b6fbd1-2115-42b3-b4c8-b6057b8b2cc0","61e1ec61-13c7-4a8f-bf47-a91ec9909364","","null","<div style=""display: flex; justify-content: center; align-items: center;"">
                <img src=""images/causal/causal_series_18/causal_series_18_c.jpg"" style=""width: 300px; height: 300px;"" />
              </div>","null",""
"","","","","","html-button-response","20","176959","0.0-20.0","B68BD0E6F41A485B82915E7849D16C84","06b6fbd1-2115-42b3-b4c8-b6057b8b2cc0","61e1ec61-13c7-4a8f-bf47-a91ec9909364","","2095","
    <div style=""display: flex; justify-content: center; align-items: center;"">
      <img src=""images/red_deck_2.png"" style=""width: 300px; height: 300px; margin-right: 10px;"" />
      <img src=""images/blue_deck_1.png"" style=""width: 300px; height: 300px;"" />
    </div>","0","0"
"","","","","","html-keyboard-response","21","179962","0.0-21.0-0.0-0.0","B68BD0E6F41A485B82915E7849D16C84","06b6fbd1-2115-42b3-b4c8-b6057b8b2cc0","61e1ec61-13c7-4a8f-bf47-a91ec9909364","","null","<div style=""display: flex; justify-content: center; align-items: center;"">
                <img src=""images/causal/causal_series_18/causal_series_18_d.jpg"" style=""width: 300px; height: 300px;"" />
              </div>","null",""
"","","","","","html-keyboard-response","22","182963","0.0-22.0","B68BD0E6F41A485B82915E7849D16C84","06b6fbd1-2115-42b3-b4c8-b6057b8b2cc0","61e1ec61-13c7-4a8f-bf47-a91ec9909364","","null","<div style=""display: flex; justify-content: center; align-items: center;"">
                <img src=""images/other/blank.jpg"" style=""width: 300px; height: 300px;"" />
              </div>","null",""
"","","","","","html-keyboard-response","23","185964","0.0-23.0","B68BD0E6F41A485B82915E7849D16C84","06b6fbd1-2115-42b3-b4c8-b6057b8b2cc0","61e1ec61-13c7-4a8f-bf47-a91ec9909364","","null","<div style=""display: flex; justify-content: center; align-items: center;"">
                <img src=""images/causal/causal_series_16/causal_series_16_a.jpg"" style=""width: 300px; height: 300px;"" />
              </div>","null",""
"","","","","","html-keyboard-response","24","188967","0.0-24.0","B68BD0E6F41A485B82915E7849D16C84","06b6fbd1-2115-42b3-b4c8-b6057b8b2cc0","61e1ec61-13c7-4a8f-bf47-a91ec9909364","","null","<div style=""display: flex; justify-content: center; align-items: center;"">
                <img src=""images/causal/causal_series_16/causal_series_16_b.jpg"" style=""width: 300px; height: 300px;"" />
              </div>","null",""
"","","","","","html-keyboard-response","25","191969","0.0-25.0","B68BD0E6F41A485B82915E7849D16C84","06b6fbd1-2115-42b3-b4c8-b6057b8b2cc0","61e1ec61-13c7-4a8f-bf47-a91ec9909364","","null","<div style=""display: flex; justify-content: center; align-items: center;"">
                <img src=""images/causal/causal_series_16/causal_series_16_c.jpg"" style=""width: 300px; height: 300px;"" />
              </div>","null",""
"","","","","","html-button-response","26","194973","0.0-26.0","B68BD0E6F41A485B82915E7849D16C84","06b6fbd1-2115-42b3-b4c8-b6057b8b2cc0","61e1ec61-13c7-4a8f-bf47-a91ec9909364","","3003","
    <div style=""display: flex; justify-content: center; align-items: center;"">
      <img src=""images/red_deck_2.png"" style=""width: 300px; height: 300px; margin-right: 10px;"" />
      <img src=""images/blue_deck_1.png"" style=""width: 300px; height: 300px;"" />
    </div>","0","0"
"","","","","","html-keyboard-response","27","197975","0.0-27.0-0.0-0.0","B68BD0E6F41A485B82915E7849D16C84","06b6fbd1-2115-42b3-b4c8-b6057b8b2cc0","61e1ec61-13c7-4a8f-bf47-a91ec9909364","","null","<div style=""display: flex; justify-content: center; align-items: center;"">
                <img src=""images/causal/causal_series_16/causal_series_16_d.jpg"" style=""width: 300px; height: 300px;"" />
              </div>","null",""
"","","","","","html-keyboard-response","28","200977","0.0-28.0","B68BD0E6F41A485B82915E7849D16C84","06b6fbd1-2115-42b3-b4c8-b6057b8b2cc0","61e1ec61-13c7-4a8f-bf47-a91ec9909364","","null","<div style=""display: flex; justify-content: center; align-items: center;"">
                <img src=""images/other/blank.jpg"" style=""width: 300px; height: 300px;"" />
              </div>","null",""
"","","","","","html-keyboard-response","29","203979","0.0-29.0","B68BD0E6F41A485B82915E7849D16C84","06b6fbd1-2115-42b3-b4c8-b6057b8b2cc0","61e1ec61-13c7-4a8f-bf47-a91ec9909364","","null","<div style=""display: flex; justify-content: center; align-items: center;"">
                <img src=""images/causal/causal_series_7/causal_series_7_a.jpg"" style=""width: 300px; height: 300px;"" />
              </div>","null",""
"","","","","","html-keyboard-response","30","206980","0.0-30.0","B68BD0E6F41A485B82915E7849D16C84","06b6fbd1-2115-42b3-b4c8-b6057b8b2cc0","61e1ec61-13c7-4a8f-bf47-a91ec9909364","","null","<div style=""display: flex; justify-content: center; align-items: center;"">
                <img src=""images/causal/causal_series_7/causal_series_7_b.jpg"" style=""width: 300px; height: 300px;"" />
              </div>","null",""
"","","","","","html-keyboard-response","31","209982","0.0-31.0","B68BD0E6F41A485B82915E7849D16C84","06b6fbd1-2115-42b3-b4c8-b6057b8b2cc0","61e1ec61-13c7-4a8f-bf47-a91ec9909364","","null","<div style=""display: flex; justify-content: center; align-items: center;"">
                <img src=""images/causal/causal_series_7/causal_series_7_c.jpg"" style=""width: 300px; height: 300px;"" />
              </div>","null",""
"","","","","","html-button-response","32","212167","0.0-32.0","B68BD0E6F41A485B82915E7849D16C84","06b6fbd1-2115-42b3-b4c8-b6057b8b2cc0","61e1ec61-13c7-4a8f-bf47-a91ec9909364","","2184","
    <div style=""display: flex; justify-content: center; align-items: center;"">
      <img src=""images/red_deck_2.png"" style=""width: 300px; height: 300px; margin-right: 10px;"" />
      <img src=""images/blue_deck_1.png"" style=""width: 300px; height: 300px;"" />
    </div>","1","1"
"","","","","","html-keyboard-response","33","215168","0.0-33.0-1.0-0.0","B68BD0E6F41A485B82915E7849D16C84","06b6fbd1-2115-42b3-b4c8-b6057b8b2cc0","61e1ec61-13c7-4a8f-bf47-a91ec9909364","","null","<div style=""display: flex; justify-content: center; align-items: center;"">
                <img src=""images/semantic/semantic_series_6/semantic_series_6_d.jpg"" style=""width: 300px; height: 300px;"" />
              </div>","null",""
"","","","","","html-keyboard-response","34","218172","0.0-34.0","B68BD0E6F41A485B82915E7849D16C84","06b6fbd1-2115-42b3-b4c8-b6057b8b2cc0","61e1ec61-13c7-4a8f-bf47-a91ec9909364","","null","<div style=""display: flex; justify-content: center; align-items: center;"">
                <img src=""images/other/blank.jpg"" style=""width: 300px; height: 300px;"" />
              </div>","null",""
"","","","","","html-keyboard-response","35","221174","0.0-35.0","B68BD0E6F41A485B82915E7849D16C84","06b6fbd1-2115-42b3-b4c8-b6057b8b2cc0","61e1ec61-13c7-4a8f-bf47-a91ec9909364","","null","<div style=""display: flex; justify-content: center; align-items: center;"">
                <img src=""images/causal/causal_series_2/causal_series_2_a.jpg"" style=""width: 300px; height: 300px;"" />
              </div>","null",""
"","","","","","html-keyboard-response","36","224176","0.0-36.0","B68BD0E6F41A485B82915E7849D16C84","06b6fbd1-2115-42b3-b4c8-b6057b8b2cc0","61e1ec61-13c7-4a8f-bf47-a91ec9909364","","null","<div style=""display: flex; justify-content: center; align-items: center;"">
                <img src=""images/causal/causal_series_2/causal_series_2_b.jpg"" style=""width: 300px; height: 300px;"" />
              </div>","null",""
"","","","","","html-keyboard-response","37","227179","0.0-37.0","B68BD0E6F41A485B82915E7849D16C84","06b6fbd1-2115-42b3-b4c8-b6057b8b2cc0","61e1ec61-13c7-4a8f-bf47-a91ec9909364","","null","<div style=""display: flex; justify-content: center; align-items: center;"">
                <img src=""images/causal/causal_series_2/causal_series_2_c.jpg"" style=""width: 300px; height: 300px;"" />
              </div>","null",""
"","","","","","html-button-response","38","228566","0.0-38.0","B68BD0E6F41A485B82915E7849D16C84","06b6fbd1-2115-42b3-b4c8-b6057b8b2cc0","61e1ec61-13c7-4a8f-bf47-a91ec9909364","","1386","
    <div style=""display: flex; justify-content: center; align-items: center;"">
      <img src=""images/red_deck_2.png"" style=""width: 300px; height: 300px; margin-right: 10px;"" />
      <img src=""images/blue_deck_1.png"" style=""width: 300px; height: 300px;"" />
    </div>","1","1"
"","","","","","html-keyboard-response","39","231569","0.0-39.0-1.0-0.0","B68BD0E6F41A485B82915E7849D16C84","06b6fbd1-2115-42b3-b4c8-b6057b8b2cc0","61e1ec61-13c7-4a8f-bf47-a91ec9909364","","null","<div style=""display: flex; justify-content: center; align-items: center;"">
                <img src=""images/semantic/semantic_series_1/semantic_series_1_d.jpg"" style=""width: 300px; height: 300px;"" />
              </div>","null",""
"","","","","","html-keyboard-response","40","234571","0.0-40.0","B68BD0E6F41A485B82915E7849D16C84","06b6fbd1-2115-42b3-b4c8-b6057b8b2cc0","61e1ec61-13c7-4a8f-bf47-a91ec9909364","","null","<div style=""display: flex; justify-content: center; align-items: center;"">
                <img src=""images/other/blank.jpg"" style=""width: 300px; height: 300px;"" />
              </div>","null",""
"","","","","","html-keyboard-response","41","237573","0.0-41.0","B68BD0E6F41A485B82915E7849D16C84","06b6fbd1-2115-42b3-b4c8-b6057b8b2cc0","61e1ec61-13c7-4a8f-bf47-a91ec9909364","","null","<div style=""display: flex; justify-content: center; align-items: center;"">
                <img src=""images/causal/causal_series_13/causal_series_13_a.jpg"" style=""width: 300px; height: 300px;"" />
              </div>","null",""
"","","","","","html-keyboard-response","42","240575","0.0-42.0","B68BD0E6F41A485B82915E7849D16C84","06b6fbd1-2115-42b3-b4c8-b6057b8b2cc0","61e1ec61-13c7-4a8f-bf47-a91ec9909364","","null","<div style=""display: flex; justify-content: center; align-items: center;"">
                <img src=""images/causal/causal_series_13/causal_series_13_b.jpg"" style=""width: 300px; height: 300px;"" />
              </div>","null",""
"","","","","","html-keyboard-response","43","243578","0.0-43.0","B68BD0E6F41A485B82915E7849D16C84","06b6fbd1-2115-42b3-b4c8-b6057b8b2cc0","61e1ec61-13c7-4a8f-bf47-a91ec9909364","","null","<div style=""display: flex; justify-content: center; align-items: center;"">
                <img src=""images/causal/causal_series_13/causal_series_13_c.jpg"" style=""width: 300px; height: 300px;"" />
              </div>","null",""
"","","","","","html-button-response","44","245571","0.0-44.0","B68BD0E6F41A485B82915E7849D16C84","06b6fbd1-2115-42b3-b4c8-b6057b8b2cc0","61e1ec61-13c7-4a8f-bf47-a91ec9909364","","1992","
    <div style=""display: flex; justify-content: center; align-items: center;"">
      <img src=""images/red_deck_2.png"" style=""width: 300px; height: 300px; margin-right: 10px;"" />
      <img src=""images/blue_deck_1.png"" style=""width: 300px; height: 300px;"" />
    </div>","0","0"
"","","","","","html-keyboard-response","45","248572","0.0-45.0-0.0-0.0","B68BD0E6F41A485B82915E7849D16C84","06b6fbd1-2115-42b3-b4c8-b6057b8b2cc0","61e1ec61-13c7-4a8f-bf47-a91ec9909364","","null","<div style=""display: flex; justify-content: center; align-items: center;"">
                <img src=""images/causal/causal_series_13/causal_series_13_d.jpg"" style=""width: 300px; height: 300px;"" />
              </div>","null",""
"","","","","","html-keyboard-response","46","251575","0.0-46.0","B68BD0E6F41A485B82915E7849D16C84","06b6fbd1-2115-42b3-b4c8-b6057b8b2cc0","61e1ec61-13c7-4a8f-bf47-a91ec9909364","","null","<div style=""display: flex; justify-content: center; align-items: center;"">
                <img src=""images/other/blank.jpg"" style=""width: 300px; height: 300px;"" />
              </div>","null",""
"","","","","","html-keyboard-response","47","254577","0.0-47.0","B68BD0E6F41A485B82915E7849D16C84","06b6fbd1-2115-42b3-b4c8-b6057b8b2cc0","61e1ec61-13c7-4a8f-bf47-a91ec9909364","","null","<div style=""display: flex; justify-content: center; align-items: center;"">
                <img src=""images/causal/causal_series_9/causal_series_9_a.jpg"" style=""width: 300px; height: 300px;"" />
              </div>","null",""
"","","","","","html-keyboard-response","48","257580","0.0-48.0","B68BD0E6F41A485B82915E7849D16C84","06b6fbd1-2115-42b3-b4c8-b6057b8b2cc0","61e1ec61-13c7-4a8f-bf47-a91ec9909364","","null","<div style=""display: flex; justify-content: center; align-items: center;"">
                <img src=""images/causal/causal_series_9/causal_series_9_b.jpg"" style=""width: 300px; height: 300px;"" />
              </div>","null",""
"","","","","","html-keyboard-response","49","260582","0.0-49.0","B68BD0E6F41A485B82915E7849D16C84","06b6fbd1-2115-42b3-b4c8-b6057b8b2cc0","61e1ec61-13c7-4a8f-bf47-a91ec9909364","","null","<div style=""display: flex; justify-content: center; align-items: center;"">
                <img src=""images/causal/causal_series_9/causal_series_9_c.jpg"" style=""width: 300px; height: 300px;"" />
              </div>","null",""
"","","","","","html-button-response","50","261953","0.0-50.0","B68BD0E6F41A485B82915E7849D16C84","06b6fbd1-2115-42b3-b4c8-b6057b8b2cc0","61e1ec61-13c7-4a8f-bf47-a91ec9909364","","1370","
    <div style=""display: flex; justify-content: center; align-items: center;"">
      <img src=""images/red_deck_2.png"" style=""width: 300px; height: 300px; margin-right: 10px;"" />
      <img src=""images/blue_deck_1.png"" style=""width: 300px; height: 300px;"" />
    </div>","0","0"
"","","","","","html-keyboard-response","51","264956","0.0-51.0-0.0-0.0","B68BD0E6F41A485B82915E7849D16C84","06b6fbd1-2115-42b3-b4c8-b6057b8b2cc0","61e1ec61-13c7-4a8f-bf47-a91ec9909364","","null","<div style=""display: flex; justify-content: center; align-items: center;"">
                <img src=""images/causal/causal_series_9/causal_series_9_d.jpg"" style=""width: 300px; height: 300px;"" />
              </div>","null",""
"","","","","","html-keyboard-response","52","267957","0.0-52.0","B68BD0E6F41A485B82915E7849D16C84","06b6fbd1-2115-42b3-b4c8-b6057b8b2cc0","61e1ec61-13c7-4a8f-bf47-a91ec9909364","","null","<div style=""display: flex; justify-content: center; align-items: center;"">
                <img src=""images/other/blank.jpg"" style=""width: 300px; height: 300px;"" />
              </div>","null",""
"","","","","","html-keyboard-response","53","270959","0.0-53.0","B68BD0E6F41A485B82915E7849D16C84","06b6fbd1-2115-42b3-b4c8-b6057b8b2cc0","61e1ec61-13c7-4a8f-bf47-a91ec9909364","","null","<div style=""display: flex; justify-content: center; align-items: center;"">
                <img src=""images/causal/causal_series_4/causal_series_4_a.jpg"" style=""width: 300px; height: 300px;"" />
              </div>","null",""
"","","","","","html-keyboard-response","54","273960","0.0-54.0","B68BD0E6F41A485B82915E7849D16C84","06b6fbd1-2115-42b3-b4c8-b6057b8b2cc0","61e1ec61-13c7-4a8f-bf47-a91ec9909364","","null","<div style=""display: flex; justify-content: center; align-items: center;"">
                <img src=""images/causal/causal_series_4/causal_series_4_b.jpg"" style=""width: 300px; height: 300px;"" />
              </div>","null",""
"","","","","","html-keyboard-response","55","276962","0.0-55.0","B68BD0E6F41A485B82915E7849D16C84","06b6fbd1-2115-42b3-b4c8-b6057b8b2cc0","61e1ec61-13c7-4a8f-bf47-a91ec9909364","","null","<div style=""display: flex; justify-content: center; align-items: center;"">
                <img src=""images/causal/causal_series_4/causal_series_4_c.jpg"" style=""width: 300px; height: 300px;"" />
              </div>","null",""
"","","","","","html-button-response","56","277978","0.0-56.0","B68BD0E6F41A485B82915E7849D16C84","06b6fbd1-2115-42b3-b4c8-b6057b8b2cc0","61e1ec61-13c7-4a8f-bf47-a91ec9909364","","1016","
    <div style=""display: flex; justify-content: center; align-items: center;"">
      <img src=""images/red_deck_2.png"" style=""width: 300px; height: 300px; margin-right: 10px;"" />
      <img src=""images/blue_deck_1.png"" style=""width: 300px; height: 300px;"" />
    </div>","0","0"
"","","","","","html-keyboard-response","57","280981","0.0-57.0-0.0-0.0","B68BD0E6F41A485B82915E7849D16C84","06b6fbd1-2115-42b3-b4c8-b6057b8b2cc0","61e1ec61-13c7-4a8f-bf47-a91ec9909364","","null","<div style=""display: flex; justify-content: center; align-items: center;"">
                <img src=""images/causal/causal_series_4/causal_series_4_d.jpg"" style=""width: 300px; height: 300px;"" />
              </div>","null",""
"","","","","","html-keyboard-response","58","283983","0.0-58.0","B68BD0E6F41A485B82915E7849D16C84","06b6fbd1-2115-42b3-b4c8-b6057b8b2cc0","61e1ec61-13c7-4a8f-bf47-a91ec9909364","","null","<div style=""display: flex; justify-content: center; align-items: center;"">
                <img src=""images/other/blank.jpg"" style=""width: 300px; height: 300px;"" />
              </div>","null",""
"","","","","","html-keyboard-response","59","286986","0.0-59.0","B68BD0E6F41A485B82915E7849D16C84","06b6fbd1-2115-42b3-b4c8-b6057b8b2cc0","61e1ec61-13c7-4a8f-bf47-a91ec9909364","","null","<div style=""display: flex; justify-content: center; align-items: center;"">
                <img src=""images/causal/causal_series_14/causal_series_14_a.jpg"" style=""width: 300px; height: 300px;"" />
              </div>","null",""
"","","","","","html-keyboard-response","60","289988","0.0-60.0","B68BD0E6F41A485B82915E7849D16C84","06b6fbd1-2115-42b3-b4c8-b6057b8b2cc0","61e1ec61-13c7-4a8f-bf47-a91ec9909364","","null","<div style=""display: flex; justify-content: center; align-items: center;"">
                <img src=""images/causal/causal_series_14/causal_series_14_b.jpg"" style=""width: 300px; height: 300px;"" />
              </div>","null",""
"","","","","","html-keyboard-response","61","292990","0.0-61.0","B68BD0E6F41A485B82915E7849D16C84","06b6fbd1-2115-42b3-b4c8-b6057b8b2cc0","61e1ec61-13c7-4a8f-bf47-a91ec9909364","","null","<div style=""display: flex; justify-content: center; align-items: center;"">
                <img src=""images/causal/causal_series_14/causal_series_14_c.jpg"" style=""width: 300px; height: 300px;"" />
              </div>","null",""
"","","","","","html-button-response","62","294983","0.0-62.0","B68BD0E6F41A485B82915E7849D16C84","06b6fbd1-2115-42b3-b4c8-b6057b8b2cc0","61e1ec61-13c7-4a8f-bf47-a91ec9909364","","1992","
    <div style=""display: flex; justify-content: center; align-items: center;"">
      <img src=""images/red_deck_2.png"" style=""width: 300px; height: 300px; margin-right: 10px;"" />
      <img src=""images/blue_deck_1.png"" style=""width: 300px; height: 300px;"" />
    </div>","0","0"
"","","","","","html-keyboard-response","63","297985","0.0-63.0-0.0-0.0","B68BD0E6F41A485B82915E7849D16C84","06b6fbd1-2115-42b3-b4c8-b6057b8b2cc0","61e1ec61-13c7-4a8f-bf47-a91ec9909364","","null","<div style=""display: flex; justify-content: center; align-items: center;"">
                <img src=""images/causal/causal_series_14/causal_series_14_d.jpg"" style=""width: 300px; height: 300px;"" />
              </div>","null",""
"","","","","","html-keyboard-response","64","300987","0.0-64.0","B68BD0E6F41A485B82915E7849D16C84","06b6fbd1-2115-42b3-b4c8-b6057b8b2cc0","61e1ec61-13c7-4a8f-bf47-a91ec9909364","","null","<div style=""display: flex; justify-content: center; align-items: center;"">
                <img src=""images/other/blank.jpg"" style=""width: 300px; height: 300px;"" />
              </div>","null",""
"","","","","","html-keyboard-response","65","303989","0.0-65.0","B68BD0E6F41A485B82915E7849D16C84","06b6fbd1-2115-42b3-b4c8-b6057b8b2cc0","61e1ec61-13c7-4a8f-bf47-a91ec9909364","","null","<div style=""display: flex; justify-content: center; align-items: center;"">
                <img src=""images/causal/causal_series_10/causal_series_10_a.jpg"" style=""width: 300px; height: 300px;"" />
              </div>","null",""
"","","","","","html-keyboard-response","66","306991","0.0-66.0","B68BD0E6F41A485B82915E7849D16C84","06b6fbd1-2115-42b3-b4c8-b6057b8b2cc0","61e1ec61-13c7-4a8f-bf47-a91ec9909364","","null","<div style=""display: flex; justify-content: center; align-items: center;"">
                <img src=""images/causal/causal_series_10/causal_series_10_b.jpg"" style=""width: 300px; height: 300px;"" />
              </div>","null",""
"","","","","","html-keyboard-response","67","309993","0.0-67.0","B68BD0E6F41A485B82915E7849D16C84","06b6fbd1-2115-42b3-b4c8-b6057b8b2cc0","61e1ec61-13c7-4a8f-bf47-a91ec9909364","","null","<div style=""display: flex; justify-content: center; align-items: center;"">
                <img src=""images/causal/causal_series_10/causal_series_10_c.jpg"" style=""width: 300px; height: 300px;"" />
              </div>","null",""
"","","","","","html-button-response","68","310964","0.0-68.0","B68BD0E6F41A485B82915E7849D16C84","06b6fbd1-2115-42b3-b4c8-b6057b8b2cc0","61e1ec61-13c7-4a8f-bf47-a91ec9909364","","970","
    <div style=""display: flex; justify-content: center; align-items: center;"">
      <img src=""images/red_deck_2.png"" style=""width: 300px; height: 300px; margin-right: 10px;"" />
      <img src=""images/blue_deck_1.png"" style=""width: 300px; height: 300px;"" />
    </div>","0","0"
"","","","","","html-keyboard-response","69","313966","0.0-69.0-0.0-0.0","B68BD0E6F41A485B82915E7849D16C84","06b6fbd1-2115-42b3-b4c8-b6057b8b2cc0","61e1ec61-13c7-4a8f-bf47-a91ec9909364","","null","<div style=""display: flex; justify-content: center; align-items: center;"">
                <img src=""images/causal/causal_series_10/causal_series_10_d.jpg"" style=""width: 300px; height: 300px;"" />
              </div>","null",""
"","","","","","html-keyboard-response","70","316967","0.0-70.0","B68BD0E6F41A485B82915E7849D16C84","06b6fbd1-2115-42b3-b4c8-b6057b8b2cc0","61e1ec61-13c7-4a8f-bf47-a91ec9909364","","null","<div style=""display: flex; justify-content: center; align-items: center;"">
                <img src=""images/other/blank.jpg"" style=""width: 300px; height: 300px;"" />
              </div>","null",""
"","","","","","html-keyboard-response","71","319969","0.0-71.0","B68BD0E6F41A485B82915E7849D16C84","06b6fbd1-2115-42b3-b4c8-b6057b8b2cc0","61e1ec61-13c7-4a8f-bf47-a91ec9909364","","null","<div style=""display: flex; justify-content: center; align-items: center;"">
                <img src=""images/causal/causal_series_17/causal_series_17_a.jpg"" style=""width: 300px; height: 300px;"" />
              </div>","null",""
"","","","","","html-keyboard-response","72","322971","0.0-72.0","B68BD0E6F41A485B82915E7849D16C84","06b6fbd1-2115-42b3-b4c8-b6057b8b2cc0","61e1ec61-13c7-4a8f-bf47-a91ec9909364","","null","<div style=""display: flex; justify-content: center; align-items: center;"">
                <img src=""images/causal/causal_series_17/causal_series_17_b.jpg"" style=""width: 300px; height: 300px;"" />
              </div>","null",""
"","","","","","html-keyboard-response","73","325973","0.0-73.0","B68BD0E6F41A485B82915E7849D16C84","06b6fbd1-2115-42b3-b4c8-b6057b8b2cc0","61e1ec61-13c7-4a8f-bf47-a91ec9909364","","null","<div style=""display: flex; justify-content: center; align-items: center;"">
                <img src=""images/causal/causal_series_17/causal_series_17_c.jpg"" style=""width: 300px; height: 300px;"" />
              </div>","null",""
"","","","","","html-button-response","74","327134","0.0-74.0","B68BD0E6F41A485B82915E7849D16C84","06b6fbd1-2115-42b3-b4c8-b6057b8b2cc0","61e1ec61-13c7-4a8f-bf47-a91ec9909364","","1160","
    <div style=""display: flex; justify-content: center; align-items: center;"">
      <img src=""images/red_deck_2.png"" style=""width: 300px; height: 300px; margin-right: 10px;"" />
      <img src=""images/blue_deck_1.png"" style=""width: 300px; height: 300px;"" />
    </div>","0","0"
"","","","","","html-keyboard-response","75","330137","0.0-75.0-0.0-0.0","B68BD0E6F41A485B82915E7849D16C84","06b6fbd1-2115-42b3-b4c8-b6057b8b2cc0","61e1ec61-13c7-4a8f-bf47-a91ec9909364","","null","<div style=""display: flex; justify-content: center; align-items: center;"">
                <img src=""images/causal/causal_series_17/causal_series_17_d.jpg"" style=""width: 300px; height: 300px;"" />
              </div>","null",""
"","","","","","html-keyboard-response","76","333139","0.0-76.0","B68BD0E6F41A485B82915E7849D16C84","06b6fbd1-2115-42b3-b4c8-b6057b8b2cc0","61e1ec61-13c7-4a8f-bf47-a91ec9909364","","null","<div style=""display: flex; justify-content: center; align-items: center;"">
                <img src=""images/other/blank.jpg"" style=""width: 300px; height: 300px;"" />
              </div>","null",""
"","","","","","html-keyboard-response","77","336141","0.0-77.0","B68BD0E6F41A485B82915E7849D16C84","06b6fbd1-2115-42b3-b4c8-b6057b8b2cc0","61e1ec61-13c7-4a8f-bf47-a91ec9909364","","null","<div style=""display: flex; justify-content: center; align-items: center;"">
                <img src=""images/causal/causal_series_15/causal_series_15_a.jpg"" style=""width: 300px; height: 300px;"" />
              </div>","null",""
"","","","","","html-keyboard-response","78","339143","0.0-78.0","B68BD0E6F41A485B82915E7849D16C84","06b6fbd1-2115-42b3-b4c8-b6057b8b2cc0","61e1ec61-13c7-4a8f-bf47-a91ec9909364","","null","<div style=""display: flex; justify-content: center; align-items: center;"">
                <img src=""images/causal/causal_series_15/causal_series_15_b.jpg"" style=""width: 300px; height: 300px;"" />
              </div>","null",""
"","","","","","html-keyboard-response","79","342146","0.0-79.0","B68BD0E6F41A485B82915E7849D16C84","06b6fbd1-2115-42b3-b4c8-b6057b8b2cc0","61e1ec61-13c7-4a8f-bf47-a91ec9909364","","null","<div style=""display: flex; justify-content: center; align-items: center;"">
                <img src=""images/causal/causal_series_15/causal_series_15_c.jpg"" style=""width: 300px; height: 300px;"" />
              </div>","null",""
"","","","","","html-button-response","80","344215","0.0-80.0","B68BD0E6F41A485B82915E7849D16C84","06b6fbd1-2115-42b3-b4c8-b6057b8b2cc0","61e1ec61-13c7-4a8f-bf47-a91ec9909364","","2068","
    <div style=""display: flex; justify-content: center; align-items: center;"">
      <img src=""images/red_deck_2.png"" style=""width: 300px; height: 300px; margin-right: 10px;"" />
      <img src=""images/blue_deck_1.png"" style=""width: 300px; height: 300px;"" />
    </div>","0","0"
"","","","","","html-keyboard-response","81","347218","0.0-81.0-0.0-0.0","B68BD0E6F41A485B82915E7849D16C84","06b6fbd1-2115-42b3-b4c8-b6057b8b2cc0","61e1ec61-13c7-4a8f-bf47-a91ec9909364","","null","<div style=""display: flex; justify-content: center; align-items: center;"">
                <img src=""images/causal/causal_series_15/causal_series_15_d.jpg"" style=""width: 300px; height: 300px;"" />
              </div>","null",""
"","","","","","html-keyboard-response","82","350220","0.0-82.0","B68BD0E6F41A485B82915E7849D16C84","06b6fbd1-2115-42b3-b4c8-b6057b8b2cc0","61e1ec61-13c7-4a8f-bf47-a91ec9909364","","null","<div style=""display: flex; justify-content: center; align-items: center;"">
                <img src=""images/other/blank.jpg"" style=""width: 300px; height: 300px;"" />
              </div>","null",""
"","","","","","html-keyboard-response","83","353222","0.0-83.0","B68BD0E6F41A485B82915E7849D16C84","06b6fbd1-2115-42b3-b4c8-b6057b8b2cc0","61e1ec61-13c7-4a8f-bf47-a91ec9909364","","null","<div style=""display: flex; justify-content: center; align-items: center;"">
                <img src=""images/causal/causal_series_3/causal_series_3_a.jpg"" style=""width: 300px; height: 300px;"" />
              </div>","null",""
"","","","","","html-keyboard-response","84","356224","0.0-84.0","B68BD0E6F41A485B82915E7849D16C84","06b6fbd1-2115-42b3-b4c8-b6057b8b2cc0","61e1ec61-13c7-4a8f-bf47-a91ec9909364","","null","<div style=""display: flex; justify-content: center; align-items: center;"">
                <img src=""images/causal/causal_series_3/causal_series_3_b.jpg"" style=""width: 300px; height: 300px;"" />
              </div>","null",""
"","","","","","html-keyboard-response","85","359226","0.0-85.0","B68BD0E6F41A485B82915E7849D16C84","06b6fbd1-2115-42b3-b4c8-b6057b8b2cc0","61e1ec61-13c7-4a8f-bf47-a91ec9909364","","null","<div style=""display: flex; justify-content: center; align-items: center;"">
                <img src=""images/causal/causal_series_3/causal_series_3_c.jpg"" style=""width: 300px; height: 300px;"" />
              </div>","null",""
"","","","","","html-button-response","86","360111","0.0-86.0","B68BD0E6F41A485B82915E7849D16C84","06b6fbd1-2115-42b3-b4c8-b6057b8b2cc0","61e1ec61-13c7-4a8f-bf47-a91ec9909364","","883","
    <div style=""display: flex; justify-content: center; align-items: center;"">
      <img src=""images/red_deck_2.png"" style=""width: 300px; height: 300px; margin-right: 10px;"" />
      <img src=""images/blue_deck_1.png"" style=""width: 300px; height: 300px;"" />
    </div>","0","0"
"","","","","","html-keyboard-response","87","363113","0.0-87.0-0.0-0.0","B68BD0E6F41A485B82915E7849D16C84","06b6fbd1-2115-42b3-b4c8-b6057b8b2cc0","61e1ec61-13c7-4a8f-bf47-a91ec9909364","","null","<div style=""display: flex; justify-content: center; align-items: center;"">
                <img src=""images/causal/causal_series_3/causal_series_3_d.jpg"" style=""width: 300px; height: 300px;"" />
              </div>","null",""
"","","","","","html-keyboard-response","88","366115","0.0-88.0","B68BD0E6F41A485B82915E7849D16C84","06b6fbd1-2115-42b3-b4c8-b6057b8b2cc0","61e1ec61-13c7-4a8f-bf47-a91ec9909364","","null","<div style=""display: flex; justify-content: center; align-items: center;"">
                <img src=""images/other/blank.jpg"" style=""width: 300px; height: 300px;"" />
              </div>","null",""
"","","","","","html-keyboard-response","89","369116","0.0-89.0","B68BD0E6F41A485B82915E7849D16C84","06b6fbd1-2115-42b3-b4c8-b6057b8b2cc0","61e1ec61-13c7-4a8f-bf47-a91ec9909364","","null","<div style=""display: flex; justify-content: center; align-items: center;"">
                <img src=""images/causal/causal_series_6/causal_series_6_a.jpg"" style=""width: 300px; height: 300px;"" />
              </div>","null",""
"","","","","","html-keyboard-response","90","372118","0.0-90.0","B68BD0E6F41A485B82915E7849D16C84","06b6fbd1-2115-42b3-b4c8-b6057b8b2cc0","61e1ec61-13c7-4a8f-bf47-a91ec9909364","","null","<div style=""display: flex; justify-content: center; align-items: center;"">
                <img src=""images/causal/causal_series_6/causal_series_6_b.jpg"" style=""width: 300px; height: 300px;"" />
              </div>","null",""
"","","","","","html-keyboard-response","91","375119","0.0-91.0","B68BD0E6F41A485B82915E7849D16C84","06b6fbd1-2115-42b3-b4c8-b6057b8b2cc0","61e1ec61-13c7-4a8f-bf47-a91ec9909364","","null","<div style=""display: flex; justify-content: center; align-items: center;"">
                <img src=""images/causal/causal_series_6/causal_series_6_c.jpg"" style=""width: 300px; height: 300px;"" />
              </div>","null",""
"","","","","","html-button-response","92","376101","0.0-92.0","B68BD0E6F41A485B82915E7849D16C84","06b6fbd1-2115-42b3-b4c8-b6057b8b2cc0","61e1ec61-13c7-4a8f-bf47-a91ec9909364","","980","
    <div style=""display: flex; justify-content: center; align-items: center;"">
      <img src=""images/red_deck_2.png"" style=""width: 300px; height: 300px; margin-right: 10px;"" />
      <img src=""images/blue_deck_1.png"" style=""width: 300px; height: 300px;"" />
    </div>","0","0"
"","","","","","html-keyboard-response","93","379104","0.0-93.0-0.0-0.0","B68BD0E6F41A485B82915E7849D16C84","06b6fbd1-2115-42b3-b4c8-b6057b8b2cc0","61e1ec61-13c7-4a8f-bf47-a91ec9909364","","null","<div style=""display: flex; justify-content: center; align-items: center;"">
                <img src=""images/causal/causal_series_6/causal_series_6_d.jpg"" style=""width: 300px; height: 300px;"" />
              </div>","null",""
"","","","","","html-keyboard-response","94","382106","0.0-94.0","B68BD0E6F41A485B82915E7849D16C84","06b6fbd1-2115-42b3-b4c8-b6057b8b2cc0","61e1ec61-13c7-4a8f-bf47-a91ec9909364","","null","<div style=""display: flex; justify-content: center; align-items: center;"">
                <img src=""images/other/blank.jpg"" style=""width: 300px; height: 300px;"" />
              </div>","null",""
"","","","","","html-keyboard-response","95","385107","0.0-95.0","B68BD0E6F41A485B82915E7849D16C84","06b6fbd1-2115-42b3-b4c8-b6057b8b2cc0","61e1ec61-13c7-4a8f-bf47-a91ec9909364","","null","<div style=""display: flex; justify-content: center; align-items: center;"">
                <img src=""images/causal/causal_series_5/causal_series_5_a.jpg"" style=""width: 300px; height: 300px;"" />
              </div>","null",""
"","","","","","html-keyboard-response","96","388109","0.0-96.0","B68BD0E6F41A485B82915E7849D16C84","06b6fbd1-2115-42b3-b4c8-b6057b8b2cc0","61e1ec61-13c7-4a8f-bf47-a91ec9909364","","null","<div style=""display: flex; justify-content: center; align-items: center;"">
                <img src=""images/causal/causal_series_5/causal_series_5_b.jpg"" style=""width: 300px; height: 300px;"" />
              </div>","null",""
"","","","","","html-keyboard-response","97","391112","0.0-97.0","B68BD0E6F41A485B82915E7849D16C84","06b6fbd1-2115-42b3-b4c8-b6057b8b2cc0","61e1ec61-13c7-4a8f-bf47-a91ec9909364","","null","<div style=""display: flex; justify-content: center; align-items: center;"">
                <img src=""images/causal/causal_series_5/causal_series_5_c.jpg"" style=""width: 300px; height: 300px;"" />
              </div>","null",""
"","","","","","html-button-response","98","391990","0.0-98.0","B68BD0E6F41A485B82915E7849D16C84","06b6fbd1-2115-42b3-b4c8-b6057b8b2cc0","61e1ec61-13c7-4a8f-bf47-a91ec9909364","","877","
    <div style=""display: flex; justify-content: center; align-items: center;"">
      <img src=""images/red_deck_2.png"" style=""width: 300px; height: 300px; margin-right: 10px;"" />
      <img src=""images/blue_deck_1.png"" style=""width: 300px; height: 300px;"" />
    </div>","0","0"
"","","","","","html-keyboard-response","99","394993","0.0-99.0-0.0-0.0","B68BD0E6F41A485B82915E7849D16C84","06b6fbd1-2115-42b3-b4c8-b6057b8b2cc0","61e1ec61-13c7-4a8f-bf47-a91ec9909364","","null","<div style=""display: flex; justify-content: center; align-items: center;"">
                <img src=""images/causal/causal_series_5/causal_series_5_d.jpg"" style=""width: 300px; height: 300px;"" />
              </div>","null",""
"","","","","","html-keyboard-response","100","397996","0.0-100.0","B68BD0E6F41A485B82915E7849D16C84","06b6fbd1-2115-42b3-b4c8-b6057b8b2cc0","61e1ec61-13c7-4a8f-bf47-a91ec9909364","","null","<div style=""display: flex; justify-content: center; align-items: center;"">
                <img src=""images/other/blank.jpg"" style=""width: 300px; height: 300px;"" />
              </div>","null",""
"","","","","","html-keyboard-response","101","400998","0.0-101.0","B68BD0E6F41A485B82915E7849D16C84","06b6fbd1-2115-42b3-b4c8-b6057b8b2cc0","61e1ec61-13c7-4a8f-bf47-a91ec9909364","","null","<div style=""display: flex; justify-content: center; align-items: center;"">
                <img src=""images/causal/causal_series_1/causal_series_1_a.jpg"" style=""width: 300px; height: 300px;"" />
              </div>","null",""
"","","","","","html-keyboard-response","102","404000","0.0-102.0","B68BD0E6F41A485B82915E7849D16C84","06b6fbd1-2115-42b3-b4c8-b6057b8b2cc0","61e1ec61-13c7-4a8f-bf47-a91ec9909364","","null","<div style=""display: flex; justify-content: center; align-items: center;"">
                <img src=""images/causal/causal_series_1/causal_series_1_b.jpg"" style=""width: 300px; height: 300px;"" />
              </div>","null",""
"","","","","","html-keyboard-response","103","407003","0.0-103.0","B68BD0E6F41A485B82915E7849D16C84","06b6fbd1-2115-42b3-b4c8-b6057b8b2cc0","61e1ec61-13c7-4a8f-bf47-a91ec9909364","","null","<div style=""display: flex; justify-content: center; align-items: center;"">
                <img src=""images/causal/causal_series_1/causal_series_1_c.jpg"" style=""width: 300px; height: 300px;"" />
              </div>","null",""
"","","","","","html-button-response","104","408269","0.0-104.0","B68BD0E6F41A485B82915E7849D16C84","06b6fbd1-2115-42b3-b4c8-b6057b8b2cc0","61e1ec61-13c7-4a8f-bf47-a91ec9909364","","1265","
    <div style=""display: flex; justify-content: center; align-items: center;"">
      <img src=""images/red_deck_2.png"" style=""width: 300px; height: 300px; margin-right: 10px;"" />
      <img src=""images/blue_deck_1.png"" style=""width: 300px; height: 300px;"" />
    </div>","0","0"
"","","","","","html-keyboard-response","105","411272","0.0-105.0-0.0-0.0","B68BD0E6F41A485B82915E7849D16C84","06b6fbd1-2115-42b3-b4c8-b6057b8b2cc0","61e1ec61-13c7-4a8f-bf47-a91ec9909364","","null","<div style=""display: flex; justify-content: center; align-items: center;"">
                <img src=""images/causal/causal_series_1/causal_series_1_d.jpg"" style=""width: 300px; height: 300px;"" />
              </div>","null",""
"","","","","","html-keyboard-response","106","414274","0.0-106.0","B68BD0E6F41A485B82915E7849D16C84","06b6fbd1-2115-42b3-b4c8-b6057b8b2cc0","61e1ec61-13c7-4a8f-bf47-a91ec9909364","","null","<div style=""display: flex; justify-content: center; align-items: center;"">
                <img src=""images/other/blank.jpg"" style=""width: 300px; height: 300px;"" />
              </div>","null",""
"","","","","","html-keyboard-response","107","417276","0.0-107.0","B68BD0E6F41A485B82915E7849D16C84","06b6fbd1-2115-42b3-b4c8-b6057b8b2cc0","61e1ec61-13c7-4a8f-bf47-a91ec9909364","","null","<div style=""display: flex; justify-content: center; align-items: center;"">
                <img src=""images/causal/causal_series_12/causal_series_12_a.jpg"" style=""width: 300px; height: 300px;"" />
              </div>","null",""
"","","","","","html-keyboard-response","108","420279","0.0-108.0","B68BD0E6F41A485B82915E7849D16C84","06b6fbd1-2115-42b3-b4c8-b6057b8b2cc0","61e1ec61-13c7-4a8f-bf47-a91ec9909364","","null","<div style=""display: flex; justify-content: center; align-items: center;"">
                <img src=""images/causal/causal_series_12/causal_series_12_b.jpg"" style=""width: 300px; height: 300px;"" />
              </div>","null",""
"","","","","","html-keyboard-response","109","423280","0.0-109.0","B68BD0E6F41A485B82915E7849D16C84","06b6fbd1-2115-42b3-b4c8-b6057b8b2cc0","61e1ec61-13c7-4a8f-bf47-a91ec9909364","","null","<div style=""display: flex; justify-content: center; align-items: center;"">
                <img src=""images/causal/causal_series_12/causal_series_12_c.jpg"" style=""width: 300px; height: 300px;"" />
              </div>","null",""
"","","","","","html-button-response","110","424085","0.0-110.0","B68BD0E6F41A485B82915E7849D16C84","06b6fbd1-2115-42b3-b4c8-b6057b8b2cc0","61e1ec61-13c7-4a8f-bf47-a91ec9909364","","804","
    <div style=""display: flex; justify-content: center; align-items: center;"">
      <img src=""images/red_deck_2.png"" style=""width: 300px; height: 300px; margin-right: 10px;"" />
      <img src=""images/blue_deck_1.png"" style=""width: 300px; height: 300px;"" />
    </div>","0","0"
"","","","","","html-keyboard-response","111","427087","0.0-111.0-0.0-0.0","B68BD0E6F41A485B82915E7849D16C84","06b6fbd1-2115-42b3-b4c8-b6057b8b2cc0","61e1ec61-13c7-4a8f-bf47-a91ec9909364","","null","<div style=""display: flex; justify-content: center; align-items: center;"">
                <img src=""images/causal/causal_series_12/causal_series_12_d.jpg"" style=""width: 300px; height: 300px;"" />
              </div>","null",""
"","","","","","html-keyboard-response","112","430089","0.0-112.0","B68BD0E6F41A485B82915E7849D16C84","06b6fbd1-2115-42b3-b4c8-b6057b8b2cc0","61e1ec61-13c7-4a8f-bf47-a91ec9909364","","null","<div style=""display: flex; justify-content: center; align-items: center;"">
                <img src=""images/other/blank.jpg"" style=""width: 300px; height: 300px;"" />
              </div>","null",""
"","","","","","survey-text","113","450296","0.0-113.0","B68BD0E6F41A485B82915E7849D16C84","06b6fbd1-2115-42b3-b4c8-b6057b8b2cc0","61e1ec61-13c7-4a8f-bf47-a91ec9909364","","20204","","{""Q0"":""the red continues the story the blue one gives a random image""}",""
"","","","","","survey-text","114","457290","0.0-114.0","B68BD0E6F41A485B82915E7849D16C84","06b6fbd1-2115-42b3-b4c8-b6057b8b2cc0","61e1ec61-13c7-4a8f-bf47-a91ec9909364","","6991","","{""Q0"":""the red""}",""
"","","","","","html-button-response","115","460581","0.0-115.0","B68BD0E6F41A485B82915E7849D16C84","06b6fbd1-2115-42b3-b4c8-b6057b8b2cc0","61e1ec61-13c7-4a8f-bf47-a91ec9909364","","3290","Which color deck does the fourth image continue the story from the series?","1",""
"","","","","","html-button-response","116","462591","0.0-116.0","B68BD0E6F41A485B82915E7849D16C84","06b6fbd1-2115-42b3-b4c8-b6057b8b2cc0","61e1ec61-13c7-4a8f-bf47-a91ec9909364","","2008","Which color deck does the fourth image not follow the story from the series?","0",""
"","","","","","survey-text","117","468346","0.0-117.0","B68BD0E6F41A485B82915E7849D16C84","06b6fbd1-2115-42b3-b4c8-b6057b8b2cc0","61e1ec61-13c7-4a8f-bf47-a91ec9909364","","5753","","{""Q0"":""female"",""Q1"":""32""}",""
"","","","","","instructions","118","472799","0.0-118.0","B68BD0E6F41A485B82915E7849D16C84","06b6fbd1-2115-42b3-b4c8-b6057b8b2cc0","61e1ec61-13c7-4a8f-bf47-a91ec9909364","[{""page_index"":0,""viewing_time"":4452}]","4452","","",""
