"success","timeout","failed_images","failed_audio","failed_video","trial_type","trial_index","time_elapsed","internal_node_id","subject_id","study_id","session_id","view_history","rt","stimulus","response","series","repetition","phase","choice","question_order"
"true","false","[]","[]","[]","preload","0","4112","0.0-0.0","B6F08521DBD74D168A8EE8F72457454B","0199d600-d5e0-7ed8-b64e-bf4fbaa735d0","0199d5ef-c7d4-7cab-a194-b2c3afbaf8e8","","","","","","","","",""
"","","","","","instructions","1","44552","0.0-1.0","B6F08521DBD74D168A8EE8F72457454B","0199d600-d5e0-7ed8-b64e-bf4fbaa735d0","0199d5ef-c7d4-7cab-a194-b2c3afbaf8e8","[{""page_index"":0,""viewing_time"":40433}]","40434","","","","","","",""
"","","","","","instructions","2","52153","0.0-2.0","B6F08521DBD74D168A8EE8F72457454B","0199d600-d5e0-7ed8-b64e-bf4fbaa735d0","0199d5ef-c7d4-7cab-a194-b2c3afbaf8e8","[{""page_index"":0,""viewing_time"":7598}]","7599","","","","","","",""
"true","","","","","fullscreen","3","55026","0.0-3.0","B6F08521DBD74D168A8EE8F72457454B","0199d600-d5e0-7ed8-b64e-bf4fbaa735d0","0199d5ef-c7d4-7cab-a194-b2c3afbaf8e8","","1870","","","","","","",""
"","","","","","instructions","4","73539","0.0-4.0","B6F08521DBD74D168A8EE8F72457454B","0199d600-d5e0-7ed8-b64e-bf4fbaa735d0","0199d5ef-c7d4-7cab-a194-b2c3afbaf8e8","[{""page_index"":0,""viewing_time"":18510}]","18511","","","","","","",""
"","","","","","html-keyboard-response","5","79541","0.0-5.0","B6F08521DBD74D168A8EE8F72457454B","0199d600-d5e0-7ed8-b64e-bf4fbaa735d0","0199d5ef-c7d4-7cab-a194-b2c3afbaf8e8","","null","<div style=""display: flex; justify-content: center; align-items: center;"">
                     <img src=""images/causal/causal_series_5/causal_series_5_a.png"" style=""width: 300px; height: 300px;"" />
                   </div>","null","5","2","A","",""
"","","","","","html-keyboard-response","6","85543","0.0-6.0","B6F08521DBD74D168A8EE8F72457454B","0199d600-d5e0-7ed8-b64e-bf4fbaa735d0","0199d5ef-c7d4-7cab-a194-b2c3afbaf8e8","","null","<div style=""display: flex; justify-content: center; align-items: center;"">
                     <img src=""images/causal/causal_series_5/causal_series_5_b.png"" style=""width: 300px; height: 300px;"" />
                   </div>","null","5","2","B","",""
"","","","","","html-keyboard-response","7","91544","0.0-7.0","B6F08521DBD74D168A8EE8F72457454B","0199d600-d5e0-7ed8-b64e-bf4fbaa735d0","0199d5ef-c7d4-7cab-a194-b2c3afbaf8e8","","null","<div style=""display: flex; justify-content: center; align-items: center;"">
                     <img src=""images/causal/causal_series_5/causal_series_5_c.png"" style=""width: 300px; height: 300px;"" />
                   </div>","null","5","2","C","",""
"","","","","","html-button-response","8","94203","0.0-8.0","B6F08521DBD74D168A8EE8F72457454B","0199d600-d5e0-7ed8-b64e-bf4fbaa735d0","0199d5ef-c7d4-7cab-a194-b2c3afbaf8e8","","2655","
        <div style=""display: flex; justify-content: center; align-items: center;"">
          <img src=""images/red_deck_2.png"" style=""width: 300px; height: 300px; margin-right: 10px;"" />
          <img src=""images/blue_deck_1.png"" style=""width: 300px; height: 300px;"" />
        </div>","1","5","2","choice","1",""
"","","","","","html-keyboard-response","9","100206","0.0-9.0-1.0-0.0","B6F08521DBD74D168A8EE8F72457454B","0199d600-d5e0-7ed8-b64e-bf4fbaa735d0","0199d5ef-c7d4-7cab-a194-b2c3afbaf8e8","","null","<div style=""display: flex; justify-content: center; align-items: center;"">
                     <img src=""images/semantic/semantic_series_5/semantic_series_5_d.png"" style=""width: 300px; height: 300px;"" />
                   </div>","null","5","2","D","",""
"","","","","","html-keyboard-response","10","106207","0.0-9.0-1.0-1.0","B6F08521DBD74D168A8EE8F72457454B","0199d600-d5e0-7ed8-b64e-bf4fbaa735d0","0199d5ef-c7d4-7cab-a194-b2c3afbaf8e8","","null","<div style=""display: flex; justify-content: center; align-items: center;"">
                     <img src=""images/semantic/semantic_series_5/semantic_series_5_e.png"" style=""width: 300px; height: 300px;"" />
                   </div>","null","5","2","E","",""
"","","","","","html-keyboard-response","11","112208","0.0-9.0-1.0-2.0","B6F08521DBD74D168A8EE8F72457454B","0199d600-d5e0-7ed8-b64e-bf4fbaa735d0","0199d5ef-c7d4-7cab-a194-b2c3afbaf8e8","","null","<div style=""display: flex; justify-content: center; align-items: center;"">
                     <img src=""images/semantic/semantic_series_5/semantic_series_5_f.png"" style=""width: 300px; height: 300px;"" />
                   </div>","null","5","2","F","",""
"","","","","","survey-likert","12","121919","0.0-10.0","B6F08521DBD74D168A8EE8F72457454B","0199d600-d5e0-7ed8-b64e-bf4fbaa735d0","0199d5ef-c7d4-7cab-a194-b2c3afbaf8e8","","9700","","{""Q0"":3}","5","2","surprise_rating","","[0]"
"","","","","","survey-likert","13","125115","0.0-11.0","B6F08521DBD74D168A8EE8F72457454B","0199d600-d5e0-7ed8-b64e-bf4fbaa735d0","0199d5ef-c7d4-7cab-a194-b2c3afbaf8e8","","3193","","{""Q0"":2}","5","2","enjoyment_rating","","[0]"
"","","","","","html-keyboard-response","14","131117","0.0-12.0","B6F08521DBD74D168A8EE8F72457454B","0199d600-d5e0-7ed8-b64e-bf4fbaa735d0","0199d5ef-c7d4-7cab-a194-b2c3afbaf8e8","","null","<div style=""display: flex; justify-content: center; align-items: center;"">
                     <img src=""images/other/blank.png"" style=""width: 300px; height: 300px;"" />
                   </div>","null","0","0","blank","",""
"","","","","","html-keyboard-response","15","137127","0.0-13.0","B6F08521DBD74D168A8EE8F72457454B","0199d600-d5e0-7ed8-b64e-bf4fbaa735d0","0199d5ef-c7d4-7cab-a194-b2c3afbaf8e8","","null","<div style=""display: flex; justify-content: center; align-items: center;"">
                     <img src=""images/causal/causal_series_8/causal_series_8_a.png"" style=""width: 300px; height: 300px;"" />
                   </div>","null","8","2","A","",""
"","","","","","html-keyboard-response","16","143128","0.0-14.0","B6F08521DBD74D168A8EE8F72457454B","0199d600-d5e0-7ed8-b64e-bf4fbaa735d0","0199d5ef-c7d4-7cab-a194-b2c3afbaf8e8","","null","<div style=""display: flex; justify-content: center; align-items: center;"">
                     <img src=""images/causal/causal_series_8/causal_series_8_b.png"" style=""width: 300px; height: 300px;"" />
                   </div>","null","8","2","B","",""
"","","","","","html-keyboard-response","17","149129","0.0-15.0","B6F08521DBD74D168A8EE8F72457454B","0199d600-d5e0-7ed8-b64e-bf4fbaa735d0","0199d5ef-c7d4-7cab-a194-b2c3afbaf8e8","","null","<div style=""display: flex; justify-content: center; align-items: center;"">
                     <img src=""images/causal/causal_series_8/causal_series_8_c.png"" style=""width: 300px; height: 300px;"" />
                   </div>","null","8","2","C","",""
"","","","","","html-button-response","18","152001","0.0-16.0","B6F08521DBD74D168A8EE8F72457454B","0199d600-d5e0-7ed8-b64e-bf4fbaa735d0","0199d5ef-c7d4-7cab-a194-b2c3afbaf8e8","","2870","
        <div style=""display: flex; justify-content: center; align-items: center;"">
          <img src=""images/red_deck_2.png"" style=""width: 300px; height: 300px; margin-right: 10px;"" />
          <img src=""images/blue_deck_1.png"" style=""width: 300px; height: 300px;"" />
        </div>","0","8","2","choice","0",""
"","","","","","html-keyboard-response","19","158003","0.0-17.0-0.0-0.0","B6F08521DBD74D168A8EE8F72457454B","0199d600-d5e0-7ed8-b64e-bf4fbaa735d0","0199d5ef-c7d4-7cab-a194-b2c3afbaf8e8","","null","<div style=""display: flex; justify-content: center; align-items: center;"">
                     <img src=""images/causal/causal_series_8/causal_series_8_d.png"" style=""width: 300px; height: 300px;"" />
                   </div>","null","8","2","D","",""
"","","","","","html-keyboard-response","20","164004","0.0-17.0-0.0-1.0","B6F08521DBD74D168A8EE8F72457454B","0199d600-d5e0-7ed8-b64e-bf4fbaa735d0","0199d5ef-c7d4-7cab-a194-b2c3afbaf8e8","","null","<div style=""display: flex; justify-content: center; align-items: center;"">
                     <img src=""images/causal/causal_series_8/causal_series_8_e.png"" style=""width: 300px; height: 300px;"" />
                   </div>","null","8","2","E","",""
"","","","","","html-keyboard-response","21","170006","0.0-17.0-0.0-2.0","B6F08521DBD74D168A8EE8F72457454B","0199d600-d5e0-7ed8-b64e-bf4fbaa735d0","0199d5ef-c7d4-7cab-a194-b2c3afbaf8e8","","null","<div style=""display: flex; justify-content: center; align-items: center;"">
                     <img src=""images/causal/causal_series_8/causal_series_8_f.png"" style=""width: 300px; height: 300px;"" />
                   </div>","null","8","2","F","",""
"","","","","","survey-likert","22","174244","0.0-18.0","B6F08521DBD74D168A8EE8F72457454B","0199d600-d5e0-7ed8-b64e-bf4fbaa735d0","0199d5ef-c7d4-7cab-a194-b2c3afbaf8e8","","4235","","{""Q0"":1}","8","2","surprise_rating","","[0]"
"","","","","","survey-likert","23","178418","0.0-19.0","B6F08521DBD74D168A8EE8F72457454B","0199d600-d5e0-7ed8-b64e-bf4fbaa735d0","0199d5ef-c7d4-7cab-a194-b2c3afbaf8e8","","4172","","{""Q0"":1}","8","2","enjoyment_rating","","[0]"
"","","","","","html-keyboard-response","24","184421","0.0-20.0","B6F08521DBD74D168A8EE8F72457454B","0199d600-d5e0-7ed8-b64e-bf4fbaa735d0","0199d5ef-c7d4-7cab-a194-b2c3afbaf8e8","","null","<div style=""display: flex; justify-content: center; align-items: center;"">
                     <img src=""images/other/blank.png"" style=""width: 300px; height: 300px;"" />
                   </div>","null","0","0","blank","",""
"","","","","","html-keyboard-response","25","190423","0.0-21.0","B6F08521DBD74D168A8EE8F72457454B","0199d600-d5e0-7ed8-b64e-bf4fbaa735d0","0199d5ef-c7d4-7cab-a194-b2c3afbaf8e8","","null","<div style=""display: flex; justify-content: center; align-items: center;"">
                     <img src=""images/causal/causal_series_4/causal_series_4_a.png"" style=""width: 300px; height: 300px;"" />
                   </div>","null","4","1","A","",""
"","","","","","html-keyboard-response","26","196424","0.0-22.0","B6F08521DBD74D168A8EE8F72457454B","0199d600-d5e0-7ed8-b64e-bf4fbaa735d0","0199d5ef-c7d4-7cab-a194-b2c3afbaf8e8","","null","<div style=""display: flex; justify-content: center; align-items: center;"">
                     <img src=""images/causal/causal_series_4/causal_series_4_b.png"" style=""width: 300px; height: 300px;"" />
                   </div>","null","4","1","B","",""
"","","","","","html-keyboard-response","27","202426","0.0-23.0","B6F08521DBD74D168A8EE8F72457454B","0199d600-d5e0-7ed8-b64e-bf4fbaa735d0","0199d5ef-c7d4-7cab-a194-b2c3afbaf8e8","","null","<div style=""display: flex; justify-content: center; align-items: center;"">
                     <img src=""images/causal/causal_series_4/causal_series_4_c.png"" style=""width: 300px; height: 300px;"" />
                   </div>","null","4","1","C","",""
"","","","","","html-button-response","28","204073","0.0-24.0","B6F08521DBD74D168A8EE8F72457454B","0199d600-d5e0-7ed8-b64e-bf4fbaa735d0","0199d5ef-c7d4-7cab-a194-b2c3afbaf8e8","","1646","
        <div style=""display: flex; justify-content: center; align-items: center;"">
          <img src=""images/red_deck_2.png"" style=""width: 300px; height: 300px; margin-right: 10px;"" />
          <img src=""images/blue_deck_1.png"" style=""width: 300px; height: 300px;"" />
        </div>","1","4","1","choice","1",""
"","","","","","html-keyboard-response","29","210075","0.0-25.0-1.0-0.0","B6F08521DBD74D168A8EE8F72457454B","0199d600-d5e0-7ed8-b64e-bf4fbaa735d0","0199d5ef-c7d4-7cab-a194-b2c3afbaf8e8","","null","<div style=""display: flex; justify-content: center; align-items: center;"">
                     <img src=""images/semantic/semantic_series_4/semantic_series_4_d.png"" style=""width: 300px; height: 300px;"" />
                   </div>","null","4","1","D","",""
"","","","","","html-keyboard-response","30","216076","0.0-25.0-1.0-1.0","B6F08521DBD74D168A8EE8F72457454B","0199d600-d5e0-7ed8-b64e-bf4fbaa735d0","0199d5ef-c7d4-7cab-a194-b2c3afbaf8e8","","null","<div style=""display: flex; justify-content: center; align-items: center;"">
                     <img src=""images/semantic/semantic_series_4/semantic_series_4_e.png"" style=""width: 300px; height: 300px;"" />
                   </div>","null","4","1","E","",""
"","","","","","html-keyboard-response","31","222078","0.0-25.0-1.0-2.0","B6F08521DBD74D168A8EE8F72457454B","0199d600-d5e0-7ed8-b64e-bf4fbaa735d0","0199d5ef-c7d4-7cab-a194-b2c3afbaf8e8","","null","<div style=""display: flex; justify-content: center; align-items: center;"">
                     <img src=""images/semantic/semantic_series_4/semantic_series_4_f.png"" style=""width: 300px; height: 300px;"" />
                   </div>","null","4","1","F","",""
"","","","","","survey-likert","32","226658","0.0-26.0","B6F08521DBD74D168A8EE8F72457454B","0199d600-d5e0-7ed8-b64e-bf4fbaa735d0","0199d5ef-c7d4-7cab-a194-b2c3afbaf8e8","","4579","","{""Q0"":1}","4","1","surprise_rating","","[0]"
"","","","","","survey-likert","33","228986","0.0-27.0","B6F08521DBD74D168A8EE8F72457454B","0199d600-d5e0-7ed8-b64e-bf4fbaa735d0","0199d5ef-c7d4-7cab-a194-b2c3afbaf8e8","","2324","","{""Q0"":1}","4","1","enjoyment_rating","","[0]"
"","","","","","html-keyboard-response","34","234989","0.0-28.0","B6F08521DBD74D168A8EE8F72457454B","0199d600-d5e0-7ed8-b64e-bf4fbaa735d0","0199d5ef-c7d4-7cab-a194-b2c3afbaf8e8","","null","<div style=""display: flex; justify-content: center; align-items: center;"">
                     <img src=""images/other/blank.png"" style=""width: 300px; height: 300px;"" />
                   </div>","null","0","0","blank","",""
"","","","","","html-keyboard-response","35","240990","0.0-29.0","B6F08521DBD74D168A8EE8F72457454B","0199d600-d5e0-7ed8-b64e-bf4fbaa735d0","0199d5ef-c7d4-7cab-a194-b2c3afbaf8e8","","null","<div style=""display: flex; justify-content: center; align-items: center;"">
                     <img src=""images/causal/causal_series_2/causal_series_2_a.png"" style=""width: 300px; height: 300px;"" />
                   </div>","null","2","2","A","",""
"","","","","","html-keyboard-response","36","246992","0.0-30.0","B6F08521DBD74D168A8EE8F72457454B","0199d600-d5e0-7ed8-b64e-bf4fbaa735d0","0199d5ef-c7d4-7cab-a194-b2c3afbaf8e8","","null","<div style=""display: flex; justify-content: center; align-items: center;"">
                     <img src=""images/causal/causal_series_2/causal_series_2_b.png"" style=""width: 300px; height: 300px;"" />
                   </div>","null","2","2","B","",""
"","","","","","html-keyboard-response","37","252994","0.0-31.0","B6F08521DBD74D168A8EE8F72457454B","0199d600-d5e0-7ed8-b64e-bf4fbaa735d0","0199d5ef-c7d4-7cab-a194-b2c3afbaf8e8","","null","<div style=""display: flex; justify-content: center; align-items: center;"">
                     <img src=""images/causal/causal_series_2/causal_series_2_c.png"" style=""width: 300px; height: 300px;"" />
                   </div>","null","2","2","C","",""
"","","","","","html-button-response","38","254138","0.0-32.0","B6F08521DBD74D168A8EE8F72457454B","0199d600-d5e0-7ed8-b64e-bf4fbaa735d0","0199d5ef-c7d4-7cab-a194-b2c3afbaf8e8","","1142","
        <div style=""display: flex; justify-content: center; align-items: center;"">
          <img src=""images/red_deck_2.png"" style=""width: 300px; height: 300px; margin-right: 10px;"" />
          <img src=""images/blue_deck_1.png"" style=""width: 300px; height: 300px;"" />
        </div>","1","2","2","choice","1",""
"","","","","","html-keyboard-response","39","260139","0.0-33.0-1.0-0.0","B6F08521DBD74D168A8EE8F72457454B","0199d600-d5e0-7ed8-b64e-bf4fbaa735d0","0199d5ef-c7d4-7cab-a194-b2c3afbaf8e8","","null","<div style=""display: flex; justify-content: center; align-items: center;"">
                     <img src=""images/semantic/semantic_series_2/semantic_series_2_d.png"" style=""width: 300px; height: 300px;"" />
                   </div>","null","2","2","D","",""
"","","","","","html-keyboard-response","40","266141","0.0-33.0-1.0-1.0","B6F08521DBD74D168A8EE8F72457454B","0199d600-d5e0-7ed8-b64e-bf4fbaa735d0","0199d5ef-c7d4-7cab-a194-b2c3afbaf8e8","","null","<div style=""display: flex; justify-content: center; align-items: center;"">
                     <img src=""images/semantic/semantic_series_2/semantic_series_2_e.png"" style=""width: 300px; height: 300px;"" />
                   </div>","null","2","2","E","",""
"","","","","","html-keyboard-response","41","272142","0.0-33.0-1.0-2.0","B6F08521DBD74D168A8EE8F72457454B","0199d600-d5e0-7ed8-b64e-bf4fbaa735d0","0199d5ef-c7d4-7cab-a194-b2c3afbaf8e8","","null","<div style=""display: flex; justify-content: center; align-items: center;"">
                     <img src=""images/semantic/semantic_series_2/semantic_series_2_f.png"" style=""width: 300px; height: 300px;"" />
                   </div>","null","2","2","F","",""
"","","","","","survey-likert","42","283891","0.0-34.0","B6F08521DBD74D168A8EE8F72457454B","0199d600-d5e0-7ed8-b64e-bf4fbaa735d0","0199d5ef-c7d4-7cab-a194-b2c3afbaf8e8","","11747","","{""Q0"":1}","2","2","surprise_rating","","[0]"
"","","","","","survey-likert","43","286676","0.0-35.0","B6F08521DBD74D168A8EE8F72457454B","0199d600-d5e0-7ed8-b64e-bf4fbaa735d0","0199d5ef-c7d4-7cab-a194-b2c3afbaf8e8","","2781","","{""Q0"":1}","2","2","enjoyment_rating","","[0]"
"","","","","","html-keyboard-response","44","292678","0.0-36.0","B6F08521DBD74D168A8EE8F72457454B","0199d600-d5e0-7ed8-b64e-bf4fbaa735d0","0199d5ef-c7d4-7cab-a194-b2c3afbaf8e8","","null","<div style=""display: flex; justify-content: center; align-items: center;"">
                     <img src=""images/other/blank.png"" style=""width: 300px; height: 300px;"" />
                   </div>","null","0","0","blank","",""
"","","","","","html-keyboard-response","45","298679","0.0-37.0","B6F08521DBD74D168A8EE8F72457454B","0199d600-d5e0-7ed8-b64e-bf4fbaa735d0","0199d5ef-c7d4-7cab-a194-b2c3afbaf8e8","","null","<div style=""display: flex; justify-content: center; align-items: center;"">
                     <img src=""images/causal/causal_series_1/causal_series_1_a.png"" style=""width: 300px; height: 300px;"" />
                   </div>","null","1","2","A","",""
"","","","","","html-keyboard-response","46","304681","0.0-38.0","B6F08521DBD74D168A8EE8F72457454B","0199d600-d5e0-7ed8-b64e-bf4fbaa735d0","0199d5ef-c7d4-7cab-a194-b2c3afbaf8e8","","null","<div style=""display: flex; justify-content: center; align-items: center;"">
                     <img src=""images/causal/causal_series_1/causal_series_1_b.png"" style=""width: 300px; height: 300px;"" />
                   </div>","null","1","2","B","",""
"","","","","","html-keyboard-response","47","310682","0.0-39.0","B6F08521DBD74D168A8EE8F72457454B","0199d600-d5e0-7ed8-b64e-bf4fbaa735d0","0199d5ef-c7d4-7cab-a194-b2c3afbaf8e8","","null","<div style=""display: flex; justify-content: center; align-items: center;"">
                     <img src=""images/causal/causal_series_1/causal_series_1_c.png"" style=""width: 300px; height: 300px;"" />
                   </div>","null","1","2","C","",""
"","","","","","html-button-response","48","312438","0.0-40.0","B6F08521DBD74D168A8EE8F72457454B","0199d600-d5e0-7ed8-b64e-bf4fbaa735d0","0199d5ef-c7d4-7cab-a194-b2c3afbaf8e8","","1754","
        <div style=""display: flex; justify-content: center; align-items: center;"">
          <img src=""images/red_deck_2.png"" style=""width: 300px; height: 300px; margin-right: 10px;"" />
          <img src=""images/blue_deck_1.png"" style=""width: 300px; height: 300px;"" />
        </div>","0","1","2","choice","0",""
"","","","","","html-keyboard-response","49","318440","0.0-41.0-0.0-0.0","B6F08521DBD74D168A8EE8F72457454B","0199d600-d5e0-7ed8-b64e-bf4fbaa735d0","0199d5ef-c7d4-7cab-a194-b2c3afbaf8e8","","null","<div style=""display: flex; justify-content: center; align-items: center;"">
                     <img src=""images/causal/causal_series_1/causal_series_1_d.png"" style=""width: 300px; height: 300px;"" />
                   </div>","null","1","2","D","",""
"","","","","","html-keyboard-response","50","324441","0.0-41.0-0.0-1.0","B6F08521DBD74D168A8EE8F72457454B","0199d600-d5e0-7ed8-b64e-bf4fbaa735d0","0199d5ef-c7d4-7cab-a194-b2c3afbaf8e8","","null","<div style=""display: flex; justify-content: center; align-items: center;"">
                     <img src=""images/causal/causal_series_1/causal_series_1_e.png"" style=""width: 300px; height: 300px;"" />
                   </div>","null","1","2","E","",""
"","","","","","html-keyboard-response","51","330442","0.0-41.0-0.0-2.0","B6F08521DBD74D168A8EE8F72457454B","0199d600-d5e0-7ed8-b64e-bf4fbaa735d0","0199d5ef-c7d4-7cab-a194-b2c3afbaf8e8","","null","<div style=""display: flex; justify-content: center; align-items: center;"">
                     <img src=""images/causal/causal_series_1/causal_series_1_f.png"" style=""width: 300px; height: 300px;"" />
                   </div>","null","1","2","F","",""
"","","","","","survey-likert","52","335580","0.0-42.0","B6F08521DBD74D168A8EE8F72457454B","0199d600-d5e0-7ed8-b64e-bf4fbaa735d0","0199d5ef-c7d4-7cab-a194-b2c3afbaf8e8","","5135","","{""Q0"":3}","1","2","surprise_rating","","[0]"
"","","","","","survey-likert","53","337914","0.0-43.0","B6F08521DBD74D168A8EE8F72457454B","0199d600-d5e0-7ed8-b64e-bf4fbaa735d0","0199d5ef-c7d4-7cab-a194-b2c3afbaf8e8","","2332","","{""Q0"":2}","1","2","enjoyment_rating","","[0]"
"","","","","","html-keyboard-response","54","343917","0.0-44.0","B6F08521DBD74D168A8EE8F72457454B","0199d600-d5e0-7ed8-b64e-bf4fbaa735d0","0199d5ef-c7d4-7cab-a194-b2c3afbaf8e8","","null","<div style=""display: flex; justify-content: center; align-items: center;"">
                     <img src=""images/other/blank.png"" style=""width: 300px; height: 300px;"" />
                   </div>","null","0","0","blank","",""
"","","","","","html-keyboard-response","55","349918","0.0-45.0","B6F08521DBD74D168A8EE8F72457454B","0199d600-d5e0-7ed8-b64e-bf4fbaa735d0","0199d5ef-c7d4-7cab-a194-b2c3afbaf8e8","","null","<div style=""display: flex; justify-content: center; align-items: center;"">
                     <img src=""images/causal/causal_series_3/causal_series_3_a.png"" style=""width: 300px; height: 300px;"" />
                   </div>","null","3","1","A","",""
"","","","","","html-keyboard-response","56","355920","0.0-46.0","B6F08521DBD74D168A8EE8F72457454B","0199d600-d5e0-7ed8-b64e-bf4fbaa735d0","0199d5ef-c7d4-7cab-a194-b2c3afbaf8e8","","null","<div style=""display: flex; justify-content: center; align-items: center;"">
                     <img src=""images/causal/causal_series_3/causal_series_3_b.png"" style=""width: 300px; height: 300px;"" />
                   </div>","null","3","1","B","",""
"","","","","","html-keyboard-response","57","361921","0.0-47.0","B6F08521DBD74D168A8EE8F72457454B","0199d600-d5e0-7ed8-b64e-bf4fbaa735d0","0199d5ef-c7d4-7cab-a194-b2c3afbaf8e8","","null","<div style=""display: flex; justify-content: center; align-items: center;"">
                     <img src=""images/causal/causal_series_3/causal_series_3_c.png"" style=""width: 300px; height: 300px;"" />
                   </div>","null","3","1","C","",""
"","","","","","html-button-response","58","365825","0.0-48.0","B6F08521DBD74D168A8EE8F72457454B","0199d600-d5e0-7ed8-b64e-bf4fbaa735d0","0199d5ef-c7d4-7cab-a194-b2c3afbaf8e8","","3903","
        <div style=""display: flex; justify-content: center; align-items: center;"">
          <img src=""images/red_deck_2.png"" style=""width: 300px; height: 300px; margin-right: 10px;"" />
          <img src=""images/blue_deck_1.png"" style=""width: 300px; height: 300px;"" />
        </div>","0","3","1","choice","0",""
"","","","","","html-keyboard-response","59","371827","0.0-49.0-0.0-0.0","B6F08521DBD74D168A8EE8F72457454B","0199d600-d5e0-7ed8-b64e-bf4fbaa735d0","0199d5ef-c7d4-7cab-a194-b2c3afbaf8e8","","null","<div style=""display: flex; justify-content: center; align-items: center;"">
                     <img src=""images/causal/causal_series_3/causal_series_3_d.png"" style=""width: 300px; height: 300px;"" />
                   </div>","null","3","1","D","",""
"","","","","","html-keyboard-response","60","377829","0.0-49.0-0.0-1.0","B6F08521DBD74D168A8EE8F72457454B","0199d600-d5e0-7ed8-b64e-bf4fbaa735d0","0199d5ef-c7d4-7cab-a194-b2c3afbaf8e8","","null","<div style=""display: flex; justify-content: center; align-items: center;"">
                     <img src=""images/causal/causal_series_3/causal_series_3_e.png"" style=""width: 300px; height: 300px;"" />
                   </div>","null","3","1","E","",""
"","","","","","html-keyboard-response","61","383830","0.0-49.0-0.0-2.0","B6F08521DBD74D168A8EE8F72457454B","0199d600-d5e0-7ed8-b64e-bf4fbaa735d0","0199d5ef-c7d4-7cab-a194-b2c3afbaf8e8","","null","<div style=""display: flex; justify-content: center; align-items: center;"">
                     <img src=""images/causal/causal_series_3/causal_series_3_f.png"" style=""width: 300px; height: 300px;"" />
                   </div>","null","3","1","F","",""
"","","","","","survey-likert","62","388227","0.0-50.0","B6F08521DBD74D168A8EE8F72457454B","0199d600-d5e0-7ed8-b64e-bf4fbaa735d0","0199d5ef-c7d4-7cab-a194-b2c3afbaf8e8","","4394","","{""Q0"":3}","3","1","surprise_rating","","[0]"
"","","","","","survey-likert","63","391275","0.0-51.0","B6F08521DBD74D168A8EE8F72457454B","0199d600-d5e0-7ed8-b64e-bf4fbaa735d0","0199d5ef-c7d4-7cab-a194-b2c3afbaf8e8","","3044","","{""Q0"":2}","3","1","enjoyment_rating","","[0]"
"","","","","","html-keyboard-response","64","397278","0.0-52.0","B6F08521DBD74D168A8EE8F72457454B","0199d600-d5e0-7ed8-b64e-bf4fbaa735d0","0199d5ef-c7d4-7cab-a194-b2c3afbaf8e8","","null","<div style=""display: flex; justify-content: center; align-items: center;"">
                     <img src=""images/other/blank.png"" style=""width: 300px; height: 300px;"" />
                   </div>","null","0","0","blank","",""
"","","","","","html-keyboard-response","65","403280","0.0-53.0","B6F08521DBD74D168A8EE8F72457454B","0199d600-d5e0-7ed8-b64e-bf4fbaa735d0","0199d5ef-c7d4-7cab-a194-b2c3afbaf8e8","","null","<div style=""display: flex; justify-content: center; align-items: center;"">
                     <img src=""images/causal/causal_series_9/causal_series_9_a.png"" style=""width: 300px; height: 300px;"" />
                   </div>","null","9","1","A","",""
"","","","","","html-keyboard-response","66","409281","0.0-54.0","B6F08521DBD74D168A8EE8F72457454B","0199d600-d5e0-7ed8-b64e-bf4fbaa735d0","0199d5ef-c7d4-7cab-a194-b2c3afbaf8e8","","null","<div style=""display: flex; justify-content: center; align-items: center;"">
                     <img src=""images/causal/causal_series_9/causal_series_9_b.png"" style=""width: 300px; height: 300px;"" />
                   </div>","null","9","1","B","",""
"","","","","","html-keyboard-response","67","415282","0.0-55.0","B6F08521DBD74D168A8EE8F72457454B","0199d600-d5e0-7ed8-b64e-bf4fbaa735d0","0199d5ef-c7d4-7cab-a194-b2c3afbaf8e8","","null","<div style=""display: flex; justify-content: center; align-items: center;"">
                     <img src=""images/causal/causal_series_9/causal_series_9_c.png"" style=""width: 300px; height: 300px;"" />
                   </div>","null","9","1","C","",""
"","","","","","html-button-response","68","418018","0.0-56.0","B6F08521DBD74D168A8EE8F72457454B","0199d600-d5e0-7ed8-b64e-bf4fbaa735d0","0199d5ef-c7d4-7cab-a194-b2c3afbaf8e8","","2734","
        <div style=""display: flex; justify-content: center; align-items: center;"">
          <img src=""images/red_deck_2.png"" style=""width: 300px; height: 300px; margin-right: 10px;"" />
          <img src=""images/blue_deck_1.png"" style=""width: 300px; height: 300px;"" />
        </div>","1","9","1","choice","1",""
"","","","","","html-keyboard-response","69","424020","0.0-57.0-1.0-0.0","B6F08521DBD74D168A8EE8F72457454B","0199d600-d5e0-7ed8-b64e-bf4fbaa735d0","0199d5ef-c7d4-7cab-a194-b2c3afbaf8e8","","null","<div style=""display: flex; justify-content: center; align-items: center;"">
                     <img src=""images/semantic/semantic_series_9/semantic_series_9_d.png"" style=""width: 300px; height: 300px;"" />
                   </div>","null","9","1","D","",""
"","","","","","html-keyboard-response","70","430022","0.0-57.0-1.0-1.0","B6F08521DBD74D168A8EE8F72457454B","0199d600-d5e0-7ed8-b64e-bf4fbaa735d0","0199d5ef-c7d4-7cab-a194-b2c3afbaf8e8","","null","<div style=""display: flex; justify-content: center; align-items: center;"">
                     <img src=""images/semantic/semantic_series_9/semantic_series_9_e.png"" style=""width: 300px; height: 300px;"" />
                   </div>","null","9","1","E","",""
"","","","","","html-keyboard-response","71","436023","0.0-57.0-1.0-2.0","B6F08521DBD74D168A8EE8F72457454B","0199d600-d5e0-7ed8-b64e-bf4fbaa735d0","0199d5ef-c7d4-7cab-a194-b2c3afbaf8e8","","null","<div style=""display: flex; justify-content: center; align-items: center;"">
                     <img src=""images/semantic/semantic_series_9/semantic_series_9_f.png"" style=""width: 300px; height: 300px;"" />
                   </div>","null","9","1","F","",""
"","","","","","survey-likert","72","440114","0.0-58.0","B6F08521DBD74D168A8EE8F72457454B","0199d600-d5e0-7ed8-b64e-bf4fbaa735d0","0199d5ef-c7d4-7cab-a194-b2c3afbaf8e8","","4090","","{""Q0"":2}","9","1","surprise_rating","","[0]"
"","","","","","survey-likert","73","442970","0.0-59.0","B6F08521DBD74D168A8EE8F72457454B","0199d600-d5e0-7ed8-b64e-bf4fbaa735d0","0199d5ef-c7d4-7cab-a194-b2c3afbaf8e8","","2852","","{""Q0"":1}","9","1","enjoyment_rating","","[0]"
"","","","","","html-keyboard-response","74","448975","0.0-60.0","B6F08521DBD74D168A8EE8F72457454B","0199d600-d5e0-7ed8-b64e-bf4fbaa735d0","0199d5ef-c7d4-7cab-a194-b2c3afbaf8e8","","null","<div style=""display: flex; justify-content: center; align-items: center;"">
                     <img src=""images/other/blank.png"" style=""width: 300px; height: 300px;"" />
                   </div>","null","0","0","blank","",""
"","","","","","html-keyboard-response","75","454976","0.0-61.0","B6F08521DBD74D168A8EE8F72457454B","0199d600-d5e0-7ed8-b64e-bf4fbaa735d0","0199d5ef-c7d4-7cab-a194-b2c3afbaf8e8","","null","<div style=""display: flex; justify-content: center; align-items: center;"">
                     <img src=""images/causal/causal_series_4/causal_series_4_a.png"" style=""width: 300px; height: 300px;"" />
                   </div>","null","4","2","A","",""
"","","","","","html-keyboard-response","76","460977","0.0-62.0","B6F08521DBD74D168A8EE8F72457454B","0199d600-d5e0-7ed8-b64e-bf4fbaa735d0","0199d5ef-c7d4-7cab-a194-b2c3afbaf8e8","","null","<div style=""display: flex; justify-content: center; align-items: center;"">
                     <img src=""images/causal/causal_series_4/causal_series_4_b.png"" style=""width: 300px; height: 300px;"" />
                   </div>","null","4","2","B","",""
"","","","","","html-keyboard-response","77","466979","0.0-63.0","B6F08521DBD74D168A8EE8F72457454B","0199d600-d5e0-7ed8-b64e-bf4fbaa735d0","0199d5ef-c7d4-7cab-a194-b2c3afbaf8e8","","null","<div style=""display: flex; justify-content: center; align-items: center;"">
                     <img src=""images/causal/causal_series_4/causal_series_4_c.png"" style=""width: 300px; height: 300px;"" />
                   </div>","null","4","2","C","",""
"","","","","","html-button-response","78","469506","0.0-64.0","B6F08521DBD74D168A8EE8F72457454B","0199d600-d5e0-7ed8-b64e-bf4fbaa735d0","0199d5ef-c7d4-7cab-a194-b2c3afbaf8e8","","2525","
        <div style=""display: flex; justify-content: center; align-items: center;"">
          <img src=""images/red_deck_2.png"" style=""width: 300px; height: 300px; margin-right: 10px;"" />
          <img src=""images/blue_deck_1.png"" style=""width: 300px; height: 300px;"" />
        </div>","0","4","2","choice","0",""
"","","","","","html-keyboard-response","79","475507","0.0-65.0-0.0-0.0","B6F08521DBD74D168A8EE8F72457454B","0199d600-d5e0-7ed8-b64e-bf4fbaa735d0","0199d5ef-c7d4-7cab-a194-b2c3afbaf8e8","","null","<div style=""display: flex; justify-content: center; align-items: center;"">
                     <img src=""images/causal/causal_series_4/causal_series_4_d.png"" style=""width: 300px; height: 300px;"" />
                   </div>","null","4","2","D","",""
"","","","","","html-keyboard-response","80","481509","0.0-65.0-0.0-1.0","B6F08521DBD74D168A8EE8F72457454B","0199d600-d5e0-7ed8-b64e-bf4fbaa735d0","0199d5ef-c7d4-7cab-a194-b2c3afbaf8e8","","null","<div style=""display: flex; justify-content: center; align-items: center;"">
                     <img src=""images/causal/causal_series_4/causal_series_4_e.png"" style=""width: 300px; height: 300px;"" />
                   </div>","null","4","2","E","",""
"","","","","","html-keyboard-response","81","487510","0.0-65.0-0.0-2.0","B6F08521DBD74D168A8EE8F72457454B","0199d600-d5e0-7ed8-b64e-bf4fbaa735d0","0199d5ef-c7d4-7cab-a194-b2c3afbaf8e8","","null","<div style=""display: flex; justify-content: center; align-items: center;"">
                     <img src=""images/causal/causal_series_4/causal_series_4_f.png"" style=""width: 300px; height: 300px;"" />
                   </div>","null","4","2","F","",""
"","","","","","survey-likert","82","490114","0.0-66.0","B6F08521DBD74D168A8EE8F72457454B","0199d600-d5e0-7ed8-b64e-bf4fbaa735d0","0199d5ef-c7d4-7cab-a194-b2c3afbaf8e8","","2603","","{""Q0"":3}","4","2","surprise_rating","","[0]"
"","","","","","survey-likert","83","494546","0.0-67.0","B6F08521DBD74D168A8EE8F72457454B","0199d600-d5e0-7ed8-b64e-bf4fbaa735d0","0199d5ef-c7d4-7cab-a194-b2c3afbaf8e8","","4429","","{""Q0"":1}","4","2","enjoyment_rating","","[0]"
"","","","","","html-keyboard-response","84","500549","0.0-68.0","B6F08521DBD74D168A8EE8F72457454B","0199d600-d5e0-7ed8-b64e-bf4fbaa735d0","0199d5ef-c7d4-7cab-a194-b2c3afbaf8e8","","null","<div style=""display: flex; justify-content: center; align-items: center;"">
                     <img src=""images/other/blank.png"" style=""width: 300px; height: 300px;"" />
                   </div>","null","0","0","blank","",""
"","","","","","html-keyboard-response","85","506551","0.0-69.0","B6F08521DBD74D168A8EE8F72457454B","0199d600-d5e0-7ed8-b64e-bf4fbaa735d0","0199d5ef-c7d4-7cab-a194-b2c3afbaf8e8","","null","<div style=""display: flex; justify-content: center; align-items: center;"">
                     <img src=""images/causal/causal_series_7/causal_series_7_a.png"" style=""width: 300px; height: 300px;"" />
                   </div>","null","7","1","A","",""
"","","","","","html-keyboard-response","86","512552","0.0-70.0","B6F08521DBD74D168A8EE8F72457454B","0199d600-d5e0-7ed8-b64e-bf4fbaa735d0","0199d5ef-c7d4-7cab-a194-b2c3afbaf8e8","","null","<div style=""display: flex; justify-content: center; align-items: center;"">
                     <img src=""images/causal/causal_series_7/causal_series_7_b.png"" style=""width: 300px; height: 300px;"" />
                   </div>","null","7","1","B","",""
"","","","","","html-keyboard-response","87","518553","0.0-71.0","B6F08521DBD74D168A8EE8F72457454B","0199d600-d5e0-7ed8-b64e-bf4fbaa735d0","0199d5ef-c7d4-7cab-a194-b2c3afbaf8e8","","null","<div style=""display: flex; justify-content: center; align-items: center;"">
                     <img src=""images/causal/causal_series_7/causal_series_7_c.png"" style=""width: 300px; height: 300px;"" />
                   </div>","null","7","1","C","",""
"","","","","","html-button-response","88","520745","0.0-72.0","B6F08521DBD74D168A8EE8F72457454B","0199d600-d5e0-7ed8-b64e-bf4fbaa735d0","0199d5ef-c7d4-7cab-a194-b2c3afbaf8e8","","2191","
        <div style=""display: flex; justify-content: center; align-items: center;"">
          <img src=""images/red_deck_2.png"" style=""width: 300px; height: 300px; margin-right: 10px;"" />
          <img src=""images/blue_deck_1.png"" style=""width: 300px; height: 300px;"" />
        </div>","1","7","1","choice","1",""
"","","","","","html-keyboard-response","89","526747","0.0-73.0-1.0-0.0","B6F08521DBD74D168A8EE8F72457454B","0199d600-d5e0-7ed8-b64e-bf4fbaa735d0","0199d5ef-c7d4-7cab-a194-b2c3afbaf8e8","","null","<div style=""display: flex; justify-content: center; align-items: center;"">
                     <img src=""images/semantic/semantic_series_7/semantic_series_7_d.png"" style=""width: 300px; height: 300px;"" />
                   </div>","null","7","1","D","",""
"","","","","","html-keyboard-response","90","532748","0.0-73.0-1.0-1.0","B6F08521DBD74D168A8EE8F72457454B","0199d600-d5e0-7ed8-b64e-bf4fbaa735d0","0199d5ef-c7d4-7cab-a194-b2c3afbaf8e8","","null","<div style=""display: flex; justify-content: center; align-items: center;"">
                     <img src=""images/semantic/semantic_series_7/semantic_series_7_e.png"" style=""width: 300px; height: 300px;"" />
                   </div>","null","7","1","E","",""
"","","","","","html-keyboard-response","91","538749","0.0-73.0-1.0-2.0","B6F08521DBD74D168A8EE8F72457454B","0199d600-d5e0-7ed8-b64e-bf4fbaa735d0","0199d5ef-c7d4-7cab-a194-b2c3afbaf8e8","","null","<div style=""display: flex; justify-content: center; align-items: center;"">
                     <img src=""images/semantic/semantic_series_7/semantic_series_7_f.png"" style=""width: 300px; height: 300px;"" />
                   </div>","null","7","1","F","",""
"","","","","","survey-likert","92","542962","0.0-74.0","B6F08521DBD74D168A8EE8F72457454B","0199d600-d5e0-7ed8-b64e-bf4fbaa735d0","0199d5ef-c7d4-7cab-a194-b2c3afbaf8e8","","4211","","{""Q0"":3}","7","1","surprise_rating","","[0]"
"","","","","","survey-likert","93","545322","0.0-75.0","B6F08521DBD74D168A8EE8F72457454B","0199d600-d5e0-7ed8-b64e-bf4fbaa735d0","0199d5ef-c7d4-7cab-a194-b2c3afbaf8e8","","2358","","{""Q0"":1}","7","1","enjoyment_rating","","[0]"
"","","","","","html-keyboard-response","94","551325","0.0-76.0","B6F08521DBD74D168A8EE8F72457454B","0199d600-d5e0-7ed8-b64e-bf4fbaa735d0","0199d5ef-c7d4-7cab-a194-b2c3afbaf8e8","","null","<div style=""display: flex; justify-content: center; align-items: center;"">
                     <img src=""images/other/blank.png"" style=""width: 300px; height: 300px;"" />
                   </div>","null","0","0","blank","",""
"","","","","","html-keyboard-response","95","557326","0.0-77.0","B6F08521DBD74D168A8EE8F72457454B","0199d600-d5e0-7ed8-b64e-bf4fbaa735d0","0199d5ef-c7d4-7cab-a194-b2c3afbaf8e8","","null","<div style=""display: flex; justify-content: center; align-items: center;"">
                     <img src=""images/causal/causal_series_7/causal_series_7_a.png"" style=""width: 300px; height: 300px;"" />
                   </div>","null","7","2","A","",""
"","","","","","html-keyboard-response","96","563328","0.0-78.0","B6F08521DBD74D168A8EE8F72457454B","0199d600-d5e0-7ed8-b64e-bf4fbaa735d0","0199d5ef-c7d4-7cab-a194-b2c3afbaf8e8","","null","<div style=""display: flex; justify-content: center; align-items: center;"">
                     <img src=""images/causal/causal_series_7/causal_series_7_b.png"" style=""width: 300px; height: 300px;"" />
                   </div>","null","7","2","B","",""
"","","","","","html-keyboard-response","97","569329","0.0-79.0","B6F08521DBD74D168A8EE8F72457454B","0199d600-d5e0-7ed8-b64e-bf4fbaa735d0","0199d5ef-c7d4-7cab-a194-b2c3afbaf8e8","","null","<div style=""display: flex; justify-content: center; align-items: center;"">
                     <img src=""images/causal/causal_series_7/causal_series_7_c.png"" style=""width: 300px; height: 300px;"" />
                   </div>","null","7","2","C","",""
"","","","","","html-button-response","98","570457","0.0-80.0","B6F08521DBD74D168A8EE8F72457454B","0199d600-d5e0-7ed8-b64e-bf4fbaa735d0","0199d5ef-c7d4-7cab-a194-b2c3afbaf8e8","","1127","
        <div style=""display: flex; justify-content: center; align-items: center;"">
          <img src=""images/red_deck_2.png"" style=""width: 300px; height: 300px; margin-right: 10px;"" />
          <img src=""images/blue_deck_1.png"" style=""width: 300px; height: 300px;"" />
        </div>","0","7","2","choice","0",""
"","","","","","html-keyboard-response","99","576461","0.0-81.0-0.0-0.0","B6F08521DBD74D168A8EE8F72457454B","0199d600-d5e0-7ed8-b64e-bf4fbaa735d0","0199d5ef-c7d4-7cab-a194-b2c3afbaf8e8","","null","<div style=""display: flex; justify-content: center; align-items: center;"">
                     <img src=""images/causal/causal_series_7/causal_series_7_d.png"" style=""width: 300px; height: 300px;"" />
                   </div>","null","7","2","D","",""
"","","","","","html-keyboard-response","100","582462","0.0-81.0-0.0-1.0","B6F08521DBD74D168A8EE8F72457454B","0199d600-d5e0-7ed8-b64e-bf4fbaa735d0","0199d5ef-c7d4-7cab-a194-b2c3afbaf8e8","","null","<div style=""display: flex; justify-content: center; align-items: center;"">
                     <img src=""images/causal/causal_series_7/causal_series_7_e.png"" style=""width: 300px; height: 300px;"" />
                   </div>","null","7","2","E","",""
"","","","","","html-keyboard-response","101","588463","0.0-81.0-0.0-2.0","B6F08521DBD74D168A8EE8F72457454B","0199d600-d5e0-7ed8-b64e-bf4fbaa735d0","0199d5ef-c7d4-7cab-a194-b2c3afbaf8e8","","null","<div style=""display: flex; justify-content: center; align-items: center;"">
                     <img src=""images/causal/causal_series_7/causal_series_7_f.png"" style=""width: 300px; height: 300px;"" />
                   </div>","null","7","2","F","",""
"","","","","","survey-likert","102","592756","0.0-82.0","B6F08521DBD74D168A8EE8F72457454B","0199d600-d5e0-7ed8-b64e-bf4fbaa735d0","0199d5ef-c7d4-7cab-a194-b2c3afbaf8e8","","4290","","{""Q0"":2}","7","2","surprise_rating","","[0]"
"","","","","","survey-likert","103","595291","0.0-83.0","B6F08521DBD74D168A8EE8F72457454B","0199d600-d5e0-7ed8-b64e-bf4fbaa735d0","0199d5ef-c7d4-7cab-a194-b2c3afbaf8e8","","2532","","{""Q0"":2}","7","2","enjoyment_rating","","[0]"
"","","","","","html-keyboard-response","104","601294","0.0-84.0","B6F08521DBD74D168A8EE8F72457454B","0199d600-d5e0-7ed8-b64e-bf4fbaa735d0","0199d5ef-c7d4-7cab-a194-b2c3afbaf8e8","","null","<div style=""display: flex; justify-content: center; align-items: center;"">
                     <img src=""images/other/blank.png"" style=""width: 300px; height: 300px;"" />
                   </div>","null","0","0","blank","",""
"","","","","","html-keyboard-response","105","607295","0.0-85.0","B6F08521DBD74D168A8EE8F72457454B","0199d600-d5e0-7ed8-b64e-bf4fbaa735d0","0199d5ef-c7d4-7cab-a194-b2c3afbaf8e8","","null","<div style=""display: flex; justify-content: center; align-items: center;"">
                     <img src=""images/causal/causal_series_6/causal_series_6_a.png"" style=""width: 300px; height: 300px;"" />
                   </div>","null","6","1","A","",""
"","","","","","html-keyboard-response","106","613296","0.0-86.0","B6F08521DBD74D168A8EE8F72457454B","0199d600-d5e0-7ed8-b64e-bf4fbaa735d0","0199d5ef-c7d4-7cab-a194-b2c3afbaf8e8","","null","<div style=""display: flex; justify-content: center; align-items: center;"">
                     <img src=""images/causal/causal_series_6/causal_series_6_b.png"" style=""width: 300px; height: 300px;"" />
                   </div>","null","6","1","B","",""
"","","","","","html-keyboard-response","107","619298","0.0-87.0","B6F08521DBD74D168A8EE8F72457454B","0199d600-d5e0-7ed8-b64e-bf4fbaa735d0","0199d5ef-c7d4-7cab-a194-b2c3afbaf8e8","","null","<div style=""display: flex; justify-content: center; align-items: center;"">
                     <img src=""images/causal/causal_series_6/causal_series_6_c.png"" style=""width: 300px; height: 300px;"" />
                   </div>","null","6","1","C","",""
"","","","","","html-button-response","108","620161","0.0-88.0","B6F08521DBD74D168A8EE8F72457454B","0199d600-d5e0-7ed8-b64e-bf4fbaa735d0","0199d5ef-c7d4-7cab-a194-b2c3afbaf8e8","","862","
        <div style=""display: flex; justify-content: center; align-items: center;"">
          <img src=""images/red_deck_2.png"" style=""width: 300px; height: 300px; margin-right: 10px;"" />
          <img src=""images/blue_deck_1.png"" style=""width: 300px; height: 300px;"" />
        </div>","1","6","1","choice","1",""
"","","","","","html-keyboard-response","109","626163","0.0-89.0-1.0-0.0","B6F08521DBD74D168A8EE8F72457454B","0199d600-d5e0-7ed8-b64e-bf4fbaa735d0","0199d5ef-c7d4-7cab-a194-b2c3afbaf8e8","","null","<div style=""display: flex; justify-content: center; align-items: center;"">
                     <img src=""images/semantic/semantic_series_6/semantic_series_6_d.png"" style=""width: 300px; height: 300px;"" />
                   </div>","null","6","1","D","",""
"","","","","","html-keyboard-response","110","632165","0.0-89.0-1.0-1.0","B6F08521DBD74D168A8EE8F72457454B","0199d600-d5e0-7ed8-b64e-bf4fbaa735d0","0199d5ef-c7d4-7cab-a194-b2c3afbaf8e8","","null","<div style=""display: flex; justify-content: center; align-items: center;"">
                     <img src=""images/semantic/semantic_series_6/semantic_series_6_e.png"" style=""width: 300px; height: 300px;"" />
                   </div>","null","6","1","E","",""
"","","","","","html-keyboard-response","111","638166","0.0-89.0-1.0-2.0","B6F08521DBD74D168A8EE8F72457454B","0199d600-d5e0-7ed8-b64e-bf4fbaa735d0","0199d5ef-c7d4-7cab-a194-b2c3afbaf8e8","","null","<div style=""display: flex; justify-content: center; align-items: center;"">
                     <img src=""images/semantic/semantic_series_6/semantic_series_6_f.png"" style=""width: 300px; height: 300px;"" />
                   </div>","null","6","1","F","",""
"","","","","","survey-likert","112","642298","0.0-90.0","B6F08521DBD74D168A8EE8F72457454B","0199d600-d5e0-7ed8-b64e-bf4fbaa735d0","0199d5ef-c7d4-7cab-a194-b2c3afbaf8e8","","4131","","{""Q0"":0}","6","1","surprise_rating","","[0]"
"","","","","","survey-likert","113","644860","0.0-91.0","B6F08521DBD74D168A8EE8F72457454B","0199d600-d5e0-7ed8-b64e-bf4fbaa735d0","0199d5ef-c7d4-7cab-a194-b2c3afbaf8e8","","2557","","{""Q0"":1}","6","1","enjoyment_rating","","[0]"
"","","","","","html-keyboard-response","114","650862","0.0-92.0","B6F08521DBD74D168A8EE8F72457454B","0199d600-d5e0-7ed8-b64e-bf4fbaa735d0","0199d5ef-c7d4-7cab-a194-b2c3afbaf8e8","","null","<div style=""display: flex; justify-content: center; align-items: center;"">
                     <img src=""images/other/blank.png"" style=""width: 300px; height: 300px;"" />
                   </div>","null","0","0","blank","",""
"","","","","","html-keyboard-response","115","656863","0.0-93.0","B6F08521DBD74D168A8EE8F72457454B","0199d600-d5e0-7ed8-b64e-bf4fbaa735d0","0199d5ef-c7d4-7cab-a194-b2c3afbaf8e8","","null","<div style=""display: flex; justify-content: center; align-items: center;"">
                     <img src=""images/causal/causal_series_3/causal_series_3_a.png"" style=""width: 300px; height: 300px;"" />
                   </div>","null","3","2","A","",""
"","","","","","html-keyboard-response","116","662865","0.0-94.0","B6F08521DBD74D168A8EE8F72457454B","0199d600-d5e0-7ed8-b64e-bf4fbaa735d0","0199d5ef-c7d4-7cab-a194-b2c3afbaf8e8","","null","<div style=""display: flex; justify-content: center; align-items: center;"">
                     <img src=""images/causal/causal_series_3/causal_series_3_b.png"" style=""width: 300px; height: 300px;"" />
                   </div>","null","3","2","B","",""
"","","","","","html-keyboard-response","117","668866","0.0-95.0","B6F08521DBD74D168A8EE8F72457454B","0199d600-d5e0-7ed8-b64e-bf4fbaa735d0","0199d5ef-c7d4-7cab-a194-b2c3afbaf8e8","","null","<div style=""display: flex; justify-content: center; align-items: center;"">
                     <img src=""images/causal/causal_series_3/causal_series_3_c.png"" style=""width: 300px; height: 300px;"" />
                   </div>","null","3","2","C","",""
"","","","","","html-button-response","118","669961","0.0-96.0","B6F08521DBD74D168A8EE8F72457454B","0199d600-d5e0-7ed8-b64e-bf4fbaa735d0","0199d5ef-c7d4-7cab-a194-b2c3afbaf8e8","","1094","
        <div style=""display: flex; justify-content: center; align-items: center;"">
          <img src=""images/red_deck_2.png"" style=""width: 300px; height: 300px; margin-right: 10px;"" />
          <img src=""images/blue_deck_1.png"" style=""width: 300px; height: 300px;"" />
        </div>","1","3","2","choice","1",""
"","","","","","html-keyboard-response","119","675963","0.0-97.0-1.0-0.0","B6F08521DBD74D168A8EE8F72457454B","0199d600-d5e0-7ed8-b64e-bf4fbaa735d0","0199d5ef-c7d4-7cab-a194-b2c3afbaf8e8","","null","<div style=""display: flex; justify-content: center; align-items: center;"">
                     <img src=""images/semantic/semantic_series_3/semantic_series_3_d.png"" style=""width: 300px; height: 300px;"" />
                   </div>","null","3","2","D","",""
"","","","","","html-keyboard-response","120","681965","0.0-97.0-1.0-1.0","B6F08521DBD74D168A8EE8F72457454B","0199d600-d5e0-7ed8-b64e-bf4fbaa735d0","0199d5ef-c7d4-7cab-a194-b2c3afbaf8e8","","null","<div style=""display: flex; justify-content: center; align-items: center;"">
                     <img src=""images/semantic/semantic_series_3/semantic_series_3_e.png"" style=""width: 300px; height: 300px;"" />
                   </div>","null","3","2","E","",""
"","","","","","html-keyboard-response","121","687966","0.0-97.0-1.0-2.0","B6F08521DBD74D168A8EE8F72457454B","0199d600-d5e0-7ed8-b64e-bf4fbaa735d0","0199d5ef-c7d4-7cab-a194-b2c3afbaf8e8","","null","<div style=""display: flex; justify-content: center; align-items: center;"">
                     <img src=""images/semantic/semantic_series_3/semantic_series_3_f.png"" style=""width: 300px; height: 300px;"" />
                   </div>","null","3","2","F","",""
"","","","","","survey-likert","122","690578","0.0-98.0","B6F08521DBD74D168A8EE8F72457454B","0199d600-d5e0-7ed8-b64e-bf4fbaa735d0","0199d5ef-c7d4-7cab-a194-b2c3afbaf8e8","","2611","","{""Q0"":2}","3","2","surprise_rating","","[0]"
"","","","","","survey-likert","123","694003","0.0-99.0","B6F08521DBD74D168A8EE8F72457454B","0199d600-d5e0-7ed8-b64e-bf4fbaa735d0","0199d5ef-c7d4-7cab-a194-b2c3afbaf8e8","","3421","","{""Q0"":1}","3","2","enjoyment_rating","","[0]"
"","","","","","html-keyboard-response","124","700006","0.0-100.0","B6F08521DBD74D168A8EE8F72457454B","0199d600-d5e0-7ed8-b64e-bf4fbaa735d0","0199d5ef-c7d4-7cab-a194-b2c3afbaf8e8","","null","<div style=""display: flex; justify-content: center; align-items: center;"">
                     <img src=""images/other/blank.png"" style=""width: 300px; height: 300px;"" />
                   </div>","null","0","0","blank","",""
"","","","","","html-keyboard-response","125","706007","0.0-101.0","B6F08521DBD74D168A8EE8F72457454B","0199d600-d5e0-7ed8-b64e-bf4fbaa735d0","0199d5ef-c7d4-7cab-a194-b2c3afbaf8e8","","null","<div style=""display: flex; justify-content: center; align-items: center;"">
                     <img src=""images/causal/causal_series_6/causal_series_6_a.png"" style=""width: 300px; height: 300px;"" />
                   </div>","null","6","2","A","",""
"","","","","","html-keyboard-response","126","712009","0.0-102.0","B6F08521DBD74D168A8EE8F72457454B","0199d600-d5e0-7ed8-b64e-bf4fbaa735d0","0199d5ef-c7d4-7cab-a194-b2c3afbaf8e8","","null","<div style=""display: flex; justify-content: center; align-items: center;"">
                     <img src=""images/causal/causal_series_6/causal_series_6_b.png"" style=""width: 300px; height: 300px;"" />
                   </div>","null","6","2","B","",""
"","","","","","html-keyboard-response","127","718010","0.0-103.0","B6F08521DBD74D168A8EE8F72457454B","0199d600-d5e0-7ed8-b64e-bf4fbaa735d0","0199d5ef-c7d4-7cab-a194-b2c3afbaf8e8","","null","<div style=""display: flex; justify-content: center; align-items: center;"">
                     <img src=""images/causal/causal_series_6/causal_series_6_c.png"" style=""width: 300px; height: 300px;"" />
                   </div>","null","6","2","C","",""
"","","","","","html-button-response","128","721081","0.0-104.0","B6F08521DBD74D168A8EE8F72457454B","0199d600-d5e0-7ed8-b64e-bf4fbaa735d0","0199d5ef-c7d4-7cab-a194-b2c3afbaf8e8","","3069","
        <div style=""display: flex; justify-content: center; align-items: center;"">
          <img src=""images/red_deck_2.png"" style=""width: 300px; height: 300px; margin-right: 10px;"" />
          <img src=""images/blue_deck_1.png"" style=""width: 300px; height: 300px;"" />
        </div>","0","6","2","choice","0",""
"","","","","","html-keyboard-response","129","727083","0.0-105.0-0.0-0.0","B6F08521DBD74D168A8EE8F72457454B","0199d600-d5e0-7ed8-b64e-bf4fbaa735d0","0199d5ef-c7d4-7cab-a194-b2c3afbaf8e8","","null","<div style=""display: flex; justify-content: center; align-items: center;"">
                     <img src=""images/causal/causal_series_6/causal_series_6_d.png"" style=""width: 300px; height: 300px;"" />
                   </div>","null","6","2","D","",""
"","","","","","html-keyboard-response","130","733084","0.0-105.0-0.0-1.0","B6F08521DBD74D168A8EE8F72457454B","0199d600-d5e0-7ed8-b64e-bf4fbaa735d0","0199d5ef-c7d4-7cab-a194-b2c3afbaf8e8","","null","<div style=""display: flex; justify-content: center; align-items: center;"">
                     <img src=""images/causal/causal_series_6/causal_series_6_e.png"" style=""width: 300px; height: 300px;"" />
                   </div>","null","6","2","E","",""
"","","","","","html-keyboard-response","131","739086","0.0-105.0-0.0-2.0","B6F08521DBD74D168A8EE8F72457454B","0199d600-d5e0-7ed8-b64e-bf4fbaa735d0","0199d5ef-c7d4-7cab-a194-b2c3afbaf8e8","","null","<div style=""display: flex; justify-content: center; align-items: center;"">
                     <img src=""images/causal/causal_series_6/causal_series_6_f.png"" style=""width: 300px; height: 300px;"" />
                   </div>","null","6","2","F","",""
"","","","","","survey-likert","132","743476","0.0-106.0","B6F08521DBD74D168A8EE8F72457454B","0199d600-d5e0-7ed8-b64e-bf4fbaa735d0","0199d5ef-c7d4-7cab-a194-b2c3afbaf8e8","","4388","","{""Q0"":1}","6","2","surprise_rating","","[0]"
"","","","","","survey-likert","133","747467","0.0-107.0","B6F08521DBD74D168A8EE8F72457454B","0199d600-d5e0-7ed8-b64e-bf4fbaa735d0","0199d5ef-c7d4-7cab-a194-b2c3afbaf8e8","","3987","","{""Q0"":1}","6","2","enjoyment_rating","","[0]"
"","","","","","html-keyboard-response","134","753469","0.0-108.0","B6F08521DBD74D168A8EE8F72457454B","0199d600-d5e0-7ed8-b64e-bf4fbaa735d0","0199d5ef-c7d4-7cab-a194-b2c3afbaf8e8","","null","<div style=""display: flex; justify-content: center; align-items: center;"">
                     <img src=""images/other/blank.png"" style=""width: 300px; height: 300px;"" />
                   </div>","null","0","0","blank","",""
"","","","","","html-keyboard-response","135","759470","0.0-109.0","B6F08521DBD74D168A8EE8F72457454B","0199d600-d5e0-7ed8-b64e-bf4fbaa735d0","0199d5ef-c7d4-7cab-a194-b2c3afbaf8e8","","null","<div style=""display: flex; justify-content: center; align-items: center;"">
                     <img src=""images/causal/causal_series_1/causal_series_1_a.png"" style=""width: 300px; height: 300px;"" />
                   </div>","null","1","1","A","",""
"","","","","","html-keyboard-response","136","765471","0.0-110.0","B6F08521DBD74D168A8EE8F72457454B","0199d600-d5e0-7ed8-b64e-bf4fbaa735d0","0199d5ef-c7d4-7cab-a194-b2c3afbaf8e8","","null","<div style=""display: flex; justify-content: center; align-items: center;"">
                     <img src=""images/causal/causal_series_1/causal_series_1_b.png"" style=""width: 300px; height: 300px;"" />
                   </div>","null","1","1","B","",""
"","","","","","html-keyboard-response","137","771473","0.0-111.0","B6F08521DBD74D168A8EE8F72457454B","0199d600-d5e0-7ed8-b64e-bf4fbaa735d0","0199d5ef-c7d4-7cab-a194-b2c3afbaf8e8","","null","<div style=""display: flex; justify-content: center; align-items: center;"">
                     <img src=""images/causal/causal_series_1/causal_series_1_c.png"" style=""width: 300px; height: 300px;"" />
                   </div>","null","1","1","C","",""
"","","","","","html-button-response","138","773586","0.0-112.0","B6F08521DBD74D168A8EE8F72457454B","0199d600-d5e0-7ed8-b64e-bf4fbaa735d0","0199d5ef-c7d4-7cab-a194-b2c3afbaf8e8","","2111","
        <div style=""display: flex; justify-content: center; align-items: center;"">
          <img src=""images/red_deck_2.png"" style=""width: 300px; height: 300px; margin-right: 10px;"" />
          <img src=""images/blue_deck_1.png"" style=""width: 300px; height: 300px;"" />
        </div>","0","1","1","choice","0",""
"","","","","","html-keyboard-response","139","779587","0.0-113.0-0.0-0.0","B6F08521DBD74D168A8EE8F72457454B","0199d600-d5e0-7ed8-b64e-bf4fbaa735d0","0199d5ef-c7d4-7cab-a194-b2c3afbaf8e8","","null","<div style=""display: flex; justify-content: center; align-items: center;"">
                     <img src=""images/causal/causal_series_1/causal_series_1_d.png"" style=""width: 300px; height: 300px;"" />
                   </div>","null","1","1","D","",""
"","","","","","html-keyboard-response","140","785588","0.0-113.0-0.0-1.0","B6F08521DBD74D168A8EE8F72457454B","0199d600-d5e0-7ed8-b64e-bf4fbaa735d0","0199d5ef-c7d4-7cab-a194-b2c3afbaf8e8","","null","<div style=""display: flex; justify-content: center; align-items: center;"">
                     <img src=""images/causal/causal_series_1/causal_series_1_e.png"" style=""width: 300px; height: 300px;"" />
                   </div>","null","1","1","E","",""
"","","","","","html-keyboard-response","141","791589","0.0-113.0-0.0-2.0","B6F08521DBD74D168A8EE8F72457454B","0199d600-d5e0-7ed8-b64e-bf4fbaa735d0","0199d5ef-c7d4-7cab-a194-b2c3afbaf8e8","","null","<div style=""display: flex; justify-content: center; align-items: center;"">
                     <img src=""images/causal/causal_series_1/causal_series_1_f.png"" style=""width: 300px; height: 300px;"" />
                   </div>","null","1","1","F","",""
"","","","","","survey-likert","142","796139","0.0-114.0","B6F08521DBD74D168A8EE8F72457454B","0199d600-d5e0-7ed8-b64e-bf4fbaa735d0","0199d5ef-c7d4-7cab-a194-b2c3afbaf8e8","","4547","","{""Q0"":1}","1","1","surprise_rating","","[0]"
"","","","","","survey-likert","143","797693","0.0-115.0","B6F08521DBD74D168A8EE8F72457454B","0199d600-d5e0-7ed8-b64e-bf4fbaa735d0","0199d5ef-c7d4-7cab-a194-b2c3afbaf8e8","","1548","","{""Q0"":2}","1","1","enjoyment_rating","","[0]"
"","","","","","html-keyboard-response","144","803695","0.0-116.0","B6F08521DBD74D168A8EE8F72457454B","0199d600-d5e0-7ed8-b64e-bf4fbaa735d0","0199d5ef-c7d4-7cab-a194-b2c3afbaf8e8","","null","<div style=""display: flex; justify-content: center; align-items: center;"">
                     <img src=""images/other/blank.png"" style=""width: 300px; height: 300px;"" />
                   </div>","null","0","0","blank","",""
"","","","","","html-keyboard-response","145","809697","0.0-117.0","B6F08521DBD74D168A8EE8F72457454B","0199d600-d5e0-7ed8-b64e-bf4fbaa735d0","0199d5ef-c7d4-7cab-a194-b2c3afbaf8e8","","null","<div style=""display: flex; justify-content: center; align-items: center;"">
                     <img src=""images/causal/causal_series_8/causal_series_8_a.png"" style=""width: 300px; height: 300px;"" />
                   </div>","null","8","1","A","",""
"","","","","","html-keyboard-response","146","815698","0.0-118.0","B6F08521DBD74D168A8EE8F72457454B","0199d600-d5e0-7ed8-b64e-bf4fbaa735d0","0199d5ef-c7d4-7cab-a194-b2c3afbaf8e8","","null","<div style=""display: flex; justify-content: center; align-items: center;"">
                     <img src=""images/causal/causal_series_8/causal_series_8_b.png"" style=""width: 300px; height: 300px;"" />
                   </div>","null","8","1","B","",""
"","","","","","html-keyboard-response","147","821699","0.0-119.0","B6F08521DBD74D168A8EE8F72457454B","0199d600-d5e0-7ed8-b64e-bf4fbaa735d0","0199d5ef-c7d4-7cab-a194-b2c3afbaf8e8","","null","<div style=""display: flex; justify-content: center; align-items: center;"">
                     <img src=""images/causal/causal_series_8/causal_series_8_c.png"" style=""width: 300px; height: 300px;"" />
                   </div>","null","8","1","C","",""
"","","","","","html-button-response","148","823786","0.0-120.0","B6F08521DBD74D168A8EE8F72457454B","0199d600-d5e0-7ed8-b64e-bf4fbaa735d0","0199d5ef-c7d4-7cab-a194-b2c3afbaf8e8","","2085","
        <div style=""display: flex; justify-content: center; align-items: center;"">
          <img src=""images/red_deck_2.png"" style=""width: 300px; height: 300px; margin-right: 10px;"" />
          <img src=""images/blue_deck_1.png"" style=""width: 300px; height: 300px;"" />
        </div>","1","8","1","choice","1",""
"","","","","","html-keyboard-response","149","829787","0.0-121.0-1.0-0.0","B6F08521DBD74D168A8EE8F72457454B","0199d600-d5e0-7ed8-b64e-bf4fbaa735d0","0199d5ef-c7d4-7cab-a194-b2c3afbaf8e8","","null","<div style=""display: flex; justify-content: center; align-items: center;"">
                     <img src=""images/semantic/semantic_series_8/semantic_series_8_d.png"" style=""width: 300px; height: 300px;"" />
                   </div>","null","8","1","D","",""
"","","","","","html-keyboard-response","150","835789","0.0-121.0-1.0-1.0","B6F08521DBD74D168A8EE8F72457454B","0199d600-d5e0-7ed8-b64e-bf4fbaa735d0","0199d5ef-c7d4-7cab-a194-b2c3afbaf8e8","","null","<div style=""display: flex; justify-content: center; align-items: center;"">
                     <img src=""images/semantic/semantic_series_8/semantic_series_8_e.png"" style=""width: 300px; height: 300px;"" />
                   </div>","null","8","1","E","",""
"","","","","","html-keyboard-response","151","841790","0.0-121.0-1.0-2.0","B6F08521DBD74D168A8EE8F72457454B","0199d600-d5e0-7ed8-b64e-bf4fbaa735d0","0199d5ef-c7d4-7cab-a194-b2c3afbaf8e8","","null","<div style=""display: flex; justify-content: center; align-items: center;"">
                     <img src=""images/semantic/semantic_series_8/semantic_series_8_f.png"" style=""width: 300px; height: 300px;"" />
                   </div>","null","8","1","F","",""
"","","","","","survey-likert","152","845027","0.0-122.0","B6F08521DBD74D168A8EE8F72457454B","0199d600-d5e0-7ed8-b64e-bf4fbaa735d0","0199d5ef-c7d4-7cab-a194-b2c3afbaf8e8","","3235","","{""Q0"":3}","8","1","surprise_rating","","[0]"
"","","","","","survey-likert","153","846930","0.0-123.0","B6F08521DBD74D168A8EE8F72457454B","0199d600-d5e0-7ed8-b64e-bf4fbaa735d0","0199d5ef-c7d4-7cab-a194-b2c3afbaf8e8","","1900","","{""Q0"":2}","8","1","enjoyment_rating","","[0]"
"","","","","","html-keyboard-response","154","852934","0.0-124.0","B6F08521DBD74D168A8EE8F72457454B","0199d600-d5e0-7ed8-b64e-bf4fbaa735d0","0199d5ef-c7d4-7cab-a194-b2c3afbaf8e8","","null","<div style=""display: flex; justify-content: center; align-items: center;"">
                     <img src=""images/other/blank.png"" style=""width: 300px; height: 300px;"" />
                   </div>","null","0","0","blank","",""
"","","","","","html-keyboard-response","155","858935","0.0-125.0","B6F08521DBD74D168A8EE8F72457454B","0199d600-d5e0-7ed8-b64e-bf4fbaa735d0","0199d5ef-c7d4-7cab-a194-b2c3afbaf8e8","","null","<div style=""display: flex; justify-content: center; align-items: center;"">
                     <img src=""images/causal/causal_series_5/causal_series_5_a.png"" style=""width: 300px; height: 300px;"" />
                   </div>","null","5","1","A","",""
"","","","","","html-keyboard-response","156","864936","0.0-126.0","B6F08521DBD74D168A8EE8F72457454B","0199d600-d5e0-7ed8-b64e-bf4fbaa735d0","0199d5ef-c7d4-7cab-a194-b2c3afbaf8e8","","null","<div style=""display: flex; justify-content: center; align-items: center;"">
                     <img src=""images/causal/causal_series_5/causal_series_5_b.png"" style=""width: 300px; height: 300px;"" />
                   </div>","null","5","1","B","",""
"","","","","","html-keyboard-response","157","870938","0.0-127.0","B6F08521DBD74D168A8EE8F72457454B","0199d600-d5e0-7ed8-b64e-bf4fbaa735d0","0199d5ef-c7d4-7cab-a194-b2c3afbaf8e8","","null","<div style=""display: flex; justify-content: center; align-items: center;"">
                     <img src=""images/causal/causal_series_5/causal_series_5_c.png"" style=""width: 300px; height: 300px;"" />
                   </div>","null","5","1","C","",""
"","","","","","html-button-response","158","872849","0.0-128.0","B6F08521DBD74D168A8EE8F72457454B","0199d600-d5e0-7ed8-b64e-bf4fbaa735d0","0199d5ef-c7d4-7cab-a194-b2c3afbaf8e8","","1910","
        <div style=""display: flex; justify-content: center; align-items: center;"">
          <img src=""images/red_deck_2.png"" style=""width: 300px; height: 300px; margin-right: 10px;"" />
          <img src=""images/blue_deck_1.png"" style=""width: 300px; height: 300px;"" />
        </div>","1","5","1","choice","1",""
"","","","","","html-keyboard-response","159","878851","0.0-129.0-1.0-0.0","B6F08521DBD74D168A8EE8F72457454B","0199d600-d5e0-7ed8-b64e-bf4fbaa735d0","0199d5ef-c7d4-7cab-a194-b2c3afbaf8e8","","null","<div style=""display: flex; justify-content: center; align-items: center;"">
                     <img src=""images/semantic/semantic_series_5/semantic_series_5_d.png"" style=""width: 300px; height: 300px;"" />
                   </div>","null","5","1","D","",""
"","","","","","html-keyboard-response","160","884852","0.0-129.0-1.0-1.0","B6F08521DBD74D168A8EE8F72457454B","0199d600-d5e0-7ed8-b64e-bf4fbaa735d0","0199d5ef-c7d4-7cab-a194-b2c3afbaf8e8","","null","<div style=""display: flex; justify-content: center; align-items: center;"">
                     <img src=""images/semantic/semantic_series_5/semantic_series_5_e.png"" style=""width: 300px; height: 300px;"" />
                   </div>","null","5","1","E","",""
"","","","","","html-keyboard-response","161","890854","0.0-129.0-1.0-2.0","B6F08521DBD74D168A8EE8F72457454B","0199d600-d5e0-7ed8-b64e-bf4fbaa735d0","0199d5ef-c7d4-7cab-a194-b2c3afbaf8e8","","null","<div style=""display: flex; justify-content: center; align-items: center;"">
                     <img src=""images/semantic/semantic_series_5/semantic_series_5_f.png"" style=""width: 300px; height: 300px;"" />
                   </div>","null","5","1","F","",""
"","","","","","survey-likert","162","897707","0.0-130.0","B6F08521DBD74D168A8EE8F72457454B","0199d600-d5e0-7ed8-b64e-bf4fbaa735d0","0199d5ef-c7d4-7cab-a194-b2c3afbaf8e8","","6851","","{""Q0"":0}","5","1","surprise_rating","","[0]"
"","","","","","survey-likert","163","899892","0.0-131.0","B6F08521DBD74D168A8EE8F72457454B","0199d600-d5e0-7ed8-b64e-bf4fbaa735d0","0199d5ef-c7d4-7cab-a194-b2c3afbaf8e8","","2181","","{""Q0"":1}","5","1","enjoyment_rating","","[0]"
"","","","","","html-keyboard-response","164","905895","0.0-132.0","B6F08521DBD74D168A8EE8F72457454B","0199d600-d5e0-7ed8-b64e-bf4fbaa735d0","0199d5ef-c7d4-7cab-a194-b2c3afbaf8e8","","null","<div style=""display: flex; justify-content: center; align-items: center;"">
                     <img src=""images/other/blank.png"" style=""width: 300px; height: 300px;"" />
                   </div>","null","0","0","blank","",""
"","","","","","html-keyboard-response","165","911896","0.0-133.0","B6F08521DBD74D168A8EE8F72457454B","0199d600-d5e0-7ed8-b64e-bf4fbaa735d0","0199d5ef-c7d4-7cab-a194-b2c3afbaf8e8","","null","<div style=""display: flex; justify-content: center; align-items: center;"">
                     <img src=""images/causal/causal_series_10/causal_series_10_a.png"" style=""width: 300px; height: 300px;"" />
                   </div>","null","10","2","A","",""
"","","","","","html-keyboard-response","166","917897","0.0-134.0","B6F08521DBD74D168A8EE8F72457454B","0199d600-d5e0-7ed8-b64e-bf4fbaa735d0","0199d5ef-c7d4-7cab-a194-b2c3afbaf8e8","","null","<div style=""display: flex; justify-content: center; align-items: center;"">
                     <img src=""images/causal/causal_series_10/causal_series_10_b.png"" style=""width: 300px; height: 300px;"" />
                   </div>","null","10","2","B","",""
"","","","","","html-keyboard-response","167","923898","0.0-135.0","B6F08521DBD74D168A8EE8F72457454B","0199d600-d5e0-7ed8-b64e-bf4fbaa735d0","0199d5ef-c7d4-7cab-a194-b2c3afbaf8e8","","null","<div style=""display: flex; justify-content: center; align-items: center;"">
                     <img src=""images/causal/causal_series_10/causal_series_10_c.png"" style=""width: 300px; height: 300px;"" />
                   </div>","null","10","2","C","",""
"","","","","","html-button-response","168","924874","0.0-136.0","B6F08521DBD74D168A8EE8F72457454B","0199d600-d5e0-7ed8-b64e-bf4fbaa735d0","0199d5ef-c7d4-7cab-a194-b2c3afbaf8e8","","974","
        <div style=""display: flex; justify-content: center; align-items: center;"">
          <img src=""images/red_deck_2.png"" style=""width: 300px; height: 300px; margin-right: 10px;"" />
          <img src=""images/blue_deck_1.png"" style=""width: 300px; height: 300px;"" />
        </div>","1","10","2","choice","1",""
"","","","","","html-keyboard-response","169","930875","0.0-137.0-1.0-0.0","B6F08521DBD74D168A8EE8F72457454B","0199d600-d5e0-7ed8-b64e-bf4fbaa735d0","0199d5ef-c7d4-7cab-a194-b2c3afbaf8e8","","null","<div style=""display: flex; justify-content: center; align-items: center;"">
                     <img src=""images/semantic/semantic_series_10/semantic_series_10_d.png"" style=""width: 300px; height: 300px;"" />
                   </div>","null","10","2","D","",""
"","","","","","html-keyboard-response","170","936876","0.0-137.0-1.0-1.0","B6F08521DBD74D168A8EE8F72457454B","0199d600-d5e0-7ed8-b64e-bf4fbaa735d0","0199d5ef-c7d4-7cab-a194-b2c3afbaf8e8","","null","<div style=""display: flex; justify-content: center; align-items: center;"">
                     <img src=""images/semantic/semantic_series_10/semantic_series_10_e.png"" style=""width: 300px; height: 300px;"" />
                   </div>","null","10","2","E","",""
"","","","","","html-keyboard-response","171","942877","0.0-137.0-1.0-2.0","B6F08521DBD74D168A8EE8F72457454B","0199d600-d5e0-7ed8-b64e-bf4fbaa735d0","0199d5ef-c7d4-7cab-a194-b2c3afbaf8e8","","null","<div style=""display: flex; justify-content: center; align-items: center;"">
                     <img src=""images/semantic/semantic_series_10/semantic_series_10_f.png"" style=""width: 300px; height: 300px;"" />
                   </div>","null","10","2","F","",""
"","","","","","survey-likert","172","944763","0.0-138.0","B6F08521DBD74D168A8EE8F72457454B","0199d600-d5e0-7ed8-b64e-bf4fbaa735d0","0199d5ef-c7d4-7cab-a194-b2c3afbaf8e8","","1883","","{""Q0"":3}","10","2","surprise_rating","","[0]"
"","","","","","survey-likert","173","947146","0.0-139.0","B6F08521DBD74D168A8EE8F72457454B","0199d600-d5e0-7ed8-b64e-bf4fbaa735d0","0199d5ef-c7d4-7cab-a194-b2c3afbaf8e8","","2381","","{""Q0"":2}","10","2","enjoyment_rating","","[0]"
"","","","","","html-keyboard-response","174","953149","0.0-140.0","B6F08521DBD74D168A8EE8F72457454B","0199d600-d5e0-7ed8-b64e-bf4fbaa735d0","0199d5ef-c7d4-7cab-a194-b2c3afbaf8e8","","null","<div style=""display: flex; justify-content: center; align-items: center;"">
                     <img src=""images/other/blank.png"" style=""width: 300px; height: 300px;"" />
                   </div>","null","0","0","blank","",""
"","","","","","html-keyboard-response","175","959150","0.0-141.0","B6F08521DBD74D168A8EE8F72457454B","0199d600-d5e0-7ed8-b64e-bf4fbaa735d0","0199d5ef-c7d4-7cab-a194-b2c3afbaf8e8","","null","<div style=""display: flex; justify-content: center; align-items: center;"">
                     <img src=""images/causal/causal_series_2/causal_series_2_a.png"" style=""width: 300px; height: 300px;"" />
                   </div>","null","2","1","A","",""
"","","","","","html-keyboard-response","176","965151","0.0-142.0","B6F08521DBD74D168A8EE8F72457454B","0199d600-d5e0-7ed8-b64e-bf4fbaa735d0","0199d5ef-c7d4-7cab-a194-b2c3afbaf8e8","","null","<div style=""display: flex; justify-content: center; align-items: center;"">
                     <img src=""images/causal/causal_series_2/causal_series_2_b.png"" style=""width: 300px; height: 300px;"" />
                   </div>","null","2","1","B","",""
"","","","","","html-keyboard-response","177","971152","0.0-143.0","B6F08521DBD74D168A8EE8F72457454B","0199d600-d5e0-7ed8-b64e-bf4fbaa735d0","0199d5ef-c7d4-7cab-a194-b2c3afbaf8e8","","null","<div style=""display: flex; justify-content: center; align-items: center;"">
                     <img src=""images/causal/causal_series_2/causal_series_2_c.png"" style=""width: 300px; height: 300px;"" />
                   </div>","null","2","1","C","",""
"","","","","","html-button-response","178","973281","0.0-144.0","B6F08521DBD74D168A8EE8F72457454B","0199d600-d5e0-7ed8-b64e-bf4fbaa735d0","0199d5ef-c7d4-7cab-a194-b2c3afbaf8e8","","2128","
        <div style=""display: flex; justify-content: center; align-items: center;"">
          <img src=""images/red_deck_2.png"" style=""width: 300px; height: 300px; margin-right: 10px;"" />
          <img src=""images/blue_deck_1.png"" style=""width: 300px; height: 300px;"" />
        </div>","1","2","1","choice","1",""
"","","","","","html-keyboard-response","179","979283","0.0-145.0-1.0-0.0","B6F08521DBD74D168A8EE8F72457454B","0199d600-d5e0-7ed8-b64e-bf4fbaa735d0","0199d5ef-c7d4-7cab-a194-b2c3afbaf8e8","","null","<div style=""display: flex; justify-content: center; align-items: center;"">
                     <img src=""images/semantic/semantic_series_2/semantic_series_2_d.png"" style=""width: 300px; height: 300px;"" />
                   </div>","null","2","1","D","",""
"","","","","","html-keyboard-response","180","985285","0.0-145.0-1.0-1.0","B6F08521DBD74D168A8EE8F72457454B","0199d600-d5e0-7ed8-b64e-bf4fbaa735d0","0199d5ef-c7d4-7cab-a194-b2c3afbaf8e8","","null","<div style=""display: flex; justify-content: center; align-items: center;"">
                     <img src=""images/semantic/semantic_series_2/semantic_series_2_e.png"" style=""width: 300px; height: 300px;"" />
                   </div>","null","2","1","E","",""
"","","","","","html-keyboard-response","181","991286","0.0-145.0-1.0-2.0","B6F08521DBD74D168A8EE8F72457454B","0199d600-d5e0-7ed8-b64e-bf4fbaa735d0","0199d5ef-c7d4-7cab-a194-b2c3afbaf8e8","","null","<div style=""display: flex; justify-content: center; align-items: center;"">
                     <img src=""images/semantic/semantic_series_2/semantic_series_2_f.png"" style=""width: 300px; height: 300px;"" />
                   </div>","null","2","1","F","",""
"","","","","","survey-likert","182","994811","0.0-146.0","B6F08521DBD74D168A8EE8F72457454B","0199d600-d5e0-7ed8-b64e-bf4fbaa735d0","0199d5ef-c7d4-7cab-a194-b2c3afbaf8e8","","3524","","{""Q0"":1}","2","1","surprise_rating","","[0]"
"","","","","","survey-likert","183","1013530","0.0-147.0","B6F08521DBD74D168A8EE8F72457454B","0199d600-d5e0-7ed8-b64e-bf4fbaa735d0","0199d5ef-c7d4-7cab-a194-b2c3afbaf8e8","","18716","","{""Q0"":1}","2","1","enjoyment_rating","","[0]"
"","","","","","html-keyboard-response","184","1019534","0.0-148.0","B6F08521DBD74D168A8EE8F72457454B","0199d600-d5e0-7ed8-b64e-bf4fbaa735d0","0199d5ef-c7d4-7cab-a194-b2c3afbaf8e8","","null","<div style=""display: flex; justify-content: center; align-items: center;"">
                     <img src=""images/other/blank.png"" style=""width: 300px; height: 300px;"" />
                   </div>","null","0","0","blank","",""
"","","","","","html-keyboard-response","185","1025535","0.0-149.0","B6F08521DBD74D168A8EE8F72457454B","0199d600-d5e0-7ed8-b64e-bf4fbaa735d0","0199d5ef-c7d4-7cab-a194-b2c3afbaf8e8","","null","<div style=""display: flex; justify-content: center; align-items: center;"">
                     <img src=""images/causal/causal_series_10/causal_series_10_a.png"" style=""width: 300px; height: 300px;"" />
                   </div>","null","10","1","A","",""
"","","","","","html-keyboard-response","186","1031537","0.0-150.0","B6F08521DBD74D168A8EE8F72457454B","0199d600-d5e0-7ed8-b64e-bf4fbaa735d0","0199d5ef-c7d4-7cab-a194-b2c3afbaf8e8","","null","<div style=""display: flex; justify-content: center; align-items: center;"">
                     <img src=""images/causal/causal_series_10/causal_series_10_b.png"" style=""width: 300px; height: 300px;"" />
                   </div>","null","10","1","B","",""
"","","","","","html-keyboard-response","187","1037538","0.0-151.0","B6F08521DBD74D168A8EE8F72457454B","0199d600-d5e0-7ed8-b64e-bf4fbaa735d0","0199d5ef-c7d4-7cab-a194-b2c3afbaf8e8","","null","<div style=""display: flex; justify-content: center; align-items: center;"">
                     <img src=""images/causal/causal_series_10/causal_series_10_c.png"" style=""width: 300px; height: 300px;"" />
                   </div>","null","10","1","C","",""
"","","","","","html-button-response","188","1038681","0.0-152.0","B6F08521DBD74D168A8EE8F72457454B","0199d600-d5e0-7ed8-b64e-bf4fbaa735d0","0199d5ef-c7d4-7cab-a194-b2c3afbaf8e8","","1142","
        <div style=""display: flex; justify-content: center; align-items: center;"">
          <img src=""images/red_deck_2.png"" style=""width: 300px; height: 300px; margin-right: 10px;"" />
          <img src=""images/blue_deck_1.png"" style=""width: 300px; height: 300px;"" />
        </div>","0","10","1","choice","0",""
"","","","","","html-keyboard-response","189","1044683","0.0-153.0-0.0-0.0","B6F08521DBD74D168A8EE8F72457454B","0199d600-d5e0-7ed8-b64e-bf4fbaa735d0","0199d5ef-c7d4-7cab-a194-b2c3afbaf8e8","","null","<div style=""display: flex; justify-content: center; align-items: center;"">
                     <img src=""images/causal/causal_series_10/causal_series_10_d.png"" style=""width: 300px; height: 300px;"" />
                   </div>","null","10","1","D","",""
"","","","","","html-keyboard-response","190","1050684","0.0-153.0-0.0-1.0","B6F08521DBD74D168A8EE8F72457454B","0199d600-d5e0-7ed8-b64e-bf4fbaa735d0","0199d5ef-c7d4-7cab-a194-b2c3afbaf8e8","","null","<div style=""display: flex; justify-content: center; align-items: center;"">
                     <img src=""images/causal/causal_series_10/causal_series_10_e.png"" style=""width: 300px; height: 300px;"" />
                   </div>","null","10","1","E","",""
"","","","","","html-keyboard-response","191","1056685","0.0-153.0-0.0-2.0","B6F08521DBD74D168A8EE8F72457454B","0199d600-d5e0-7ed8-b64e-bf4fbaa735d0","0199d5ef-c7d4-7cab-a194-b2c3afbaf8e8","","null","<div style=""display: flex; justify-content: center; align-items: center;"">
                     <img src=""images/causal/causal_series_10/causal_series_10_f.png"" style=""width: 300px; height: 300px;"" />
                   </div>","null","10","1","F","",""
"","","","","","survey-likert","192","1059122","0.0-154.0","B6F08521DBD74D168A8EE8F72457454B","0199d600-d5e0-7ed8-b64e-bf4fbaa735d0","0199d5ef-c7d4-7cab-a194-b2c3afbaf8e8","","2435","","{""Q0"":3}","10","1","surprise_rating","","[0]"
"","","","","","survey-likert","193","1061364","0.0-155.0","B6F08521DBD74D168A8EE8F72457454B","0199d600-d5e0-7ed8-b64e-bf4fbaa735d0","0199d5ef-c7d4-7cab-a194-b2c3afbaf8e8","","2238","","{""Q0"":3}","10","1","enjoyment_rating","","[0]"
"","","","","","html-keyboard-response","194","1067366","0.0-156.0","B6F08521DBD74D168A8EE8F72457454B","0199d600-d5e0-7ed8-b64e-bf4fbaa735d0","0199d5ef-c7d4-7cab-a194-b2c3afbaf8e8","","null","<div style=""display: flex; justify-content: center; align-items: center;"">
                     <img src=""images/other/blank.png"" style=""width: 300px; height: 300px;"" />
                   </div>","null","0","0","blank","",""
"","","","","","html-keyboard-response","195","1073368","0.0-157.0","B6F08521DBD74D168A8EE8F72457454B","0199d600-d5e0-7ed8-b64e-bf4fbaa735d0","0199d5ef-c7d4-7cab-a194-b2c3afbaf8e8","","null","<div style=""display: flex; justify-content: center; align-items: center;"">
                     <img src=""images/causal/causal_series_9/causal_series_9_a.png"" style=""width: 300px; height: 300px;"" />
                   </div>","null","9","2","A","",""
"","","","","","html-keyboard-response","196","1079369","0.0-158.0","B6F08521DBD74D168A8EE8F72457454B","0199d600-d5e0-7ed8-b64e-bf4fbaa735d0","0199d5ef-c7d4-7cab-a194-b2c3afbaf8e8","","null","<div style=""display: flex; justify-content: center; align-items: center;"">
                     <img src=""images/causal/causal_series_9/causal_series_9_b.png"" style=""width: 300px; height: 300px;"" />
                   </div>","null","9","2","B","",""
"","","","","","html-keyboard-response","197","1085370","0.0-159.0","B6F08521DBD74D168A8EE8F72457454B","0199d600-d5e0-7ed8-b64e-bf4fbaa735d0","0199d5ef-c7d4-7cab-a194-b2c3afbaf8e8","","null","<div style=""display: flex; justify-content: center; align-items: center;"">
                     <img src=""images/causal/causal_series_9/causal_series_9_c.png"" style=""width: 300px; height: 300px;"" />
                   </div>","null","9","2","C","",""
"","","","","","html-button-response","198","1088681","0.0-160.0","B6F08521DBD74D168A8EE8F72457454B","0199d600-d5e0-7ed8-b64e-bf4fbaa735d0","0199d5ef-c7d4-7cab-a194-b2c3afbaf8e8","","3310","
        <div style=""display: flex; justify-content: center; align-items: center;"">
          <img src=""images/red_deck_2.png"" style=""width: 300px; height: 300px; margin-right: 10px;"" />
          <img src=""images/blue_deck_1.png"" style=""width: 300px; height: 300px;"" />
        </div>","0","9","2","choice","0",""
"","","","","","html-keyboard-response","199","1094684","0.0-161.0-0.0-0.0","B6F08521DBD74D168A8EE8F72457454B","0199d600-d5e0-7ed8-b64e-bf4fbaa735d0","0199d5ef-c7d4-7cab-a194-b2c3afbaf8e8","","null","<div style=""display: flex; justify-content: center; align-items: center;"">
                     <img src=""images/causal/causal_series_9/causal_series_9_d.png"" style=""width: 300px; height: 300px;"" />
                   </div>","null","9","2","D","",""
"","","","","","html-keyboard-response","200","1100685","0.0-161.0-0.0-1.0","B6F08521DBD74D168A8EE8F72457454B","0199d600-d5e0-7ed8-b64e-bf4fbaa735d0","0199d5ef-c7d4-7cab-a194-b2c3afbaf8e8","","null","<div style=""display: flex; justify-content: center; align-items: center;"">
                     <img src=""images/causal/causal_series_9/causal_series_9_e.png"" style=""width: 300px; height: 300px;"" />
                   </div>","null","9","2","E","",""
"","","","","","html-keyboard-response","201","1106686","0.0-161.0-0.0-2.0","B6F08521DBD74D168A8EE8F72457454B","0199d600-d5e0-7ed8-b64e-bf4fbaa735d0","0199d5ef-c7d4-7cab-a194-b2c3afbaf8e8","","null","<div style=""display: flex; justify-content: center; align-items: center;"">
                     <img src=""images/causal/causal_series_9/causal_series_9_f.png"" style=""width: 300px; height: 300px;"" />
                   </div>","null","9","2","F","",""
"","","","","","survey-likert","202","1109978","0.0-162.0","B6F08521DBD74D168A8EE8F72457454B","0199d600-d5e0-7ed8-b64e-bf4fbaa735d0","0199d5ef-c7d4-7cab-a194-b2c3afbaf8e8","","3290","","{""Q0"":3}","9","2","surprise_rating","","[0]"
"","","","","","survey-likert","203","1111484","0.0-163.0","B6F08521DBD74D168A8EE8F72457454B","0199d600-d5e0-7ed8-b64e-bf4fbaa735d0","0199d5ef-c7d4-7cab-a194-b2c3afbaf8e8","","1502","","{""Q0"":1}","9","2","enjoyment_rating","","[0]"
"","","","","","html-keyboard-response","204","1117487","0.0-164.0","B6F08521DBD74D168A8EE8F72457454B","0199d600-d5e0-7ed8-b64e-bf4fbaa735d0","0199d5ef-c7d4-7cab-a194-b2c3afbaf8e8","","null","<div style=""display: flex; justify-content: center; align-items: center;"">
                     <img src=""images/other/blank.png"" style=""width: 300px; height: 300px;"" />
                   </div>","null","0","0","blank","",""
"","","","","","survey-text","205","1142476","0.0-165.0","B6F08521DBD74D168A8EE8F72457454B","0199d600-d5e0-7ed8-b64e-bf4fbaa735d0","0199d5ef-c7d4-7cab-a194-b2c3afbaf8e8","","24972","","{""Q0"":""The right one (red) seemed more obscure than the left one""}","","","","",""
"","","","","","html-button-response","206","1149401","0.0-166.0","B6F08521DBD74D168A8EE8F72457454B","0199d600-d5e0-7ed8-b64e-bf4fbaa735d0","0199d5ef-c7d4-7cab-a194-b2c3afbaf8e8","","6922","Which color deck do the following sentences continue the story from?","0","","","","",""
"","","","","","html-button-response","207","1152033","0.0-167.0","B6F08521DBD74D168A8EE8F72457454B","0199d600-d5e0-7ed8-b64e-bf4fbaa735d0","0199d5ef-c7d4-7cab-a194-b2c3afbaf8e8","","2630","Which color deck do the following sentences NOT follow the story from?","1","","","","",""
"","","","","","html-button-response","208","1157089","0.0-168.0","B6F08521DBD74D168A8EE8F72457454B","0199d600-d5e0-7ed8-b64e-bf4fbaa735d0","0199d5ef-c7d4-7cab-a194-b2c3afbaf8e8","","5054","Which type of deck did you prefer overall?","0","","","","",""
"","","","","","survey-text","209","1166810","0.0-169.0","B6F08521DBD74D168A8EE8F72457454B","0199d600-d5e0-7ed8-b64e-bf4fbaa735d0","0199d5ef-c7d4-7cab-a194-b2c3afbaf8e8","","9715","","{""Q0"":""MALE"",""Q1"":""19""}","","","","",""
"","","","","","instructions","210","1174161","0.0-170.0","B6F08521DBD74D168A8EE8F72457454B","0199d600-d5e0-7ed8-b64e-bf4fbaa735d0","0199d5ef-c7d4-7cab-a194-b2c3afbaf8e8","[{""page_index"":0,""viewing_time"":7350}]","7350","","","","","","",""
