"success","timeout","failed_images","failed_audio","failed_video","trial_type","trial_index","time_elapsed","internal_node_id","subject_id","study_id","session_id","view_history","rt","stimulus","response","choice"
"true","false","[]","[]","[]","preload","0","4366","0.0-0.0","3A831E97ACF9454CB6759C6B192B5DD6","94a60801-1d52-4b15-830d-f1b166c69927","1272127f-799a-421a-a013-ec2b24556620","","","","",""
"","","","","","instructions","1","7764","0.0-1.0","3A831E97ACF9454CB6759C6B192B5DD6","94a60801-1d52-4b15-830d-f1b166c69927","1272127f-799a-421a-a013-ec2b24556620","[{""page_index"":0,""viewing_time"":3398}]","3398","","",""
"","","","","","instructions","2","11109","0.0-2.0","3A831E97ACF9454CB6759C6B192B5DD6","94a60801-1d52-4b15-830d-f1b166c69927","1272127f-799a-421a-a013-ec2b24556620","[{""page_index"":0,""viewing_time"":3344}]","3344","","",""
"true","","","","","fullscreen","3","16778","0.0-3.0","3A831E97ACF9454CB6759C6B192B5DD6","94a60801-1d52-4b15-830d-f1b166c69927","1272127f-799a-421a-a013-ec2b24556620","","4669","","",""
"","","","","","instructions","4","34525","0.0-4.0","3A831E97ACF9454CB6759C6B192B5DD6","94a60801-1d52-4b15-830d-f1b166c69927","1272127f-799a-421a-a013-ec2b24556620","[{""page_index"":0,""viewing_time"":17747}]","17747","","",""
"","","","","","html-keyboard-response","5","37526","0.0-5.0","3A831E97ACF9454CB6759C6B192B5DD6","94a60801-1d52-4b15-830d-f1b166c69927","1272127f-799a-421a-a013-ec2b24556620","","null","<div style=""display: flex; justify-content: center; align-items: center;"">
                <img src=""images/causal/causal_series_10/causal_series_10_a.jpg"" style=""width: 300px; height: 300px;"" />
              </div>","null",""
"","","","","","html-keyboard-response","6","40529","0.0-6.0","3A831E97ACF9454CB6759C6B192B5DD6","94a60801-1d52-4b15-830d-f1b166c69927","1272127f-799a-421a-a013-ec2b24556620","","null","<div style=""display: flex; justify-content: center; align-items: center;"">
                <img src=""images/causal/causal_series_10/causal_series_10_b.jpg"" style=""width: 300px; height: 300px;"" />
              </div>","null",""
"","","","","","html-keyboard-response","7","43542","0.0-7.0","3A831E97ACF9454CB6759C6B192B5DD6","94a60801-1d52-4b15-830d-f1b166c69927","1272127f-799a-421a-a013-ec2b24556620","","null","<div style=""display: flex; justify-content: center; align-items: center;"">
                <img src=""images/causal/causal_series_10/causal_series_10_c.jpg"" style=""width: 300px; height: 300px;"" />
              </div>","null",""
"","","","","","html-button-response","8","48692","0.0-8.0","3A831E97ACF9454CB6759C6B192B5DD6","94a60801-1d52-4b15-830d-f1b166c69927","1272127f-799a-421a-a013-ec2b24556620","","5150","
    <div style=""display: flex; justify-content: center; align-items: center;"">
      <img src=""images/red_deck_2.png"" style=""width: 300px; height: 300px; margin-right: 10px;"" />
      <img src=""images/blue_deck_1.png"" style=""width: 300px; height: 300px;"" />
    </div>","0","0"
"","","","","","html-keyboard-response","9","51704","0.0-9.0-0.0-0.0","3A831E97ACF9454CB6759C6B192B5DD6","94a60801-1d52-4b15-830d-f1b166c69927","1272127f-799a-421a-a013-ec2b24556620","","null","<div style=""display: flex; justify-content: center; align-items: center;"">
                <img src=""images/causal/causal_series_10/causal_series_10_d.jpg"" style=""width: 300px; height: 300px;"" />
              </div>","null",""
"","","","","","html-keyboard-response","10","54718","0.0-10.0","3A831E97ACF9454CB6759C6B192B5DD6","94a60801-1d52-4b15-830d-f1b166c69927","1272127f-799a-421a-a013-ec2b24556620","","null","<div style=""display: flex; justify-content: center; align-items: center;"">
                <img src=""images/other/blank.jpg"" style=""width: 300px; height: 300px;"" />
              </div>","null",""
"","","","","","html-keyboard-response","11","57722","0.0-11.0","3A831E97ACF9454CB6759C6B192B5DD6","94a60801-1d52-4b15-830d-f1b166c69927","1272127f-799a-421a-a013-ec2b24556620","","null","<div style=""display: flex; justify-content: center; align-items: center;"">
                <img src=""images/causal/causal_series_5/causal_series_5_a.jpg"" style=""width: 300px; height: 300px;"" />
              </div>","null",""
"","","","","","html-keyboard-response","12","60735","0.0-12.0","3A831E97ACF9454CB6759C6B192B5DD6","94a60801-1d52-4b15-830d-f1b166c69927","1272127f-799a-421a-a013-ec2b24556620","","null","<div style=""display: flex; justify-content: center; align-items: center;"">
                <img src=""images/causal/causal_series_5/causal_series_5_b.jpg"" style=""width: 300px; height: 300px;"" />
              </div>","null",""
"","","","","","html-keyboard-response","13","63743","0.0-13.0","3A831E97ACF9454CB6759C6B192B5DD6","94a60801-1d52-4b15-830d-f1b166c69927","1272127f-799a-421a-a013-ec2b24556620","","null","<div style=""display: flex; justify-content: center; align-items: center;"">
                <img src=""images/causal/causal_series_5/causal_series_5_c.jpg"" style=""width: 300px; height: 300px;"" />
              </div>","null",""
"","","","","","html-button-response","14","65412","0.0-14.0","3A831E97ACF9454CB6759C6B192B5DD6","94a60801-1d52-4b15-830d-f1b166c69927","1272127f-799a-421a-a013-ec2b24556620","","1669","
    <div style=""display: flex; justify-content: center; align-items: center;"">
      <img src=""images/red_deck_2.png"" style=""width: 300px; height: 300px; margin-right: 10px;"" />
      <img src=""images/blue_deck_1.png"" style=""width: 300px; height: 300px;"" />
    </div>","1","1"
"","","","","","html-keyboard-response","15","68420","0.0-15.0-1.0-0.0","3A831E97ACF9454CB6759C6B192B5DD6","94a60801-1d52-4b15-830d-f1b166c69927","1272127f-799a-421a-a013-ec2b24556620","","null","<div style=""display: flex; justify-content: center; align-items: center;"">
                <img src=""images/semantic/semantic_series_4/semantic_series_4_d.jpg"" style=""width: 300px; height: 300px;"" />
              </div>","null",""
"","","","","","html-keyboard-response","16","71422","0.0-16.0","3A831E97ACF9454CB6759C6B192B5DD6","94a60801-1d52-4b15-830d-f1b166c69927","1272127f-799a-421a-a013-ec2b24556620","","null","<div style=""display: flex; justify-content: center; align-items: center;"">
                <img src=""images/other/blank.jpg"" style=""width: 300px; height: 300px;"" />
              </div>","null",""
"","","","","","html-keyboard-response","17","74426","0.0-17.0","3A831E97ACF9454CB6759C6B192B5DD6","94a60801-1d52-4b15-830d-f1b166c69927","1272127f-799a-421a-a013-ec2b24556620","","null","<div style=""display: flex; justify-content: center; align-items: center;"">
                <img src=""images/causal/causal_series_11/causal_series_11_a.jpg"" style=""width: 300px; height: 300px;"" />
              </div>","null",""
"","","","","","html-keyboard-response","18","77432","0.0-18.0","3A831E97ACF9454CB6759C6B192B5DD6","94a60801-1d52-4b15-830d-f1b166c69927","1272127f-799a-421a-a013-ec2b24556620","","null","<div style=""display: flex; justify-content: center; align-items: center;"">
                <img src=""images/causal/causal_series_11/causal_series_11_b.jpg"" style=""width: 300px; height: 300px;"" />
              </div>","null",""
"","","","","","html-keyboard-response","19","80446","0.0-19.0","3A831E97ACF9454CB6759C6B192B5DD6","94a60801-1d52-4b15-830d-f1b166c69927","1272127f-799a-421a-a013-ec2b24556620","","null","<div style=""display: flex; justify-content: center; align-items: center;"">
                <img src=""images/causal/causal_series_11/causal_series_11_c.jpg"" style=""width: 300px; height: 300px;"" />
              </div>","null",""
"","","","","","html-button-response","20","81510","0.0-20.0","3A831E97ACF9454CB6759C6B192B5DD6","94a60801-1d52-4b15-830d-f1b166c69927","1272127f-799a-421a-a013-ec2b24556620","","1063","
    <div style=""display: flex; justify-content: center; align-items: center;"">
      <img src=""images/red_deck_2.png"" style=""width: 300px; height: 300px; margin-right: 10px;"" />
      <img src=""images/blue_deck_1.png"" style=""width: 300px; height: 300px;"" />
    </div>","1","1"
"","","","","","html-keyboard-response","21","84516","0.0-21.0-1.0-0.0","3A831E97ACF9454CB6759C6B192B5DD6","94a60801-1d52-4b15-830d-f1b166c69927","1272127f-799a-421a-a013-ec2b24556620","","null","<div style=""display: flex; justify-content: center; align-items: center;"">
                <img src=""images/semantic/semantic_series_10/semantic_series_10_d.jpg"" style=""width: 300px; height: 300px;"" />
              </div>","null",""
"","","","","","html-keyboard-response","22","87524","0.0-22.0","3A831E97ACF9454CB6759C6B192B5DD6","94a60801-1d52-4b15-830d-f1b166c69927","1272127f-799a-421a-a013-ec2b24556620","","null","<div style=""display: flex; justify-content: center; align-items: center;"">
                <img src=""images/other/blank.jpg"" style=""width: 300px; height: 300px;"" />
              </div>","null",""
"","","","","","html-keyboard-response","23","90537","0.0-23.0","3A831E97ACF9454CB6759C6B192B5DD6","94a60801-1d52-4b15-830d-f1b166c69927","1272127f-799a-421a-a013-ec2b24556620","","null","<div style=""display: flex; justify-content: center; align-items: center;"">
                <img src=""images/causal/causal_series_4/causal_series_4_a.jpg"" style=""width: 300px; height: 300px;"" />
              </div>","null",""
"","","","","","html-keyboard-response","24","93546","0.0-24.0","3A831E97ACF9454CB6759C6B192B5DD6","94a60801-1d52-4b15-830d-f1b166c69927","1272127f-799a-421a-a013-ec2b24556620","","null","<div style=""display: flex; justify-content: center; align-items: center;"">
                <img src=""images/causal/causal_series_4/causal_series_4_b.jpg"" style=""width: 300px; height: 300px;"" />
              </div>","null",""
"","","","","","html-keyboard-response","25","96561","0.0-25.0","3A831E97ACF9454CB6759C6B192B5DD6","94a60801-1d52-4b15-830d-f1b166c69927","1272127f-799a-421a-a013-ec2b24556620","","null","<div style=""display: flex; justify-content: center; align-items: center;"">
                <img src=""images/causal/causal_series_4/causal_series_4_c.jpg"" style=""width: 300px; height: 300px;"" />
              </div>","null",""
"","","","","","html-button-response","26","97959","0.0-26.0","3A831E97ACF9454CB6759C6B192B5DD6","94a60801-1d52-4b15-830d-f1b166c69927","1272127f-799a-421a-a013-ec2b24556620","","1398","
    <div style=""display: flex; justify-content: center; align-items: center;"">
      <img src=""images/red_deck_2.png"" style=""width: 300px; height: 300px; margin-right: 10px;"" />
      <img src=""images/blue_deck_1.png"" style=""width: 300px; height: 300px;"" />
    </div>","0","0"
"","","","","","html-keyboard-response","27","100965","0.0-27.0-0.0-0.0","3A831E97ACF9454CB6759C6B192B5DD6","94a60801-1d52-4b15-830d-f1b166c69927","1272127f-799a-421a-a013-ec2b24556620","","null","<div style=""display: flex; justify-content: center; align-items: center;"">
                <img src=""images/causal/causal_series_4/causal_series_4_d.jpg"" style=""width: 300px; height: 300px;"" />
              </div>","null",""
"","","","","","html-keyboard-response","28","103976","0.0-28.0","3A831E97ACF9454CB6759C6B192B5DD6","94a60801-1d52-4b15-830d-f1b166c69927","1272127f-799a-421a-a013-ec2b24556620","","null","<div style=""display: flex; justify-content: center; align-items: center;"">
                <img src=""images/other/blank.jpg"" style=""width: 300px; height: 300px;"" />
              </div>","null",""
"","","","","","html-keyboard-response","29","106987","0.0-29.0","3A831E97ACF9454CB6759C6B192B5DD6","94a60801-1d52-4b15-830d-f1b166c69927","1272127f-799a-421a-a013-ec2b24556620","","null","<div style=""display: flex; justify-content: center; align-items: center;"">
                <img src=""images/causal/causal_series_6/causal_series_6_a.jpg"" style=""width: 300px; height: 300px;"" />
              </div>","null",""
"","","","","","html-keyboard-response","30","109998","0.0-30.0","3A831E97ACF9454CB6759C6B192B5DD6","94a60801-1d52-4b15-830d-f1b166c69927","1272127f-799a-421a-a013-ec2b24556620","","null","<div style=""display: flex; justify-content: center; align-items: center;"">
                <img src=""images/causal/causal_series_6/causal_series_6_b.jpg"" style=""width: 300px; height: 300px;"" />
              </div>","null",""
"","","","","","html-keyboard-response","31","113007","0.0-31.0","3A831E97ACF9454CB6759C6B192B5DD6","94a60801-1d52-4b15-830d-f1b166c69927","1272127f-799a-421a-a013-ec2b24556620","","null","<div style=""display: flex; justify-content: center; align-items: center;"">
                <img src=""images/causal/causal_series_6/causal_series_6_c.jpg"" style=""width: 300px; height: 300px;"" />
              </div>","null",""
"","","","","","html-button-response","32","113985","0.0-32.0","3A831E97ACF9454CB6759C6B192B5DD6","94a60801-1d52-4b15-830d-f1b166c69927","1272127f-799a-421a-a013-ec2b24556620","","977","
    <div style=""display: flex; justify-content: center; align-items: center;"">
      <img src=""images/red_deck_2.png"" style=""width: 300px; height: 300px; margin-right: 10px;"" />
      <img src=""images/blue_deck_1.png"" style=""width: 300px; height: 300px;"" />
    </div>","1","1"
"","","","","","html-keyboard-response","33","116999","0.0-33.0-1.0-0.0","3A831E97ACF9454CB6759C6B192B5DD6","94a60801-1d52-4b15-830d-f1b166c69927","1272127f-799a-421a-a013-ec2b24556620","","null","<div style=""display: flex; justify-content: center; align-items: center;"">
                <img src=""images/semantic/semantic_series_5/semantic_series_5_d.jpg"" style=""width: 300px; height: 300px;"" />
              </div>","null",""
"","","","","","html-keyboard-response","34","120013","0.0-34.0","3A831E97ACF9454CB6759C6B192B5DD6","94a60801-1d52-4b15-830d-f1b166c69927","1272127f-799a-421a-a013-ec2b24556620","","null","<div style=""display: flex; justify-content: center; align-items: center;"">
                <img src=""images/other/blank.jpg"" style=""width: 300px; height: 300px;"" />
              </div>","null",""
"","","","","","html-keyboard-response","35","123022","0.0-35.0","3A831E97ACF9454CB6759C6B192B5DD6","94a60801-1d52-4b15-830d-f1b166c69927","1272127f-799a-421a-a013-ec2b24556620","","null","<div style=""display: flex; justify-content: center; align-items: center;"">
                <img src=""images/causal/causal_series_3/causal_series_3_a.jpg"" style=""width: 300px; height: 300px;"" />
              </div>","null",""
"","","","","","html-keyboard-response","36","126033","0.0-36.0","3A831E97ACF9454CB6759C6B192B5DD6","94a60801-1d52-4b15-830d-f1b166c69927","1272127f-799a-421a-a013-ec2b24556620","","null","<div style=""display: flex; justify-content: center; align-items: center;"">
                <img src=""images/causal/causal_series_3/causal_series_3_b.jpg"" style=""width: 300px; height: 300px;"" />
              </div>","null",""
"","","","","","html-keyboard-response","37","129043","0.0-37.0","3A831E97ACF9454CB6759C6B192B5DD6","94a60801-1d52-4b15-830d-f1b166c69927","1272127f-799a-421a-a013-ec2b24556620","","null","<div style=""display: flex; justify-content: center; align-items: center;"">
                <img src=""images/causal/causal_series_3/causal_series_3_c.jpg"" style=""width: 300px; height: 300px;"" />
              </div>","null",""
"","","","","","html-button-response","38","129914","0.0-38.0","3A831E97ACF9454CB6759C6B192B5DD6","94a60801-1d52-4b15-830d-f1b166c69927","1272127f-799a-421a-a013-ec2b24556620","","870","
    <div style=""display: flex; justify-content: center; align-items: center;"">
      <img src=""images/red_deck_2.png"" style=""width: 300px; height: 300px; margin-right: 10px;"" />
      <img src=""images/blue_deck_1.png"" style=""width: 300px; height: 300px;"" />
    </div>","1","1"
"","","","","","html-keyboard-response","39","132926","0.0-39.0-1.0-0.0","3A831E97ACF9454CB6759C6B192B5DD6","94a60801-1d52-4b15-830d-f1b166c69927","1272127f-799a-421a-a013-ec2b24556620","","null","<div style=""display: flex; justify-content: center; align-items: center;"">
                <img src=""images/semantic/semantic_series_2/semantic_series_2_d.jpg"" style=""width: 300px; height: 300px;"" />
              </div>","null",""
"","","","","","html-keyboard-response","40","135938","0.0-40.0","3A831E97ACF9454CB6759C6B192B5DD6","94a60801-1d52-4b15-830d-f1b166c69927","1272127f-799a-421a-a013-ec2b24556620","","null","<div style=""display: flex; justify-content: center; align-items: center;"">
                <img src=""images/other/blank.jpg"" style=""width: 300px; height: 300px;"" />
              </div>","null",""
"","","","","","html-keyboard-response","41","138949","0.0-41.0","3A831E97ACF9454CB6759C6B192B5DD6","94a60801-1d52-4b15-830d-f1b166c69927","1272127f-799a-421a-a013-ec2b24556620","","null","<div style=""display: flex; justify-content: center; align-items: center;"">
                <img src=""images/causal/causal_series_8/causal_series_8_a.jpg"" style=""width: 300px; height: 300px;"" />
              </div>","null",""
"","","","","","html-keyboard-response","42","141958","0.0-42.0","3A831E97ACF9454CB6759C6B192B5DD6","94a60801-1d52-4b15-830d-f1b166c69927","1272127f-799a-421a-a013-ec2b24556620","","null","<div style=""display: flex; justify-content: center; align-items: center;"">
                <img src=""images/causal/causal_series_8/causal_series_8_b.jpg"" style=""width: 300px; height: 300px;"" />
              </div>","null",""
"","","","","","html-keyboard-response","43","144964","0.0-43.0","3A831E97ACF9454CB6759C6B192B5DD6","94a60801-1d52-4b15-830d-f1b166c69927","1272127f-799a-421a-a013-ec2b24556620","","null","<div style=""display: flex; justify-content: center; align-items: center;"">
                <img src=""images/causal/causal_series_8/causal_series_8_c.jpg"" style=""width: 300px; height: 300px;"" />
              </div>","null",""
"","","","","","html-button-response","44","145894","0.0-44.0","3A831E97ACF9454CB6759C6B192B5DD6","94a60801-1d52-4b15-830d-f1b166c69927","1272127f-799a-421a-a013-ec2b24556620","","930","
    <div style=""display: flex; justify-content: center; align-items: center;"">
      <img src=""images/red_deck_2.png"" style=""width: 300px; height: 300px; margin-right: 10px;"" />
      <img src=""images/blue_deck_1.png"" style=""width: 300px; height: 300px;"" />
    </div>","0","0"
"","","","","","html-keyboard-response","45","148903","0.0-45.0-0.0-0.0","3A831E97ACF9454CB6759C6B192B5DD6","94a60801-1d52-4b15-830d-f1b166c69927","1272127f-799a-421a-a013-ec2b24556620","","null","<div style=""display: flex; justify-content: center; align-items: center;"">
                <img src=""images/causal/causal_series_8/causal_series_8_d.jpg"" style=""width: 300px; height: 300px;"" />
              </div>","null",""
"","","","","","html-keyboard-response","46","151908","0.0-46.0","3A831E97ACF9454CB6759C6B192B5DD6","94a60801-1d52-4b15-830d-f1b166c69927","1272127f-799a-421a-a013-ec2b24556620","","null","<div style=""display: flex; justify-content: center; align-items: center;"">
                <img src=""images/other/blank.jpg"" style=""width: 300px; height: 300px;"" />
              </div>","null",""
"","","","","","html-keyboard-response","47","154923","0.0-47.0","3A831E97ACF9454CB6759C6B192B5DD6","94a60801-1d52-4b15-830d-f1b166c69927","1272127f-799a-421a-a013-ec2b24556620","","null","<div style=""display: flex; justify-content: center; align-items: center;"">
                <img src=""images/causal/causal_series_17/causal_series_17_a.jpg"" style=""width: 300px; height: 300px;"" />
              </div>","null",""
"","","","","","html-keyboard-response","48","157925","0.0-48.0","3A831E97ACF9454CB6759C6B192B5DD6","94a60801-1d52-4b15-830d-f1b166c69927","1272127f-799a-421a-a013-ec2b24556620","","null","<div style=""display: flex; justify-content: center; align-items: center;"">
                <img src=""images/causal/causal_series_17/causal_series_17_b.jpg"" style=""width: 300px; height: 300px;"" />
              </div>","null",""
"","","","","","html-keyboard-response","49","160937","0.0-49.0","3A831E97ACF9454CB6759C6B192B5DD6","94a60801-1d52-4b15-830d-f1b166c69927","1272127f-799a-421a-a013-ec2b24556620","","null","<div style=""display: flex; justify-content: center; align-items: center;"">
                <img src=""images/causal/causal_series_17/causal_series_17_c.jpg"" style=""width: 300px; height: 300px;"" />
              </div>","null",""
"","","","","","html-button-response","50","162527","0.0-50.0","3A831E97ACF9454CB6759C6B192B5DD6","94a60801-1d52-4b15-830d-f1b166c69927","1272127f-799a-421a-a013-ec2b24556620","","1589","
    <div style=""display: flex; justify-content: center; align-items: center;"">
      <img src=""images/red_deck_2.png"" style=""width: 300px; height: 300px; margin-right: 10px;"" />
      <img src=""images/blue_deck_1.png"" style=""width: 300px; height: 300px;"" />
    </div>","0","0"
"","","","","","html-keyboard-response","51","165536","0.0-51.0-0.0-0.0","3A831E97ACF9454CB6759C6B192B5DD6","94a60801-1d52-4b15-830d-f1b166c69927","1272127f-799a-421a-a013-ec2b24556620","","null","<div style=""display: flex; justify-content: center; align-items: center;"">
                <img src=""images/causal/causal_series_17/causal_series_17_d.jpg"" style=""width: 300px; height: 300px;"" />
              </div>","null",""
"","","","","","html-keyboard-response","52","168552","0.0-52.0","3A831E97ACF9454CB6759C6B192B5DD6","94a60801-1d52-4b15-830d-f1b166c69927","1272127f-799a-421a-a013-ec2b24556620","","null","<div style=""display: flex; justify-content: center; align-items: center;"">
                <img src=""images/other/blank.jpg"" style=""width: 300px; height: 300px;"" />
              </div>","null",""
"","","","","","html-keyboard-response","53","171553","0.0-53.0","3A831E97ACF9454CB6759C6B192B5DD6","94a60801-1d52-4b15-830d-f1b166c69927","1272127f-799a-421a-a013-ec2b24556620","","null","<div style=""display: flex; justify-content: center; align-items: center;"">
                <img src=""images/causal/causal_series_2/causal_series_2_a.jpg"" style=""width: 300px; height: 300px;"" />
              </div>","null",""
"","","","","","html-keyboard-response","54","174568","0.0-54.0","3A831E97ACF9454CB6759C6B192B5DD6","94a60801-1d52-4b15-830d-f1b166c69927","1272127f-799a-421a-a013-ec2b24556620","","null","<div style=""display: flex; justify-content: center; align-items: center;"">
                <img src=""images/causal/causal_series_2/causal_series_2_b.jpg"" style=""width: 300px; height: 300px;"" />
              </div>","null",""
"","","","","","html-keyboard-response","55","177583","0.0-55.0","3A831E97ACF9454CB6759C6B192B5DD6","94a60801-1d52-4b15-830d-f1b166c69927","1272127f-799a-421a-a013-ec2b24556620","","null","<div style=""display: flex; justify-content: center; align-items: center;"">
                <img src=""images/causal/causal_series_2/causal_series_2_c.jpg"" style=""width: 300px; height: 300px;"" />
              </div>","null",""
"","","","","","html-button-response","56","178654","0.0-56.0","3A831E97ACF9454CB6759C6B192B5DD6","94a60801-1d52-4b15-830d-f1b166c69927","1272127f-799a-421a-a013-ec2b24556620","","1070","
    <div style=""display: flex; justify-content: center; align-items: center;"">
      <img src=""images/red_deck_2.png"" style=""width: 300px; height: 300px; margin-right: 10px;"" />
      <img src=""images/blue_deck_1.png"" style=""width: 300px; height: 300px;"" />
    </div>","1","1"
"","","","","","html-keyboard-response","57","181665","0.0-57.0-1.0-0.0","3A831E97ACF9454CB6759C6B192B5DD6","94a60801-1d52-4b15-830d-f1b166c69927","1272127f-799a-421a-a013-ec2b24556620","","null","<div style=""display: flex; justify-content: center; align-items: center;"">
                <img src=""images/semantic/semantic_series_1/semantic_series_1_d.jpg"" style=""width: 300px; height: 300px;"" />
              </div>","null",""
"","","","","","html-keyboard-response","58","184671","0.0-58.0","3A831E97ACF9454CB6759C6B192B5DD6","94a60801-1d52-4b15-830d-f1b166c69927","1272127f-799a-421a-a013-ec2b24556620","","null","<div style=""display: flex; justify-content: center; align-items: center;"">
                <img src=""images/other/blank.jpg"" style=""width: 300px; height: 300px;"" />
              </div>","null",""
"","","","","","html-keyboard-response","59","187685","0.0-59.0","3A831E97ACF9454CB6759C6B192B5DD6","94a60801-1d52-4b15-830d-f1b166c69927","1272127f-799a-421a-a013-ec2b24556620","","null","<div style=""display: flex; justify-content: center; align-items: center;"">
                <img src=""images/causal/causal_series_13/causal_series_13_a.jpg"" style=""width: 300px; height: 300px;"" />
              </div>","null",""
"","","","","","html-keyboard-response","60","190689","0.0-60.0","3A831E97ACF9454CB6759C6B192B5DD6","94a60801-1d52-4b15-830d-f1b166c69927","1272127f-799a-421a-a013-ec2b24556620","","null","<div style=""display: flex; justify-content: center; align-items: center;"">
                <img src=""images/causal/causal_series_13/causal_series_13_b.jpg"" style=""width: 300px; height: 300px;"" />
              </div>","null",""
"","","","","","html-keyboard-response","61","193705","0.0-61.0","3A831E97ACF9454CB6759C6B192B5DD6","94a60801-1d52-4b15-830d-f1b166c69927","1272127f-799a-421a-a013-ec2b24556620","","null","<div style=""display: flex; justify-content: center; align-items: center;"">
                <img src=""images/causal/causal_series_13/causal_series_13_c.jpg"" style=""width: 300px; height: 300px;"" />
              </div>","null",""
"","","","","","html-button-response","62","195062","0.0-62.0","3A831E97ACF9454CB6759C6B192B5DD6","94a60801-1d52-4b15-830d-f1b166c69927","1272127f-799a-421a-a013-ec2b24556620","","1357","
    <div style=""display: flex; justify-content: center; align-items: center;"">
      <img src=""images/red_deck_2.png"" style=""width: 300px; height: 300px; margin-right: 10px;"" />
      <img src=""images/blue_deck_1.png"" style=""width: 300px; height: 300px;"" />
    </div>","1","1"
"","","","","","html-keyboard-response","63","198076","0.0-63.0-1.0-0.0","3A831E97ACF9454CB6759C6B192B5DD6","94a60801-1d52-4b15-830d-f1b166c69927","1272127f-799a-421a-a013-ec2b24556620","","null","<div style=""display: flex; justify-content: center; align-items: center;"">
                <img src=""images/semantic/semantic_series_12/semantic_series_12_d.jpg"" style=""width: 300px; height: 300px;"" />
              </div>","null",""
"","","","","","html-keyboard-response","64","201091","0.0-64.0","3A831E97ACF9454CB6759C6B192B5DD6","94a60801-1d52-4b15-830d-f1b166c69927","1272127f-799a-421a-a013-ec2b24556620","","null","<div style=""display: flex; justify-content: center; align-items: center;"">
                <img src=""images/other/blank.jpg"" style=""width: 300px; height: 300px;"" />
              </div>","null",""
"","","","","","html-keyboard-response","65","204096","0.0-65.0","3A831E97ACF9454CB6759C6B192B5DD6","94a60801-1d52-4b15-830d-f1b166c69927","1272127f-799a-421a-a013-ec2b24556620","","null","<div style=""display: flex; justify-content: center; align-items: center;"">
                <img src=""images/causal/causal_series_1/causal_series_1_a.jpg"" style=""width: 300px; height: 300px;"" />
              </div>","null",""
"","","","","","html-keyboard-response","66","207110","0.0-66.0","3A831E97ACF9454CB6759C6B192B5DD6","94a60801-1d52-4b15-830d-f1b166c69927","1272127f-799a-421a-a013-ec2b24556620","","null","<div style=""display: flex; justify-content: center; align-items: center;"">
                <img src=""images/causal/causal_series_1/causal_series_1_b.jpg"" style=""width: 300px; height: 300px;"" />
              </div>","null",""
"","","","","","html-keyboard-response","67","210117","0.0-67.0","3A831E97ACF9454CB6759C6B192B5DD6","94a60801-1d52-4b15-830d-f1b166c69927","1272127f-799a-421a-a013-ec2b24556620","","null","<div style=""display: flex; justify-content: center; align-items: center;"">
                <img src=""images/causal/causal_series_1/causal_series_1_c.jpg"" style=""width: 300px; height: 300px;"" />
              </div>","null",""
"","","","","","html-button-response","68","211262","0.0-68.0","3A831E97ACF9454CB6759C6B192B5DD6","94a60801-1d52-4b15-830d-f1b166c69927","1272127f-799a-421a-a013-ec2b24556620","","1145","
    <div style=""display: flex; justify-content: center; align-items: center;"">
      <img src=""images/red_deck_2.png"" style=""width: 300px; height: 300px; margin-right: 10px;"" />
      <img src=""images/blue_deck_1.png"" style=""width: 300px; height: 300px;"" />
    </div>","1","1"
"","","","","","html-keyboard-response","69","214263","0.0-69.0-1.0-0.0","3A831E97ACF9454CB6759C6B192B5DD6","94a60801-1d52-4b15-830d-f1b166c69927","1272127f-799a-421a-a013-ec2b24556620","","null","<div style=""display: flex; justify-content: center; align-items: center;"">
                <img src=""images/semantic/semantic_series_18/semantic_series_18_d.jpg"" style=""width: 300px; height: 300px;"" />
              </div>","null",""
"","","","","","html-keyboard-response","70","217272","0.0-70.0","3A831E97ACF9454CB6759C6B192B5DD6","94a60801-1d52-4b15-830d-f1b166c69927","1272127f-799a-421a-a013-ec2b24556620","","null","<div style=""display: flex; justify-content: center; align-items: center;"">
                <img src=""images/other/blank.jpg"" style=""width: 300px; height: 300px;"" />
              </div>","null",""
"","","","","","html-keyboard-response","71","220274","0.0-71.0","3A831E97ACF9454CB6759C6B192B5DD6","94a60801-1d52-4b15-830d-f1b166c69927","1272127f-799a-421a-a013-ec2b24556620","","null","<div style=""display: flex; justify-content: center; align-items: center;"">
                <img src=""images/causal/causal_series_9/causal_series_9_a.jpg"" style=""width: 300px; height: 300px;"" />
              </div>","null",""
"","","","","","html-keyboard-response","72","223290","0.0-72.0","3A831E97ACF9454CB6759C6B192B5DD6","94a60801-1d52-4b15-830d-f1b166c69927","1272127f-799a-421a-a013-ec2b24556620","","null","<div style=""display: flex; justify-content: center; align-items: center;"">
                <img src=""images/causal/causal_series_9/causal_series_9_b.jpg"" style=""width: 300px; height: 300px;"" />
              </div>","null",""
"","","","","","html-keyboard-response","73","226302","0.0-73.0","3A831E97ACF9454CB6759C6B192B5DD6","94a60801-1d52-4b15-830d-f1b166c69927","1272127f-799a-421a-a013-ec2b24556620","","null","<div style=""display: flex; justify-content: center; align-items: center;"">
                <img src=""images/causal/causal_series_9/causal_series_9_c.jpg"" style=""width: 300px; height: 300px;"" />
              </div>","null",""
"","","","","","html-button-response","74","227785","0.0-74.0","3A831E97ACF9454CB6759C6B192B5DD6","94a60801-1d52-4b15-830d-f1b166c69927","1272127f-799a-421a-a013-ec2b24556620","","1482","
    <div style=""display: flex; justify-content: center; align-items: center;"">
      <img src=""images/red_deck_2.png"" style=""width: 300px; height: 300px; margin-right: 10px;"" />
      <img src=""images/blue_deck_1.png"" style=""width: 300px; height: 300px;"" />
    </div>","0","0"
"","","","","","html-keyboard-response","75","230785","0.0-75.0-0.0-0.0","3A831E97ACF9454CB6759C6B192B5DD6","94a60801-1d52-4b15-830d-f1b166c69927","1272127f-799a-421a-a013-ec2b24556620","","null","<div style=""display: flex; justify-content: center; align-items: center;"">
                <img src=""images/causal/causal_series_9/causal_series_9_d.jpg"" style=""width: 300px; height: 300px;"" />
              </div>","null",""
"","","","","","html-keyboard-response","76","233790","0.0-76.0","3A831E97ACF9454CB6759C6B192B5DD6","94a60801-1d52-4b15-830d-f1b166c69927","1272127f-799a-421a-a013-ec2b24556620","","null","<div style=""display: flex; justify-content: center; align-items: center;"">
                <img src=""images/other/blank.jpg"" style=""width: 300px; height: 300px;"" />
              </div>","null",""
"","","","","","html-keyboard-response","77","236792","0.0-77.0","3A831E97ACF9454CB6759C6B192B5DD6","94a60801-1d52-4b15-830d-f1b166c69927","1272127f-799a-421a-a013-ec2b24556620","","null","<div style=""display: flex; justify-content: center; align-items: center;"">
                <img src=""images/causal/causal_series_12/causal_series_12_a.jpg"" style=""width: 300px; height: 300px;"" />
              </div>","null",""
"","","","","","html-keyboard-response","78","239801","0.0-78.0","3A831E97ACF9454CB6759C6B192B5DD6","94a60801-1d52-4b15-830d-f1b166c69927","1272127f-799a-421a-a013-ec2b24556620","","null","<div style=""display: flex; justify-content: center; align-items: center;"">
                <img src=""images/causal/causal_series_12/causal_series_12_b.jpg"" style=""width: 300px; height: 300px;"" />
              </div>","null",""
"","","","","","html-keyboard-response","79","242805","0.0-79.0","3A831E97ACF9454CB6759C6B192B5DD6","94a60801-1d52-4b15-830d-f1b166c69927","1272127f-799a-421a-a013-ec2b24556620","","null","<div style=""display: flex; justify-content: center; align-items: center;"">
                <img src=""images/causal/causal_series_12/causal_series_12_c.jpg"" style=""width: 300px; height: 300px;"" />
              </div>","null",""
"","","","","","html-button-response","80","252219","0.0-80.0","3A831E97ACF9454CB6759C6B192B5DD6","94a60801-1d52-4b15-830d-f1b166c69927","1272127f-799a-421a-a013-ec2b24556620","","9414","
    <div style=""display: flex; justify-content: center; align-items: center;"">
      <img src=""images/red_deck_2.png"" style=""width: 300px; height: 300px; margin-right: 10px;"" />
      <img src=""images/blue_deck_1.png"" style=""width: 300px; height: 300px;"" />
    </div>","1","1"
"","","","","","html-keyboard-response","81","255228","0.0-81.0-1.0-0.0","3A831E97ACF9454CB6759C6B192B5DD6","94a60801-1d52-4b15-830d-f1b166c69927","1272127f-799a-421a-a013-ec2b24556620","","null","<div style=""display: flex; justify-content: center; align-items: center;"">
                <img src=""images/semantic/semantic_series_11/semantic_series_11_d.jpg"" style=""width: 300px; height: 300px;"" />
              </div>","null",""
"","","","","","html-keyboard-response","82","258235","0.0-82.0","3A831E97ACF9454CB6759C6B192B5DD6","94a60801-1d52-4b15-830d-f1b166c69927","1272127f-799a-421a-a013-ec2b24556620","","null","<div style=""display: flex; justify-content: center; align-items: center;"">
                <img src=""images/other/blank.jpg"" style=""width: 300px; height: 300px;"" />
              </div>","null",""
"","","","","","html-keyboard-response","83","261236","0.0-83.0","3A831E97ACF9454CB6759C6B192B5DD6","94a60801-1d52-4b15-830d-f1b166c69927","1272127f-799a-421a-a013-ec2b24556620","","null","<div style=""display: flex; justify-content: center; align-items: center;"">
                <img src=""images/causal/causal_series_7/causal_series_7_a.jpg"" style=""width: 300px; height: 300px;"" />
              </div>","null",""
"","","","","","html-keyboard-response","84","264238","0.0-84.0","3A831E97ACF9454CB6759C6B192B5DD6","94a60801-1d52-4b15-830d-f1b166c69927","1272127f-799a-421a-a013-ec2b24556620","","null","<div style=""display: flex; justify-content: center; align-items: center;"">
                <img src=""images/causal/causal_series_7/causal_series_7_b.jpg"" style=""width: 300px; height: 300px;"" />
              </div>","null",""
"","","","","","html-keyboard-response","85","267245","0.0-85.0","3A831E97ACF9454CB6759C6B192B5DD6","94a60801-1d52-4b15-830d-f1b166c69927","1272127f-799a-421a-a013-ec2b24556620","","null","<div style=""display: flex; justify-content: center; align-items: center;"">
                <img src=""images/causal/causal_series_7/causal_series_7_c.jpg"" style=""width: 300px; height: 300px;"" />
              </div>","null",""
"","","","","","html-button-response","86","268442","0.0-86.0","3A831E97ACF9454CB6759C6B192B5DD6","94a60801-1d52-4b15-830d-f1b166c69927","1272127f-799a-421a-a013-ec2b24556620","","1196","
    <div style=""display: flex; justify-content: center; align-items: center;"">
      <img src=""images/red_deck_2.png"" style=""width: 300px; height: 300px; margin-right: 10px;"" />
      <img src=""images/blue_deck_1.png"" style=""width: 300px; height: 300px;"" />
    </div>","0","0"
"","","","","","html-keyboard-response","87","271454","0.0-87.0-0.0-0.0","3A831E97ACF9454CB6759C6B192B5DD6","94a60801-1d52-4b15-830d-f1b166c69927","1272127f-799a-421a-a013-ec2b24556620","","null","<div style=""display: flex; justify-content: center; align-items: center;"">
                <img src=""images/causal/causal_series_7/causal_series_7_d.jpg"" style=""width: 300px; height: 300px;"" />
              </div>","null",""
"","","","","","html-keyboard-response","88","274466","0.0-88.0","3A831E97ACF9454CB6759C6B192B5DD6","94a60801-1d52-4b15-830d-f1b166c69927","1272127f-799a-421a-a013-ec2b24556620","","null","<div style=""display: flex; justify-content: center; align-items: center;"">
                <img src=""images/other/blank.jpg"" style=""width: 300px; height: 300px;"" />
              </div>","null",""
"","","","","","html-keyboard-response","89","277476","0.0-89.0","3A831E97ACF9454CB6759C6B192B5DD6","94a60801-1d52-4b15-830d-f1b166c69927","1272127f-799a-421a-a013-ec2b24556620","","null","<div style=""display: flex; justify-content: center; align-items: center;"">
                <img src=""images/causal/causal_series_16/causal_series_16_a.jpg"" style=""width: 300px; height: 300px;"" />
              </div>","null",""
"","","","","","html-keyboard-response","90","280478","0.0-90.0","3A831E97ACF9454CB6759C6B192B5DD6","94a60801-1d52-4b15-830d-f1b166c69927","1272127f-799a-421a-a013-ec2b24556620","","null","<div style=""display: flex; justify-content: center; align-items: center;"">
                <img src=""images/causal/causal_series_16/causal_series_16_b.jpg"" style=""width: 300px; height: 300px;"" />
              </div>","null",""
"","","","","","html-keyboard-response","91","283480","0.0-91.0","3A831E97ACF9454CB6759C6B192B5DD6","94a60801-1d52-4b15-830d-f1b166c69927","1272127f-799a-421a-a013-ec2b24556620","","null","<div style=""display: flex; justify-content: center; align-items: center;"">
                <img src=""images/causal/causal_series_16/causal_series_16_c.jpg"" style=""width: 300px; height: 300px;"" />
              </div>","null",""
"","","","","","html-button-response","92","284276","0.0-92.0","3A831E97ACF9454CB6759C6B192B5DD6","94a60801-1d52-4b15-830d-f1b166c69927","1272127f-799a-421a-a013-ec2b24556620","","796","
    <div style=""display: flex; justify-content: center; align-items: center;"">
      <img src=""images/red_deck_2.png"" style=""width: 300px; height: 300px; margin-right: 10px;"" />
      <img src=""images/blue_deck_1.png"" style=""width: 300px; height: 300px;"" />
    </div>","1","1"
"","","","","","html-keyboard-response","93","287289","0.0-93.0-1.0-0.0","3A831E97ACF9454CB6759C6B192B5DD6","94a60801-1d52-4b15-830d-f1b166c69927","1272127f-799a-421a-a013-ec2b24556620","","null","<div style=""display: flex; justify-content: center; align-items: center;"">
                <img src=""images/semantic/semantic_series_15/semantic_series_15_d.jpg"" style=""width: 300px; height: 300px;"" />
              </div>","null",""
"","","","","","html-keyboard-response","94","290293","0.0-94.0","3A831E97ACF9454CB6759C6B192B5DD6","94a60801-1d52-4b15-830d-f1b166c69927","1272127f-799a-421a-a013-ec2b24556620","","null","<div style=""display: flex; justify-content: center; align-items: center;"">
                <img src=""images/other/blank.jpg"" style=""width: 300px; height: 300px;"" />
              </div>","null",""
"","","","","","html-keyboard-response","95","293302","0.0-95.0","3A831E97ACF9454CB6759C6B192B5DD6","94a60801-1d52-4b15-830d-f1b166c69927","1272127f-799a-421a-a013-ec2b24556620","","null","<div style=""display: flex; justify-content: center; align-items: center;"">
                <img src=""images/causal/causal_series_15/causal_series_15_a.jpg"" style=""width: 300px; height: 300px;"" />
              </div>","null",""
"","","","","","html-keyboard-response","96","296303","0.0-96.0","3A831E97ACF9454CB6759C6B192B5DD6","94a60801-1d52-4b15-830d-f1b166c69927","1272127f-799a-421a-a013-ec2b24556620","","null","<div style=""display: flex; justify-content: center; align-items: center;"">
                <img src=""images/causal/causal_series_15/causal_series_15_b.jpg"" style=""width: 300px; height: 300px;"" />
              </div>","null",""
"","","","","","html-keyboard-response","97","299314","0.0-97.0","3A831E97ACF9454CB6759C6B192B5DD6","94a60801-1d52-4b15-830d-f1b166c69927","1272127f-799a-421a-a013-ec2b24556620","","null","<div style=""display: flex; justify-content: center; align-items: center;"">
                <img src=""images/causal/causal_series_15/causal_series_15_c.jpg"" style=""width: 300px; height: 300px;"" />
              </div>","null",""
"","","","","","html-button-response","98","300516","0.0-98.0","3A831E97ACF9454CB6759C6B192B5DD6","94a60801-1d52-4b15-830d-f1b166c69927","1272127f-799a-421a-a013-ec2b24556620","","1202","
    <div style=""display: flex; justify-content: center; align-items: center;"">
      <img src=""images/red_deck_2.png"" style=""width: 300px; height: 300px; margin-right: 10px;"" />
      <img src=""images/blue_deck_1.png"" style=""width: 300px; height: 300px;"" />
    </div>","1","1"
"","","","","","html-keyboard-response","99","303522","0.0-99.0-1.0-0.0","3A831E97ACF9454CB6759C6B192B5DD6","94a60801-1d52-4b15-830d-f1b166c69927","1272127f-799a-421a-a013-ec2b24556620","","null","<div style=""display: flex; justify-content: center; align-items: center;"">
                <img src=""images/semantic/semantic_series_14/semantic_series_14_d.jpg"" style=""width: 300px; height: 300px;"" />
              </div>","null",""
"","","","","","html-keyboard-response","100","306534","0.0-100.0","3A831E97ACF9454CB6759C6B192B5DD6","94a60801-1d52-4b15-830d-f1b166c69927","1272127f-799a-421a-a013-ec2b24556620","","null","<div style=""display: flex; justify-content: center; align-items: center;"">
                <img src=""images/other/blank.jpg"" style=""width: 300px; height: 300px;"" />
              </div>","null",""
"","","","","","html-keyboard-response","101","309541","0.0-101.0","3A831E97ACF9454CB6759C6B192B5DD6","94a60801-1d52-4b15-830d-f1b166c69927","1272127f-799a-421a-a013-ec2b24556620","","null","<div style=""display: flex; justify-content: center; align-items: center;"">
                <img src=""images/causal/causal_series_14/causal_series_14_a.jpg"" style=""width: 300px; height: 300px;"" />
              </div>","null",""
"","","","","","html-keyboard-response","102","312552","0.0-102.0","3A831E97ACF9454CB6759C6B192B5DD6","94a60801-1d52-4b15-830d-f1b166c69927","1272127f-799a-421a-a013-ec2b24556620","","null","<div style=""display: flex; justify-content: center; align-items: center;"">
                <img src=""images/causal/causal_series_14/causal_series_14_b.jpg"" style=""width: 300px; height: 300px;"" />
              </div>","null",""
"","","","","","html-keyboard-response","103","315562","0.0-103.0","3A831E97ACF9454CB6759C6B192B5DD6","94a60801-1d52-4b15-830d-f1b166c69927","1272127f-799a-421a-a013-ec2b24556620","","null","<div style=""display: flex; justify-content: center; align-items: center;"">
                <img src=""images/causal/causal_series_14/causal_series_14_c.jpg"" style=""width: 300px; height: 300px;"" />
              </div>","null",""
"","","","","","html-button-response","104","316086","0.0-104.0","3A831E97ACF9454CB6759C6B192B5DD6","94a60801-1d52-4b15-830d-f1b166c69927","1272127f-799a-421a-a013-ec2b24556620","","524","
    <div style=""display: flex; justify-content: center; align-items: center;"">
      <img src=""images/red_deck_2.png"" style=""width: 300px; height: 300px; margin-right: 10px;"" />
      <img src=""images/blue_deck_1.png"" style=""width: 300px; height: 300px;"" />
    </div>","0","0"
"","","","","","html-keyboard-response","105","319093","0.0-105.0-0.0-0.0","3A831E97ACF9454CB6759C6B192B5DD6","94a60801-1d52-4b15-830d-f1b166c69927","1272127f-799a-421a-a013-ec2b24556620","","null","<div style=""display: flex; justify-content: center; align-items: center;"">
                <img src=""images/causal/causal_series_14/causal_series_14_d.jpg"" style=""width: 300px; height: 300px;"" />
              </div>","null",""
"","","","","","html-keyboard-response","106","322109","0.0-106.0","3A831E97ACF9454CB6759C6B192B5DD6","94a60801-1d52-4b15-830d-f1b166c69927","1272127f-799a-421a-a013-ec2b24556620","","null","<div style=""display: flex; justify-content: center; align-items: center;"">
                <img src=""images/other/blank.jpg"" style=""width: 300px; height: 300px;"" />
              </div>","null",""
"","","","","","html-keyboard-response","107","325122","0.0-107.0","3A831E97ACF9454CB6759C6B192B5DD6","94a60801-1d52-4b15-830d-f1b166c69927","1272127f-799a-421a-a013-ec2b24556620","","null","<div style=""display: flex; justify-content: center; align-items: center;"">
                <img src=""images/causal/causal_series_18/causal_series_18_a.jpg"" style=""width: 300px; height: 300px;"" />
              </div>","null",""
"","","","","","html-keyboard-response","108","328131","0.0-108.0","3A831E97ACF9454CB6759C6B192B5DD6","94a60801-1d52-4b15-830d-f1b166c69927","1272127f-799a-421a-a013-ec2b24556620","","null","<div style=""display: flex; justify-content: center; align-items: center;"">
                <img src=""images/causal/causal_series_18/causal_series_18_b.jpg"" style=""width: 300px; height: 300px;"" />
              </div>","null",""
"","","","","","html-keyboard-response","109","331141","0.0-109.0","3A831E97ACF9454CB6759C6B192B5DD6","94a60801-1d52-4b15-830d-f1b166c69927","1272127f-799a-421a-a013-ec2b24556620","","null","<div style=""display: flex; justify-content: center; align-items: center;"">
                <img src=""images/causal/causal_series_18/causal_series_18_c.jpg"" style=""width: 300px; height: 300px;"" />
              </div>","null",""
"","","","","","html-button-response","110","332081","0.0-110.0","3A831E97ACF9454CB6759C6B192B5DD6","94a60801-1d52-4b15-830d-f1b166c69927","1272127f-799a-421a-a013-ec2b24556620","","939","
    <div style=""display: flex; justify-content: center; align-items: center;"">
      <img src=""images/red_deck_2.png"" style=""width: 300px; height: 300px; margin-right: 10px;"" />
      <img src=""images/blue_deck_1.png"" style=""width: 300px; height: 300px;"" />
    </div>","0","0"
"","","","","","html-keyboard-response","111","335095","0.0-111.0-0.0-0.0","3A831E97ACF9454CB6759C6B192B5DD6","94a60801-1d52-4b15-830d-f1b166c69927","1272127f-799a-421a-a013-ec2b24556620","","null","<div style=""display: flex; justify-content: center; align-items: center;"">
                <img src=""images/causal/causal_series_18/causal_series_18_d.jpg"" style=""width: 300px; height: 300px;"" />
              </div>","null",""
"","","","","","html-keyboard-response","112","338097","0.0-112.0","3A831E97ACF9454CB6759C6B192B5DD6","94a60801-1d52-4b15-830d-f1b166c69927","1272127f-799a-421a-a013-ec2b24556620","","null","<div style=""display: flex; justify-content: center; align-items: center;"">
                <img src=""images/other/blank.jpg"" style=""width: 300px; height: 300px;"" />
              </div>","null",""
"","","","","","survey-text","113","363752","0.0-113.0","3A831E97ACF9454CB6759C6B192B5DD6","94a60801-1d52-4b15-830d-f1b166c69927","1272127f-799a-421a-a013-ec2b24556620","","25653","","{""Q0"":""red and blue. red continues story, blue chooses new story.""}",""
"","","","","","survey-text","114","391808","0.0-114.0","3A831E97ACF9454CB6759C6B192B5DD6","94a60801-1d52-4b15-830d-f1b166c69927","1272127f-799a-421a-a013-ec2b24556620","","28055","","{""Q0"":""Red was more interesting. Blue seemed a little off. and AI.""}",""
"","","","","","html-button-response","115","397291","0.0-115.0","3A831E97ACF9454CB6759C6B192B5DD6","94a60801-1d52-4b15-830d-f1b166c69927","1272127f-799a-421a-a013-ec2b24556620","","5483","Which color deck does the fourth image continue the story from the series?","1",""
"","","","","","html-button-response","116","398859","0.0-116.0","3A831E97ACF9454CB6759C6B192B5DD6","94a60801-1d52-4b15-830d-f1b166c69927","1272127f-799a-421a-a013-ec2b24556620","","1567","Which color deck does the fourth image not follow the story from the series?","0",""
"","","","","","survey-text","117","404193","0.0-117.0","3A831E97ACF9454CB6759C6B192B5DD6","94a60801-1d52-4b15-830d-f1b166c69927","1272127f-799a-421a-a013-ec2b24556620","","5332","","{""Q0"":""MALE`"",""Q1"":""21""}",""
"","","","","","instructions","118","409101","0.0-118.0","3A831E97ACF9454CB6759C6B192B5DD6","94a60801-1d52-4b15-830d-f1b166c69927","1272127f-799a-421a-a013-ec2b24556620","[{""page_index"":0,""viewing_time"":4908}]","4908","","",""
