"success","timeout","failed_images","failed_audio","failed_video","trial_type","trial_index","time_elapsed","internal_node_id","subject_id","study_id","session_id","view_history","rt","stimulus","response","phase","choice","question_order"
"true","false","[]","[]","[]","preload","0","1256","0.0-0.0","794748C920364AB09ABC7F07DAE082C0","019a5261-ba24-7b40-9473-104c4b5ad29a","019a524e-1850-7fa4-8556-8a611a5fd0c9","","","","","","",""
"","","","","","instructions","1","6510","0.0-1.0","794748C920364AB09ABC7F07DAE082C0","019a5261-ba24-7b40-9473-104c4b5ad29a","019a524e-1850-7fa4-8556-8a611a5fd0c9","[{""page_index"":0,""viewing_time"":5253}]","5253","","","","",""
"","","","","","instructions","2","12384","0.0-2.0","794748C920364AB09ABC7F07DAE082C0","019a5261-ba24-7b40-9473-104c4b5ad29a","019a524e-1850-7fa4-8556-8a611a5fd0c9","[{""page_index"":0,""viewing_time"":5873}]","5873","","","","",""
"true","","","","","fullscreen","3","14661","0.0-3.0","794748C920364AB09ABC7F07DAE082C0","019a5261-ba24-7b40-9473-104c4b5ad29a","019a524e-1850-7fa4-8556-8a611a5fd0c9","","1273","","","","",""
"","","","","","instructions","4","32035","0.0-4.0","794748C920364AB09ABC7F07DAE082C0","019a5261-ba24-7b40-9473-104c4b5ad29a","019a524e-1850-7fa4-8556-8a611a5fd0c9","[{""page_index"":0,""viewing_time"":17373}]","17373","","","","",""
"","","","","","html-keyboard-response","5","39039","0.0-5.0-0.0","794748C920364AB09ABC7F07DAE082C0","019a5261-ba24-7b40-9473-104c4b5ad29a","019a524e-1850-7fa4-8556-8a611a5fd0c9","","null","<div style=""display: flex; justify-content: center; align-items: center;"">
                     <img src=""images/causal/causal_series_8/causal_series_8_a.png"" style=""width: 300px; height: 300px;"" />
                   </div>","null","causal_a","",""
"","","","","","html-button-response","6","41828","0.0-5.0-1.0","794748C920364AB09ABC7F07DAE082C0","019a5261-ba24-7b40-9473-104c4b5ad29a","019a524e-1850-7fa4-8556-8a611a5fd0c9","","2787","
        <div style=""display: flex; justify-content: center; align-items: center;"">
          <img src=""images/blue_deck_1.png"" style=""width: 300px; height: 300px; margin-right: 10px;"" />
          <img src=""images/red_deck_2.png"" style=""width: 300px; height: 300px;"" />
        </div>","0","deck_choice","0",""
"","","","","","html-keyboard-response","7","47831","0.0-5.0-2.0-1.0-0.0","794748C920364AB09ABC7F07DAE082C0","019a5261-ba24-7b40-9473-104c4b5ad29a","019a524e-1850-7fa4-8556-8a611a5fd0c9","","null","<div style=""display: flex; justify-content: center; align-items: center;"">
                     <img src=""images/causal/causal_series_5/causal_series_5_b.png"" style=""width: 300px; height: 300px;"" />
                   </div>","null","causal_5_b","",""
"","","","","","html-keyboard-response","8","53834","0.0-5.0-2.0-1.0-1.0","794748C920364AB09ABC7F07DAE082C0","019a5261-ba24-7b40-9473-104c4b5ad29a","019a524e-1850-7fa4-8556-8a611a5fd0c9","","null","<div style=""display: flex; justify-content: center; align-items: center;"">
                     <img src=""images/causal/causal_series_10/causal_series_10_b.png"" style=""width: 300px; height: 300px;"" />
                   </div>","null","causal_10_b","",""
"","","","","","survey-likert","9","59734","0.0-5.0-3.0","794748C920364AB09ABC7F07DAE082C0","019a5261-ba24-7b40-9473-104c4b5ad29a","019a524e-1850-7fa4-8556-8a611a5fd0c9","","5897","","{""Q0"":4}","surprise_rating","","[0]"
"","","","","","survey-likert","10","64577","0.0-5.0-4.0","794748C920364AB09ABC7F07DAE082C0","019a5261-ba24-7b40-9473-104c4b5ad29a","019a524e-1850-7fa4-8556-8a611a5fd0c9","","4841","","{""Q0"":4}","enjoyment_rating","","[0]"
"","","","","","html-keyboard-response","11","71579","0.0-6.0-0.0","794748C920364AB09ABC7F07DAE082C0","019a5261-ba24-7b40-9473-104c4b5ad29a","019a524e-1850-7fa4-8556-8a611a5fd0c9","","null","<div style=""display: flex; justify-content: center; align-items: center;"">
                     <img src=""images/causal/causal_series_7/causal_series_7_a.png"" style=""width: 300px; height: 300px;"" />
                   </div>","null","causal_a","",""
"","","","","","html-button-response","12","73748","0.0-6.0-1.0","794748C920364AB09ABC7F07DAE082C0","019a5261-ba24-7b40-9473-104c4b5ad29a","019a524e-1850-7fa4-8556-8a611a5fd0c9","","2167","
        <div style=""display: flex; justify-content: center; align-items: center;"">
          <img src=""images/blue_deck_1.png"" style=""width: 300px; height: 300px; margin-right: 10px;"" />
          <img src=""images/red_deck_2.png"" style=""width: 300px; height: 300px;"" />
        </div>","0","deck_choice","0",""
"","","","","","html-keyboard-response","13","79751","0.0-6.0-2.0-1.0-0.0","794748C920364AB09ABC7F07DAE082C0","019a5261-ba24-7b40-9473-104c4b5ad29a","019a524e-1850-7fa4-8556-8a611a5fd0c9","","null","<div style=""display: flex; justify-content: center; align-items: center;"">
                     <img src=""images/causal/causal_series_5/causal_series_5_b.png"" style=""width: 300px; height: 300px;"" />
                   </div>","null","causal_5_b","",""
"","","","","","html-keyboard-response","14","85752","0.0-6.0-2.0-1.0-1.0","794748C920364AB09ABC7F07DAE082C0","019a5261-ba24-7b40-9473-104c4b5ad29a","019a524e-1850-7fa4-8556-8a611a5fd0c9","","null","<div style=""display: flex; justify-content: center; align-items: center;"">
                     <img src=""images/causal/causal_series_9/causal_series_9_b.png"" style=""width: 300px; height: 300px;"" />
                   </div>","null","causal_9_b","",""
"","","","","","survey-likert","15","88378","0.0-6.0-3.0","794748C920364AB09ABC7F07DAE082C0","019a5261-ba24-7b40-9473-104c4b5ad29a","019a524e-1850-7fa4-8556-8a611a5fd0c9","","2624","","{""Q0"":4}","surprise_rating","","[0]"
"","","","","","survey-likert","16","90298","0.0-6.0-4.0","794748C920364AB09ABC7F07DAE082C0","019a5261-ba24-7b40-9473-104c4b5ad29a","019a524e-1850-7fa4-8556-8a611a5fd0c9","","1919","","{""Q0"":4}","enjoyment_rating","","[0]"
"","","","","","html-keyboard-response","17","97301","0.0-7.0-0.0","794748C920364AB09ABC7F07DAE082C0","019a5261-ba24-7b40-9473-104c4b5ad29a","019a524e-1850-7fa4-8556-8a611a5fd0c9","","null","<div style=""display: flex; justify-content: center; align-items: center;"">
                     <img src=""images/causal/causal_series_10/causal_series_10_a.png"" style=""width: 300px; height: 300px;"" />
                   </div>","null","causal_a","",""
"","","","","","html-button-response","18","98848","0.0-7.0-1.0","794748C920364AB09ABC7F07DAE082C0","019a5261-ba24-7b40-9473-104c4b5ad29a","019a524e-1850-7fa4-8556-8a611a5fd0c9","","1545","
        <div style=""display: flex; justify-content: center; align-items: center;"">
          <img src=""images/blue_deck_1.png"" style=""width: 300px; height: 300px; margin-right: 10px;"" />
          <img src=""images/red_deck_2.png"" style=""width: 300px; height: 300px;"" />
        </div>","1","deck_choice","1",""
"","","","","","html-keyboard-response","19","105850","0.0-7.0-2.0-0.0-0.0","794748C920364AB09ABC7F07DAE082C0","019a5261-ba24-7b40-9473-104c4b5ad29a","019a524e-1850-7fa4-8556-8a611a5fd0c9","","null","<div style=""display: flex; justify-content: center; align-items: center;"">
                     <img src=""images/causal/causal_series_10/causal_series_10_b.png"" style=""width: 300px; height: 300px;"" />
                   </div>","null","causal_b","",""
"","","","","","html-keyboard-response","20","112852","0.0-7.0-2.0-0.0-1.0","794748C920364AB09ABC7F07DAE082C0","019a5261-ba24-7b40-9473-104c4b5ad29a","019a524e-1850-7fa4-8556-8a611a5fd0c9","","null","<div style=""display: flex; justify-content: center; align-items: center;"">
                     <img src=""images/causal/causal_series_10/causal_series_10_c.png"" style=""width: 300px; height: 300px;"" />
                   </div>","null","causal_c","",""
"","","","","","survey-likert","21","118074","0.0-7.0-3.0","794748C920364AB09ABC7F07DAE082C0","019a5261-ba24-7b40-9473-104c4b5ad29a","019a524e-1850-7fa4-8556-8a611a5fd0c9","","5220","","{""Q0"":2}","surprise_rating","","[0]"
"","","","","","survey-likert","22","120310","0.0-7.0-4.0","794748C920364AB09ABC7F07DAE082C0","019a5261-ba24-7b40-9473-104c4b5ad29a","019a524e-1850-7fa4-8556-8a611a5fd0c9","","2235","","{""Q0"":4}","enjoyment_rating","","[0]"
"","","","","","html-keyboard-response","23","127312","0.0-8.0-0.0","794748C920364AB09ABC7F07DAE082C0","019a5261-ba24-7b40-9473-104c4b5ad29a","019a524e-1850-7fa4-8556-8a611a5fd0c9","","null","<div style=""display: flex; justify-content: center; align-items: center;"">
                     <img src=""images/causal/causal_series_1/causal_series_1_a.png"" style=""width: 300px; height: 300px;"" />
                   </div>","null","causal_a","",""
"","","","","","html-button-response","24","130870","0.0-8.0-1.0","794748C920364AB09ABC7F07DAE082C0","019a5261-ba24-7b40-9473-104c4b5ad29a","019a524e-1850-7fa4-8556-8a611a5fd0c9","","3556","
        <div style=""display: flex; justify-content: center; align-items: center;"">
          <img src=""images/blue_deck_1.png"" style=""width: 300px; height: 300px; margin-right: 10px;"" />
          <img src=""images/red_deck_2.png"" style=""width: 300px; height: 300px;"" />
        </div>","0","deck_choice","0",""
"","","","","","html-keyboard-response","25","136872","0.0-8.0-2.0-1.0-0.0","794748C920364AB09ABC7F07DAE082C0","019a5261-ba24-7b40-9473-104c4b5ad29a","019a524e-1850-7fa4-8556-8a611a5fd0c9","","null","<div style=""display: flex; justify-content: center; align-items: center;"">
                     <img src=""images/causal/causal_series_3/causal_series_3_c.png"" style=""width: 300px; height: 300px;"" />
                   </div>","null","causal_3_c","",""
"","","","","","html-keyboard-response","26","142874","0.0-8.0-2.0-1.0-1.0","794748C920364AB09ABC7F07DAE082C0","019a5261-ba24-7b40-9473-104c4b5ad29a","019a524e-1850-7fa4-8556-8a611a5fd0c9","","null","<div style=""display: flex; justify-content: center; align-items: center;"">
                     <img src=""images/causal/causal_series_4/causal_series_4_c.png"" style=""width: 300px; height: 300px;"" />
                   </div>","null","causal_4_c","",""
"","","","","","survey-likert","27","145020","0.0-8.0-3.0","794748C920364AB09ABC7F07DAE082C0","019a5261-ba24-7b40-9473-104c4b5ad29a","019a524e-1850-7fa4-8556-8a611a5fd0c9","","2145","","{""Q0"":0}","surprise_rating","","[0]"
"","","","","","survey-likert","28","147344","0.0-8.0-4.0","794748C920364AB09ABC7F07DAE082C0","019a5261-ba24-7b40-9473-104c4b5ad29a","019a524e-1850-7fa4-8556-8a611a5fd0c9","","2323","","{""Q0"":0}","enjoyment_rating","","[0]"
"","","","","","html-keyboard-response","29","154347","0.0-9.0-0.0","794748C920364AB09ABC7F07DAE082C0","019a5261-ba24-7b40-9473-104c4b5ad29a","019a524e-1850-7fa4-8556-8a611a5fd0c9","","null","<div style=""display: flex; justify-content: center; align-items: center;"">
                     <img src=""images/causal/causal_series_2/causal_series_2_a.png"" style=""width: 300px; height: 300px;"" />
                   </div>","null","causal_a","",""
"","","","","","html-button-response","30","156203","0.0-9.0-1.0","794748C920364AB09ABC7F07DAE082C0","019a5261-ba24-7b40-9473-104c4b5ad29a","019a524e-1850-7fa4-8556-8a611a5fd0c9","","1854","
        <div style=""display: flex; justify-content: center; align-items: center;"">
          <img src=""images/blue_deck_1.png"" style=""width: 300px; height: 300px; margin-right: 10px;"" />
          <img src=""images/red_deck_2.png"" style=""width: 300px; height: 300px;"" />
        </div>","0","deck_choice","0",""
"","","","","","html-keyboard-response","31","162206","0.0-9.0-2.0-1.0-0.0","794748C920364AB09ABC7F07DAE082C0","019a5261-ba24-7b40-9473-104c4b5ad29a","019a524e-1850-7fa4-8556-8a611a5fd0c9","","null","<div style=""display: flex; justify-content: center; align-items: center;"">
                     <img src=""images/causal/causal_series_5/causal_series_5_c.png"" style=""width: 300px; height: 300px;"" />
                   </div>","null","causal_5_c","",""
"","","","","","html-keyboard-response","32","168209","0.0-9.0-2.0-1.0-1.0","794748C920364AB09ABC7F07DAE082C0","019a5261-ba24-7b40-9473-104c4b5ad29a","019a524e-1850-7fa4-8556-8a611a5fd0c9","","null","<div style=""display: flex; justify-content: center; align-items: center;"">
                     <img src=""images/causal/causal_series_3/causal_series_3_b.png"" style=""width: 300px; height: 300px;"" />
                   </div>","null","causal_3_b","",""
"","","","","","survey-likert","33","170695","0.0-9.0-3.0","794748C920364AB09ABC7F07DAE082C0","019a5261-ba24-7b40-9473-104c4b5ad29a","019a524e-1850-7fa4-8556-8a611a5fd0c9","","2485","","{""Q0"":0}","surprise_rating","","[0]"
"","","","","","survey-likert","34","173261","0.0-9.0-4.0","794748C920364AB09ABC7F07DAE082C0","019a5261-ba24-7b40-9473-104c4b5ad29a","019a524e-1850-7fa4-8556-8a611a5fd0c9","","2564","","{""Q0"":2}","enjoyment_rating","","[0]"
"","","","","","html-keyboard-response","35","180264","0.0-10.0-0.0","794748C920364AB09ABC7F07DAE082C0","019a5261-ba24-7b40-9473-104c4b5ad29a","019a524e-1850-7fa4-8556-8a611a5fd0c9","","null","<div style=""display: flex; justify-content: center; align-items: center;"">
                     <img src=""images/causal/causal_series_9/causal_series_9_a.png"" style=""width: 300px; height: 300px;"" />
                   </div>","null","causal_a","",""
"","","","","","html-button-response","36","184840","0.0-10.0-1.0","794748C920364AB09ABC7F07DAE082C0","019a5261-ba24-7b40-9473-104c4b5ad29a","019a524e-1850-7fa4-8556-8a611a5fd0c9","","4575","
        <div style=""display: flex; justify-content: center; align-items: center;"">
          <img src=""images/blue_deck_1.png"" style=""width: 300px; height: 300px; margin-right: 10px;"" />
          <img src=""images/red_deck_2.png"" style=""width: 300px; height: 300px;"" />
        </div>","0","deck_choice","0",""
"","","","","","html-keyboard-response","37","190843","0.0-10.0-2.0-1.0-0.0","794748C920364AB09ABC7F07DAE082C0","019a5261-ba24-7b40-9473-104c4b5ad29a","019a524e-1850-7fa4-8556-8a611a5fd0c9","","null","<div style=""display: flex; justify-content: center; align-items: center;"">
                     <img src=""images/causal/causal_series_2/causal_series_2_b.png"" style=""width: 300px; height: 300px;"" />
                   </div>","null","causal_2_b","",""
"","","","","","html-keyboard-response","38","196845","0.0-10.0-2.0-1.0-1.0","794748C920364AB09ABC7F07DAE082C0","019a5261-ba24-7b40-9473-104c4b5ad29a","019a524e-1850-7fa4-8556-8a611a5fd0c9","","null","<div style=""display: flex; justify-content: center; align-items: center;"">
                     <img src=""images/causal/causal_series_6/causal_series_6_c.png"" style=""width: 300px; height: 300px;"" />
                   </div>","null","causal_6_c","",""
"","","","","","survey-likert","39","199190","0.0-10.0-3.0","794748C920364AB09ABC7F07DAE082C0","019a5261-ba24-7b40-9473-104c4b5ad29a","019a524e-1850-7fa4-8556-8a611a5fd0c9","","2344","","{""Q0"":4}","surprise_rating","","[0]"
"","","","","","survey-likert","40","201591","0.0-10.0-4.0","794748C920364AB09ABC7F07DAE082C0","019a5261-ba24-7b40-9473-104c4b5ad29a","019a524e-1850-7fa4-8556-8a611a5fd0c9","","2399","","{""Q0"":3}","enjoyment_rating","","[0]"
"","","","","","html-keyboard-response","41","208594","0.0-11.0-0.0","794748C920364AB09ABC7F07DAE082C0","019a5261-ba24-7b40-9473-104c4b5ad29a","019a524e-1850-7fa4-8556-8a611a5fd0c9","","null","<div style=""display: flex; justify-content: center; align-items: center;"">
                     <img src=""images/causal/causal_series_5/causal_series_5_a.png"" style=""width: 300px; height: 300px;"" />
                   </div>","null","causal_a","",""
"","","","","","html-button-response","42","209945","0.0-11.0-1.0","794748C920364AB09ABC7F07DAE082C0","019a5261-ba24-7b40-9473-104c4b5ad29a","019a524e-1850-7fa4-8556-8a611a5fd0c9","","1350","
        <div style=""display: flex; justify-content: center; align-items: center;"">
          <img src=""images/blue_deck_1.png"" style=""width: 300px; height: 300px; margin-right: 10px;"" />
          <img src=""images/red_deck_2.png"" style=""width: 300px; height: 300px;"" />
        </div>","0","deck_choice","0",""
"","","","","","html-keyboard-response","43","215948","0.0-11.0-2.0-1.0-0.0","794748C920364AB09ABC7F07DAE082C0","019a5261-ba24-7b40-9473-104c4b5ad29a","019a524e-1850-7fa4-8556-8a611a5fd0c9","","null","<div style=""display: flex; justify-content: center; align-items: center;"">
                     <img src=""images/causal/causal_series_9/causal_series_9_b.png"" style=""width: 300px; height: 300px;"" />
                   </div>","null","causal_9_b","",""
"","","","","","html-keyboard-response","44","221950","0.0-11.0-2.0-1.0-1.0","794748C920364AB09ABC7F07DAE082C0","019a5261-ba24-7b40-9473-104c4b5ad29a","019a524e-1850-7fa4-8556-8a611a5fd0c9","","null","<div style=""display: flex; justify-content: center; align-items: center;"">
                     <img src=""images/causal/causal_series_2/causal_series_2_b.png"" style=""width: 300px; height: 300px;"" />
                   </div>","null","causal_2_b","",""
"","","","","","survey-likert","45","223720","0.0-11.0-3.0","794748C920364AB09ABC7F07DAE082C0","019a5261-ba24-7b40-9473-104c4b5ad29a","019a524e-1850-7fa4-8556-8a611a5fd0c9","","1769","","{""Q0"":0}","surprise_rating","","[0]"
"","","","","","survey-likert","46","225346","0.0-11.0-4.0","794748C920364AB09ABC7F07DAE082C0","019a5261-ba24-7b40-9473-104c4b5ad29a","019a524e-1850-7fa4-8556-8a611a5fd0c9","","1624","","{""Q0"":0}","enjoyment_rating","","[0]"
"","","","","","html-keyboard-response","47","232349","0.0-12.0-0.0","794748C920364AB09ABC7F07DAE082C0","019a5261-ba24-7b40-9473-104c4b5ad29a","019a524e-1850-7fa4-8556-8a611a5fd0c9","","null","<div style=""display: flex; justify-content: center; align-items: center;"">
                     <img src=""images/causal/causal_series_6/causal_series_6_a.png"" style=""width: 300px; height: 300px;"" />
                   </div>","null","causal_a","",""
"","","","","","html-button-response","48","238128","0.0-12.0-1.0","794748C920364AB09ABC7F07DAE082C0","019a5261-ba24-7b40-9473-104c4b5ad29a","019a524e-1850-7fa4-8556-8a611a5fd0c9","","5777","
        <div style=""display: flex; justify-content: center; align-items: center;"">
          <img src=""images/blue_deck_1.png"" style=""width: 300px; height: 300px; margin-right: 10px;"" />
          <img src=""images/red_deck_2.png"" style=""width: 300px; height: 300px;"" />
        </div>","1","deck_choice","1",""
"","","","","","html-keyboard-response","49","245130","0.0-12.0-2.0-0.0-0.0","794748C920364AB09ABC7F07DAE082C0","019a5261-ba24-7b40-9473-104c4b5ad29a","019a524e-1850-7fa4-8556-8a611a5fd0c9","","null","<div style=""display: flex; justify-content: center; align-items: center;"">
                     <img src=""images/causal/causal_series_6/causal_series_6_b.png"" style=""width: 300px; height: 300px;"" />
                   </div>","null","causal_b","",""
"","","","","","html-keyboard-response","50","252131","0.0-12.0-2.0-0.0-1.0","794748C920364AB09ABC7F07DAE082C0","019a5261-ba24-7b40-9473-104c4b5ad29a","019a524e-1850-7fa4-8556-8a611a5fd0c9","","null","<div style=""display: flex; justify-content: center; align-items: center;"">
                     <img src=""images/causal/causal_series_6/causal_series_6_c.png"" style=""width: 300px; height: 300px;"" />
                   </div>","null","causal_c","",""
"","","","","","survey-likert","51","253999","0.0-12.0-3.0","794748C920364AB09ABC7F07DAE082C0","019a5261-ba24-7b40-9473-104c4b5ad29a","019a524e-1850-7fa4-8556-8a611a5fd0c9","","1867","","{""Q0"":0}","surprise_rating","","[0]"
"","","","","","survey-likert","52","255469","0.0-12.0-4.0","794748C920364AB09ABC7F07DAE082C0","019a5261-ba24-7b40-9473-104c4b5ad29a","019a524e-1850-7fa4-8556-8a611a5fd0c9","","1469","","{""Q0"":0}","enjoyment_rating","","[0]"
"","","","","","html-keyboard-response","53","262472","0.0-13.0-0.0","794748C920364AB09ABC7F07DAE082C0","019a5261-ba24-7b40-9473-104c4b5ad29a","019a524e-1850-7fa4-8556-8a611a5fd0c9","","null","<div style=""display: flex; justify-content: center; align-items: center;"">
                     <img src=""images/causal/causal_series_3/causal_series_3_a.png"" style=""width: 300px; height: 300px;"" />
                   </div>","null","causal_a","",""
"","","","","","html-button-response","54","266837","0.0-13.0-1.0","794748C920364AB09ABC7F07DAE082C0","019a5261-ba24-7b40-9473-104c4b5ad29a","019a524e-1850-7fa4-8556-8a611a5fd0c9","","4363","
        <div style=""display: flex; justify-content: center; align-items: center;"">
          <img src=""images/blue_deck_1.png"" style=""width: 300px; height: 300px; margin-right: 10px;"" />
          <img src=""images/red_deck_2.png"" style=""width: 300px; height: 300px;"" />
        </div>","1","deck_choice","1",""
"","","","","","html-keyboard-response","55","273838","0.0-13.0-2.0-0.0-0.0","794748C920364AB09ABC7F07DAE082C0","019a5261-ba24-7b40-9473-104c4b5ad29a","019a524e-1850-7fa4-8556-8a611a5fd0c9","","null","<div style=""display: flex; justify-content: center; align-items: center;"">
                     <img src=""images/causal/causal_series_3/causal_series_3_b.png"" style=""width: 300px; height: 300px;"" />
                   </div>","null","causal_b","",""
"","","","","","html-keyboard-response","56","280840","0.0-13.0-2.0-0.0-1.0","794748C920364AB09ABC7F07DAE082C0","019a5261-ba24-7b40-9473-104c4b5ad29a","019a524e-1850-7fa4-8556-8a611a5fd0c9","","null","<div style=""display: flex; justify-content: center; align-items: center;"">
                     <img src=""images/causal/causal_series_3/causal_series_3_c.png"" style=""width: 300px; height: 300px;"" />
                   </div>","null","causal_c","",""
"","","","","","survey-likert","57","283616","0.0-13.0-3.0","794748C920364AB09ABC7F07DAE082C0","019a5261-ba24-7b40-9473-104c4b5ad29a","019a524e-1850-7fa4-8556-8a611a5fd0c9","","2775","","{""Q0"":0}","surprise_rating","","[0]"
"","","","","","survey-likert","58","285987","0.0-13.0-4.0","794748C920364AB09ABC7F07DAE082C0","019a5261-ba24-7b40-9473-104c4b5ad29a","019a524e-1850-7fa4-8556-8a611a5fd0c9","","2369","","{""Q0"":0}","enjoyment_rating","","[0]"
"","","","","","html-keyboard-response","59","292990","0.0-14.0-0.0","794748C920364AB09ABC7F07DAE082C0","019a5261-ba24-7b40-9473-104c4b5ad29a","019a524e-1850-7fa4-8556-8a611a5fd0c9","","null","<div style=""display: flex; justify-content: center; align-items: center;"">
                     <img src=""images/causal/causal_series_4/causal_series_4_a.png"" style=""width: 300px; height: 300px;"" />
                   </div>","null","causal_a","",""
"","","","","","html-button-response","60","294366","0.0-14.0-1.0","794748C920364AB09ABC7F07DAE082C0","019a5261-ba24-7b40-9473-104c4b5ad29a","019a524e-1850-7fa4-8556-8a611a5fd0c9","","1375","
        <div style=""display: flex; justify-content: center; align-items: center;"">
          <img src=""images/blue_deck_1.png"" style=""width: 300px; height: 300px; margin-right: 10px;"" />
          <img src=""images/red_deck_2.png"" style=""width: 300px; height: 300px;"" />
        </div>","1","deck_choice","1",""
"","","","","","html-keyboard-response","61","301369","0.0-14.0-2.0-0.0-0.0","794748C920364AB09ABC7F07DAE082C0","019a5261-ba24-7b40-9473-104c4b5ad29a","019a524e-1850-7fa4-8556-8a611a5fd0c9","","null","<div style=""display: flex; justify-content: center; align-items: center;"">
                     <img src=""images/causal/causal_series_4/causal_series_4_b.png"" style=""width: 300px; height: 300px;"" />
                   </div>","null","causal_b","",""
"","","","","","html-keyboard-response","62","308372","0.0-14.0-2.0-0.0-1.0","794748C920364AB09ABC7F07DAE082C0","019a5261-ba24-7b40-9473-104c4b5ad29a","019a524e-1850-7fa4-8556-8a611a5fd0c9","","null","<div style=""display: flex; justify-content: center; align-items: center;"">
                     <img src=""images/causal/causal_series_4/causal_series_4_c.png"" style=""width: 300px; height: 300px;"" />
                   </div>","null","causal_c","",""
"","","","","","survey-likert","63","310178","0.0-14.0-3.0","794748C920364AB09ABC7F07DAE082C0","019a5261-ba24-7b40-9473-104c4b5ad29a","019a524e-1850-7fa4-8556-8a611a5fd0c9","","1804","","{""Q0"":0}","surprise_rating","","[0]"
"","","","","","survey-likert","64","312508","0.0-14.0-4.0","794748C920364AB09ABC7F07DAE082C0","019a5261-ba24-7b40-9473-104c4b5ad29a","019a524e-1850-7fa4-8556-8a611a5fd0c9","","2330","","{""Q0"":0}","enjoyment_rating","","[0]"
"","","","","","survey-text","65","356847","0.0-15.0","794748C920364AB09ABC7F07DAE082C0","019a5261-ba24-7b40-9473-104c4b5ad29a","019a524e-1850-7fa4-8556-8a611a5fd0c9","","44336","","{""Q0"":""They are basically the same thing between the two decks. One did mention the bombing in Japan and Germany being unified becoming powerful in Europe again.""}","","",""
"","","","","","html-button-response","66","362187","0.0-16.0","794748C920364AB09ABC7F07DAE082C0","019a5261-ba24-7b40-9473-104c4b5ad29a","019a524e-1850-7fa4-8556-8a611a5fd0c9","","5338","Which color deck showed facts that built on each other?","0","","",""
"","","","","","html-button-response","67","364016","0.0-17.0","794748C920364AB09ABC7F07DAE082C0","019a5261-ba24-7b40-9473-104c4b5ad29a","019a524e-1850-7fa4-8556-8a611a5fd0c9","","1828","Which color deck showed unrelated facts?","1","","",""
"","","","","","html-button-response","68","367963","0.0-18.0","794748C920364AB09ABC7F07DAE082C0","019a5261-ba24-7b40-9473-104c4b5ad29a","019a524e-1850-7fa4-8556-8a611a5fd0c9","","3945","Which type of deck did you prefer overall?","0","","",""
"","","","","","survey-text","69","373985","0.0-19.0","794748C920364AB09ABC7F07DAE082C0","019a5261-ba24-7b40-9473-104c4b5ad29a","019a524e-1850-7fa4-8556-8a611a5fd0c9","","6020","","{""Q0"":""Female"",""Q1"":""27""}","","",""
"","","","","","instructions","70","385292","0.0-20.0","794748C920364AB09ABC7F07DAE082C0","019a5261-ba24-7b40-9473-104c4b5ad29a","019a524e-1850-7fa4-8556-8a611a5fd0c9","[{""page_index"":0,""viewing_time"":11305}]","11306","","","","",""
