"success","timeout","failed_images","failed_audio","failed_video","trial_type","trial_index","time_elapsed","internal_node_id","subject_id","study_id","session_id","view_history","rt","stimulus","response","choice"
"true","false","[]","[]","[]","preload","0","7528","0.0-0.0","18FB6A772EAC454BB20B1A6B18E9C844","515d4cd0-f1be-4cdd-8922-4fd0db3578d1","61e1ec61-13c7-4a8f-bf47-a91ec9909364","","","","",""
"","","","","","instructions","1","11405","0.0-1.0","18FB6A772EAC454BB20B1A6B18E9C844","515d4cd0-f1be-4cdd-8922-4fd0db3578d1","61e1ec61-13c7-4a8f-bf47-a91ec9909364","[{""page_index"":0,""viewing_time"":3875}]","3876","","",""
"","","","","","instructions","2","213727","0.0-2.0","18FB6A772EAC454BB20B1A6B18E9C844","515d4cd0-f1be-4cdd-8922-4fd0db3578d1","61e1ec61-13c7-4a8f-bf47-a91ec9909364","[{""page_index"":0,""viewing_time"":202314}]","202323","","",""
"true","","","","","fullscreen","3","216218","0.0-3.0","18FB6A772EAC454BB20B1A6B18E9C844","515d4cd0-f1be-4cdd-8922-4fd0db3578d1","61e1ec61-13c7-4a8f-bf47-a91ec9909364","","1487","","",""
"","","","","","instructions","4","217995","0.0-4.0","18FB6A772EAC454BB20B1A6B18E9C844","515d4cd0-f1be-4cdd-8922-4fd0db3578d1","61e1ec61-13c7-4a8f-bf47-a91ec9909364","[{""page_index"":0,""viewing_time"":1776}]","1776","","",""
"","","","","","html-keyboard-response","5","220997","0.0-5.0","18FB6A772EAC454BB20B1A6B18E9C844","515d4cd0-f1be-4cdd-8922-4fd0db3578d1","61e1ec61-13c7-4a8f-bf47-a91ec9909364","","null","<div style=""display: flex; justify-content: center; align-items: center;"">
                <img src=""images/causal/causal_series_10/causal_series_10_a.jpg"" style=""width: 300px; height: 300px;"" />
              </div>","null",""
"","","","","","html-keyboard-response","6","223999","0.0-6.0","18FB6A772EAC454BB20B1A6B18E9C844","515d4cd0-f1be-4cdd-8922-4fd0db3578d1","61e1ec61-13c7-4a8f-bf47-a91ec9909364","","null","<div style=""display: flex; justify-content: center; align-items: center;"">
                <img src=""images/causal/causal_series_10/causal_series_10_b.jpg"" style=""width: 300px; height: 300px;"" />
              </div>","null",""
"","","","","","html-keyboard-response","7","227000","0.0-7.0","18FB6A772EAC454BB20B1A6B18E9C844","515d4cd0-f1be-4cdd-8922-4fd0db3578d1","61e1ec61-13c7-4a8f-bf47-a91ec9909364","","null","<div style=""display: flex; justify-content: center; align-items: center;"">
                <img src=""images/causal/causal_series_10/causal_series_10_c.jpg"" style=""width: 300px; height: 300px;"" />
              </div>","null",""
"","","","","","html-button-response","8","230851","0.0-8.0","18FB6A772EAC454BB20B1A6B18E9C844","515d4cd0-f1be-4cdd-8922-4fd0db3578d1","61e1ec61-13c7-4a8f-bf47-a91ec9909364","","3848","
    <div style=""display: flex; justify-content: center; align-items: center;"">
      <img src=""images/red_deck_2.png"" style=""width: 300px; height: 300px; margin-right: 10px;"" />
      <img src=""images/blue_deck_1.png"" style=""width: 300px; height: 300px;"" />
    </div>","0","0"
"","","","","","html-keyboard-response","9","233854","0.0-9.0-0.0-0.0","18FB6A772EAC454BB20B1A6B18E9C844","515d4cd0-f1be-4cdd-8922-4fd0db3578d1","61e1ec61-13c7-4a8f-bf47-a91ec9909364","","null","<div style=""display: flex; justify-content: center; align-items: center;"">
                <img src=""images/causal/causal_series_10/causal_series_10_d.jpg"" style=""width: 300px; height: 300px;"" />
              </div>","null",""
"","","","","","html-keyboard-response","10","236857","0.0-10.0","18FB6A772EAC454BB20B1A6B18E9C844","515d4cd0-f1be-4cdd-8922-4fd0db3578d1","61e1ec61-13c7-4a8f-bf47-a91ec9909364","","null","<div style=""display: flex; justify-content: center; align-items: center;"">
                <img src=""images/other/blank.jpg"" style=""width: 300px; height: 300px;"" />
              </div>","null",""
"","","","","","html-keyboard-response","11","239859","0.0-11.0","18FB6A772EAC454BB20B1A6B18E9C844","515d4cd0-f1be-4cdd-8922-4fd0db3578d1","61e1ec61-13c7-4a8f-bf47-a91ec9909364","","null","<div style=""display: flex; justify-content: center; align-items: center;"">
                <img src=""images/causal/causal_series_9/causal_series_9_a.jpg"" style=""width: 300px; height: 300px;"" />
              </div>","null",""
"","","","","","html-keyboard-response","12","242862","0.0-12.0","18FB6A772EAC454BB20B1A6B18E9C844","515d4cd0-f1be-4cdd-8922-4fd0db3578d1","61e1ec61-13c7-4a8f-bf47-a91ec9909364","","null","<div style=""display: flex; justify-content: center; align-items: center;"">
                <img src=""images/causal/causal_series_9/causal_series_9_b.jpg"" style=""width: 300px; height: 300px;"" />
              </div>","null",""
"","","","","","html-keyboard-response","13","245865","0.0-13.0","18FB6A772EAC454BB20B1A6B18E9C844","515d4cd0-f1be-4cdd-8922-4fd0db3578d1","61e1ec61-13c7-4a8f-bf47-a91ec9909364","","null","<div style=""display: flex; justify-content: center; align-items: center;"">
                <img src=""images/causal/causal_series_9/causal_series_9_c.jpg"" style=""width: 300px; height: 300px;"" />
              </div>","null",""
"","","","","","html-button-response","14","250450","0.0-14.0","18FB6A772EAC454BB20B1A6B18E9C844","515d4cd0-f1be-4cdd-8922-4fd0db3578d1","61e1ec61-13c7-4a8f-bf47-a91ec9909364","","4582","
    <div style=""display: flex; justify-content: center; align-items: center;"">
      <img src=""images/red_deck_2.png"" style=""width: 300px; height: 300px; margin-right: 10px;"" />
      <img src=""images/blue_deck_1.png"" style=""width: 300px; height: 300px;"" />
    </div>","1","1"
"","","","","","html-keyboard-response","15","253453","0.0-15.0-1.0-0.0","18FB6A772EAC454BB20B1A6B18E9C844","515d4cd0-f1be-4cdd-8922-4fd0db3578d1","61e1ec61-13c7-4a8f-bf47-a91ec9909364","","null","<div style=""display: flex; justify-content: center; align-items: center;"">
                <img src=""images/semantic/semantic_series_8/semantic_series_8_d.jpg"" style=""width: 300px; height: 300px;"" />
              </div>","null",""
"","","","","","html-keyboard-response","16","256455","0.0-16.0","18FB6A772EAC454BB20B1A6B18E9C844","515d4cd0-f1be-4cdd-8922-4fd0db3578d1","61e1ec61-13c7-4a8f-bf47-a91ec9909364","","null","<div style=""display: flex; justify-content: center; align-items: center;"">
                <img src=""images/other/blank.jpg"" style=""width: 300px; height: 300px;"" />
              </div>","null",""
"","","","","","html-keyboard-response","17","259458","0.0-17.0","18FB6A772EAC454BB20B1A6B18E9C844","515d4cd0-f1be-4cdd-8922-4fd0db3578d1","61e1ec61-13c7-4a8f-bf47-a91ec9909364","","null","<div style=""display: flex; justify-content: center; align-items: center;"">
                <img src=""images/causal/causal_series_15/causal_series_15_a.jpg"" style=""width: 300px; height: 300px;"" />
              </div>","null",""
"","","","","","html-keyboard-response","18","262461","0.0-18.0","18FB6A772EAC454BB20B1A6B18E9C844","515d4cd0-f1be-4cdd-8922-4fd0db3578d1","61e1ec61-13c7-4a8f-bf47-a91ec9909364","","null","<div style=""display: flex; justify-content: center; align-items: center;"">
                <img src=""images/causal/causal_series_15/causal_series_15_b.jpg"" style=""width: 300px; height: 300px;"" />
              </div>","null",""
"","","","","","html-keyboard-response","19","265463","0.0-19.0","18FB6A772EAC454BB20B1A6B18E9C844","515d4cd0-f1be-4cdd-8922-4fd0db3578d1","61e1ec61-13c7-4a8f-bf47-a91ec9909364","","null","<div style=""display: flex; justify-content: center; align-items: center;"">
                <img src=""images/causal/causal_series_15/causal_series_15_c.jpg"" style=""width: 300px; height: 300px;"" />
              </div>","null",""
"","","","","","html-button-response","20","268104","0.0-20.0","18FB6A772EAC454BB20B1A6B18E9C844","515d4cd0-f1be-4cdd-8922-4fd0db3578d1","61e1ec61-13c7-4a8f-bf47-a91ec9909364","","2638","
    <div style=""display: flex; justify-content: center; align-items: center;"">
      <img src=""images/red_deck_2.png"" style=""width: 300px; height: 300px; margin-right: 10px;"" />
      <img src=""images/blue_deck_1.png"" style=""width: 300px; height: 300px;"" />
    </div>","0","0"
"","","","","","html-keyboard-response","21","271106","0.0-21.0-0.0-0.0","18FB6A772EAC454BB20B1A6B18E9C844","515d4cd0-f1be-4cdd-8922-4fd0db3578d1","61e1ec61-13c7-4a8f-bf47-a91ec9909364","","null","<div style=""display: flex; justify-content: center; align-items: center;"">
                <img src=""images/causal/causal_series_15/causal_series_15_d.jpg"" style=""width: 300px; height: 300px;"" />
              </div>","null",""
"","","","","","html-keyboard-response","22","274109","0.0-22.0","18FB6A772EAC454BB20B1A6B18E9C844","515d4cd0-f1be-4cdd-8922-4fd0db3578d1","61e1ec61-13c7-4a8f-bf47-a91ec9909364","","null","<div style=""display: flex; justify-content: center; align-items: center;"">
                <img src=""images/other/blank.jpg"" style=""width: 300px; height: 300px;"" />
              </div>","null",""
"","","","","","html-keyboard-response","23","277112","0.0-23.0","18FB6A772EAC454BB20B1A6B18E9C844","515d4cd0-f1be-4cdd-8922-4fd0db3578d1","61e1ec61-13c7-4a8f-bf47-a91ec9909364","","null","<div style=""display: flex; justify-content: center; align-items: center;"">
                <img src=""images/causal/causal_series_14/causal_series_14_a.jpg"" style=""width: 300px; height: 300px;"" />
              </div>","null",""
"","","","","","html-keyboard-response","24","280115","0.0-24.0","18FB6A772EAC454BB20B1A6B18E9C844","515d4cd0-f1be-4cdd-8922-4fd0db3578d1","61e1ec61-13c7-4a8f-bf47-a91ec9909364","","null","<div style=""display: flex; justify-content: center; align-items: center;"">
                <img src=""images/causal/causal_series_14/causal_series_14_b.jpg"" style=""width: 300px; height: 300px;"" />
              </div>","null",""
"","","","","","html-keyboard-response","25","283118","0.0-25.0","18FB6A772EAC454BB20B1A6B18E9C844","515d4cd0-f1be-4cdd-8922-4fd0db3578d1","61e1ec61-13c7-4a8f-bf47-a91ec9909364","","null","<div style=""display: flex; justify-content: center; align-items: center;"">
                <img src=""images/causal/causal_series_14/causal_series_14_c.jpg"" style=""width: 300px; height: 300px;"" />
              </div>","null",""
"","","","","","html-button-response","26","285911","0.0-26.0","18FB6A772EAC454BB20B1A6B18E9C844","515d4cd0-f1be-4cdd-8922-4fd0db3578d1","61e1ec61-13c7-4a8f-bf47-a91ec9909364","","2790","
    <div style=""display: flex; justify-content: center; align-items: center;"">
      <img src=""images/red_deck_2.png"" style=""width: 300px; height: 300px; margin-right: 10px;"" />
      <img src=""images/blue_deck_1.png"" style=""width: 300px; height: 300px;"" />
    </div>","0","0"
"","","","","","html-keyboard-response","27","288914","0.0-27.0-0.0-0.0","18FB6A772EAC454BB20B1A6B18E9C844","515d4cd0-f1be-4cdd-8922-4fd0db3578d1","61e1ec61-13c7-4a8f-bf47-a91ec9909364","","null","<div style=""display: flex; justify-content: center; align-items: center;"">
                <img src=""images/causal/causal_series_14/causal_series_14_d.jpg"" style=""width: 300px; height: 300px;"" />
              </div>","null",""
"","","","","","html-keyboard-response","28","291917","0.0-28.0","18FB6A772EAC454BB20B1A6B18E9C844","515d4cd0-f1be-4cdd-8922-4fd0db3578d1","61e1ec61-13c7-4a8f-bf47-a91ec9909364","","null","<div style=""display: flex; justify-content: center; align-items: center;"">
                <img src=""images/other/blank.jpg"" style=""width: 300px; height: 300px;"" />
              </div>","null",""
"","","","","","html-keyboard-response","29","294920","0.0-29.0","18FB6A772EAC454BB20B1A6B18E9C844","515d4cd0-f1be-4cdd-8922-4fd0db3578d1","61e1ec61-13c7-4a8f-bf47-a91ec9909364","","null","<div style=""display: flex; justify-content: center; align-items: center;"">
                <img src=""images/causal/causal_series_12/causal_series_12_a.jpg"" style=""width: 300px; height: 300px;"" />
              </div>","null",""
"","","","","","html-keyboard-response","30","297922","0.0-30.0","18FB6A772EAC454BB20B1A6B18E9C844","515d4cd0-f1be-4cdd-8922-4fd0db3578d1","61e1ec61-13c7-4a8f-bf47-a91ec9909364","","null","<div style=""display: flex; justify-content: center; align-items: center;"">
                <img src=""images/causal/causal_series_12/causal_series_12_b.jpg"" style=""width: 300px; height: 300px;"" />
              </div>","null",""
"","","","","","html-keyboard-response","31","300925","0.0-31.0","18FB6A772EAC454BB20B1A6B18E9C844","515d4cd0-f1be-4cdd-8922-4fd0db3578d1","61e1ec61-13c7-4a8f-bf47-a91ec9909364","","null","<div style=""display: flex; justify-content: center; align-items: center;"">
                <img src=""images/causal/causal_series_12/causal_series_12_c.jpg"" style=""width: 300px; height: 300px;"" />
              </div>","null",""
"","","","","","html-button-response","32","301796","0.0-32.0","18FB6A772EAC454BB20B1A6B18E9C844","515d4cd0-f1be-4cdd-8922-4fd0db3578d1","61e1ec61-13c7-4a8f-bf47-a91ec9909364","","869","
    <div style=""display: flex; justify-content: center; align-items: center;"">
      <img src=""images/red_deck_2.png"" style=""width: 300px; height: 300px; margin-right: 10px;"" />
      <img src=""images/blue_deck_1.png"" style=""width: 300px; height: 300px;"" />
    </div>","1","1"
"","","","","","html-keyboard-response","33","304799","0.0-33.0-1.0-0.0","18FB6A772EAC454BB20B1A6B18E9C844","515d4cd0-f1be-4cdd-8922-4fd0db3578d1","61e1ec61-13c7-4a8f-bf47-a91ec9909364","","null","<div style=""display: flex; justify-content: center; align-items: center;"">
                <img src=""images/semantic/semantic_series_11/semantic_series_11_d.jpg"" style=""width: 300px; height: 300px;"" />
              </div>","null",""
"","","","","","html-keyboard-response","34","307802","0.0-34.0","18FB6A772EAC454BB20B1A6B18E9C844","515d4cd0-f1be-4cdd-8922-4fd0db3578d1","61e1ec61-13c7-4a8f-bf47-a91ec9909364","","null","<div style=""display: flex; justify-content: center; align-items: center;"">
                <img src=""images/other/blank.jpg"" style=""width: 300px; height: 300px;"" />
              </div>","null",""
"","","","","","html-keyboard-response","35","310805","0.0-35.0","18FB6A772EAC454BB20B1A6B18E9C844","515d4cd0-f1be-4cdd-8922-4fd0db3578d1","61e1ec61-13c7-4a8f-bf47-a91ec9909364","","null","<div style=""display: flex; justify-content: center; align-items: center;"">
                <img src=""images/causal/causal_series_7/causal_series_7_a.jpg"" style=""width: 300px; height: 300px;"" />
              </div>","null",""
"","","","","","html-keyboard-response","36","313807","0.0-36.0","18FB6A772EAC454BB20B1A6B18E9C844","515d4cd0-f1be-4cdd-8922-4fd0db3578d1","61e1ec61-13c7-4a8f-bf47-a91ec9909364","","null","<div style=""display: flex; justify-content: center; align-items: center;"">
                <img src=""images/causal/causal_series_7/causal_series_7_b.jpg"" style=""width: 300px; height: 300px;"" />
              </div>","null",""
"","","","","","html-keyboard-response","37","316810","0.0-37.0","18FB6A772EAC454BB20B1A6B18E9C844","515d4cd0-f1be-4cdd-8922-4fd0db3578d1","61e1ec61-13c7-4a8f-bf47-a91ec9909364","","null","<div style=""display: flex; justify-content: center; align-items: center;"">
                <img src=""images/causal/causal_series_7/causal_series_7_c.jpg"" style=""width: 300px; height: 300px;"" />
              </div>","null",""
"","","","","","html-button-response","38","318377","0.0-38.0","18FB6A772EAC454BB20B1A6B18E9C844","515d4cd0-f1be-4cdd-8922-4fd0db3578d1","61e1ec61-13c7-4a8f-bf47-a91ec9909364","","1565","
    <div style=""display: flex; justify-content: center; align-items: center;"">
      <img src=""images/red_deck_2.png"" style=""width: 300px; height: 300px; margin-right: 10px;"" />
      <img src=""images/blue_deck_1.png"" style=""width: 300px; height: 300px;"" />
    </div>","1","1"
"","","","","","html-keyboard-response","39","321380","0.0-39.0-1.0-0.0","18FB6A772EAC454BB20B1A6B18E9C844","515d4cd0-f1be-4cdd-8922-4fd0db3578d1","61e1ec61-13c7-4a8f-bf47-a91ec9909364","","null","<div style=""display: flex; justify-content: center; align-items: center;"">
                <img src=""images/semantic/semantic_series_6/semantic_series_6_d.jpg"" style=""width: 300px; height: 300px;"" />
              </div>","null",""
"","","","","","html-keyboard-response","40","324383","0.0-40.0","18FB6A772EAC454BB20B1A6B18E9C844","515d4cd0-f1be-4cdd-8922-4fd0db3578d1","61e1ec61-13c7-4a8f-bf47-a91ec9909364","","null","<div style=""display: flex; justify-content: center; align-items: center;"">
                <img src=""images/other/blank.jpg"" style=""width: 300px; height: 300px;"" />
              </div>","null",""
"","","","","","html-keyboard-response","41","327385","0.0-41.0","18FB6A772EAC454BB20B1A6B18E9C844","515d4cd0-f1be-4cdd-8922-4fd0db3578d1","61e1ec61-13c7-4a8f-bf47-a91ec9909364","","null","<div style=""display: flex; justify-content: center; align-items: center;"">
                <img src=""images/causal/causal_series_5/causal_series_5_a.jpg"" style=""width: 300px; height: 300px;"" />
              </div>","null",""
"","","","","","html-keyboard-response","42","330388","0.0-42.0","18FB6A772EAC454BB20B1A6B18E9C844","515d4cd0-f1be-4cdd-8922-4fd0db3578d1","61e1ec61-13c7-4a8f-bf47-a91ec9909364","","null","<div style=""display: flex; justify-content: center; align-items: center;"">
                <img src=""images/causal/causal_series_5/causal_series_5_b.jpg"" style=""width: 300px; height: 300px;"" />
              </div>","null",""
"","","","","","html-keyboard-response","43","333391","0.0-43.0","18FB6A772EAC454BB20B1A6B18E9C844","515d4cd0-f1be-4cdd-8922-4fd0db3578d1","61e1ec61-13c7-4a8f-bf47-a91ec9909364","","null","<div style=""display: flex; justify-content: center; align-items: center;"">
                <img src=""images/causal/causal_series_5/causal_series_5_c.jpg"" style=""width: 300px; height: 300px;"" />
              </div>","null",""
"","","","","","html-button-response","44","334439","0.0-44.0","18FB6A772EAC454BB20B1A6B18E9C844","515d4cd0-f1be-4cdd-8922-4fd0db3578d1","61e1ec61-13c7-4a8f-bf47-a91ec9909364","","1046","
    <div style=""display: flex; justify-content: center; align-items: center;"">
      <img src=""images/red_deck_2.png"" style=""width: 300px; height: 300px; margin-right: 10px;"" />
      <img src=""images/blue_deck_1.png"" style=""width: 300px; height: 300px;"" />
    </div>","1","1"
"","","","","","html-keyboard-response","45","337441","0.0-45.0-1.0-0.0","18FB6A772EAC454BB20B1A6B18E9C844","515d4cd0-f1be-4cdd-8922-4fd0db3578d1","61e1ec61-13c7-4a8f-bf47-a91ec9909364","","null","<div style=""display: flex; justify-content: center; align-items: center;"">
                <img src=""images/semantic/semantic_series_4/semantic_series_4_d.jpg"" style=""width: 300px; height: 300px;"" />
              </div>","null",""
"","","","","","html-keyboard-response","46","340443","0.0-46.0","18FB6A772EAC454BB20B1A6B18E9C844","515d4cd0-f1be-4cdd-8922-4fd0db3578d1","61e1ec61-13c7-4a8f-bf47-a91ec9909364","","null","<div style=""display: flex; justify-content: center; align-items: center;"">
                <img src=""images/other/blank.jpg"" style=""width: 300px; height: 300px;"" />
              </div>","null",""
"","","","","","html-keyboard-response","47","343445","0.0-47.0","18FB6A772EAC454BB20B1A6B18E9C844","515d4cd0-f1be-4cdd-8922-4fd0db3578d1","61e1ec61-13c7-4a8f-bf47-a91ec9909364","","null","<div style=""display: flex; justify-content: center; align-items: center;"">
                <img src=""images/causal/causal_series_11/causal_series_11_a.jpg"" style=""width: 300px; height: 300px;"" />
              </div>","null",""
"","","","","","html-keyboard-response","48","346448","0.0-48.0","18FB6A772EAC454BB20B1A6B18E9C844","515d4cd0-f1be-4cdd-8922-4fd0db3578d1","61e1ec61-13c7-4a8f-bf47-a91ec9909364","","null","<div style=""display: flex; justify-content: center; align-items: center;"">
                <img src=""images/causal/causal_series_11/causal_series_11_b.jpg"" style=""width: 300px; height: 300px;"" />
              </div>","null",""
"","","","","","html-keyboard-response","49","349449","0.0-49.0","18FB6A772EAC454BB20B1A6B18E9C844","515d4cd0-f1be-4cdd-8922-4fd0db3578d1","61e1ec61-13c7-4a8f-bf47-a91ec9909364","","null","<div style=""display: flex; justify-content: center; align-items: center;"">
                <img src=""images/causal/causal_series_11/causal_series_11_c.jpg"" style=""width: 300px; height: 300px;"" />
              </div>","null",""
"","","","","","html-button-response","50","358861","0.0-50.0","18FB6A772EAC454BB20B1A6B18E9C844","515d4cd0-f1be-4cdd-8922-4fd0db3578d1","61e1ec61-13c7-4a8f-bf47-a91ec9909364","","9409","
    <div style=""display: flex; justify-content: center; align-items: center;"">
      <img src=""images/red_deck_2.png"" style=""width: 300px; height: 300px; margin-right: 10px;"" />
      <img src=""images/blue_deck_1.png"" style=""width: 300px; height: 300px;"" />
    </div>","0","0"
"","","","","","html-keyboard-response","51","361865","0.0-51.0-0.0-0.0","18FB6A772EAC454BB20B1A6B18E9C844","515d4cd0-f1be-4cdd-8922-4fd0db3578d1","61e1ec61-13c7-4a8f-bf47-a91ec9909364","","null","<div style=""display: flex; justify-content: center; align-items: center;"">
                <img src=""images/causal/causal_series_11/causal_series_11_d.jpg"" style=""width: 300px; height: 300px;"" />
              </div>","null",""
"","","","","","html-keyboard-response","52","364868","0.0-52.0","18FB6A772EAC454BB20B1A6B18E9C844","515d4cd0-f1be-4cdd-8922-4fd0db3578d1","61e1ec61-13c7-4a8f-bf47-a91ec9909364","","null","<div style=""display: flex; justify-content: center; align-items: center;"">
                <img src=""images/other/blank.jpg"" style=""width: 300px; height: 300px;"" />
              </div>","null",""
"","","","","","html-keyboard-response","53","367871","0.0-53.0","18FB6A772EAC454BB20B1A6B18E9C844","515d4cd0-f1be-4cdd-8922-4fd0db3578d1","61e1ec61-13c7-4a8f-bf47-a91ec9909364","","null","<div style=""display: flex; justify-content: center; align-items: center;"">
                <img src=""images/causal/causal_series_13/causal_series_13_a.jpg"" style=""width: 300px; height: 300px;"" />
              </div>","null",""
"","","","","","html-keyboard-response","54","370874","0.0-54.0","18FB6A772EAC454BB20B1A6B18E9C844","515d4cd0-f1be-4cdd-8922-4fd0db3578d1","61e1ec61-13c7-4a8f-bf47-a91ec9909364","","null","<div style=""display: flex; justify-content: center; align-items: center;"">
                <img src=""images/causal/causal_series_13/causal_series_13_b.jpg"" style=""width: 300px; height: 300px;"" />
              </div>","null",""
"","","","","","html-keyboard-response","55","373876","0.0-55.0","18FB6A772EAC454BB20B1A6B18E9C844","515d4cd0-f1be-4cdd-8922-4fd0db3578d1","61e1ec61-13c7-4a8f-bf47-a91ec9909364","","null","<div style=""display: flex; justify-content: center; align-items: center;"">
                <img src=""images/causal/causal_series_13/causal_series_13_c.jpg"" style=""width: 300px; height: 300px;"" />
              </div>","null",""
"","","","","","html-button-response","56","375689","0.0-56.0","18FB6A772EAC454BB20B1A6B18E9C844","515d4cd0-f1be-4cdd-8922-4fd0db3578d1","61e1ec61-13c7-4a8f-bf47-a91ec9909364","","1811","
    <div style=""display: flex; justify-content: center; align-items: center;"">
      <img src=""images/red_deck_2.png"" style=""width: 300px; height: 300px; margin-right: 10px;"" />
      <img src=""images/blue_deck_1.png"" style=""width: 300px; height: 300px;"" />
    </div>","1","1"
"","","","","","html-keyboard-response","57","378691","0.0-57.0-1.0-0.0","18FB6A772EAC454BB20B1A6B18E9C844","515d4cd0-f1be-4cdd-8922-4fd0db3578d1","61e1ec61-13c7-4a8f-bf47-a91ec9909364","","null","<div style=""display: flex; justify-content: center; align-items: center;"">
                <img src=""images/semantic/semantic_series_12/semantic_series_12_d.jpg"" style=""width: 300px; height: 300px;"" />
              </div>","null",""
"","","","","","html-keyboard-response","58","381694","0.0-58.0","18FB6A772EAC454BB20B1A6B18E9C844","515d4cd0-f1be-4cdd-8922-4fd0db3578d1","61e1ec61-13c7-4a8f-bf47-a91ec9909364","","null","<div style=""display: flex; justify-content: center; align-items: center;"">
                <img src=""images/other/blank.jpg"" style=""width: 300px; height: 300px;"" />
              </div>","null",""
"","","","","","html-keyboard-response","59","384697","0.0-59.0","18FB6A772EAC454BB20B1A6B18E9C844","515d4cd0-f1be-4cdd-8922-4fd0db3578d1","61e1ec61-13c7-4a8f-bf47-a91ec9909364","","null","<div style=""display: flex; justify-content: center; align-items: center;"">
                <img src=""images/causal/causal_series_3/causal_series_3_a.jpg"" style=""width: 300px; height: 300px;"" />
              </div>","null",""
"","","","","","html-keyboard-response","60","387700","0.0-60.0","18FB6A772EAC454BB20B1A6B18E9C844","515d4cd0-f1be-4cdd-8922-4fd0db3578d1","61e1ec61-13c7-4a8f-bf47-a91ec9909364","","null","<div style=""display: flex; justify-content: center; align-items: center;"">
                <img src=""images/causal/causal_series_3/causal_series_3_b.jpg"" style=""width: 300px; height: 300px;"" />
              </div>","null",""
"","","","","","html-keyboard-response","61","390702","0.0-61.0","18FB6A772EAC454BB20B1A6B18E9C844","515d4cd0-f1be-4cdd-8922-4fd0db3578d1","61e1ec61-13c7-4a8f-bf47-a91ec9909364","","null","<div style=""display: flex; justify-content: center; align-items: center;"">
                <img src=""images/causal/causal_series_3/causal_series_3_c.jpg"" style=""width: 300px; height: 300px;"" />
              </div>","null",""
"","","","","","html-button-response","62","392211","0.0-62.0","18FB6A772EAC454BB20B1A6B18E9C844","515d4cd0-f1be-4cdd-8922-4fd0db3578d1","61e1ec61-13c7-4a8f-bf47-a91ec9909364","","1506","
    <div style=""display: flex; justify-content: center; align-items: center;"">
      <img src=""images/red_deck_2.png"" style=""width: 300px; height: 300px; margin-right: 10px;"" />
      <img src=""images/blue_deck_1.png"" style=""width: 300px; height: 300px;"" />
    </div>","1","1"
"","","","","","html-keyboard-response","63","395213","0.0-63.0-1.0-0.0","18FB6A772EAC454BB20B1A6B18E9C844","515d4cd0-f1be-4cdd-8922-4fd0db3578d1","61e1ec61-13c7-4a8f-bf47-a91ec9909364","","null","<div style=""display: flex; justify-content: center; align-items: center;"">
                <img src=""images/semantic/semantic_series_2/semantic_series_2_d.jpg"" style=""width: 300px; height: 300px;"" />
              </div>","null",""
"","","","","","html-keyboard-response","64","398216","0.0-64.0","18FB6A772EAC454BB20B1A6B18E9C844","515d4cd0-f1be-4cdd-8922-4fd0db3578d1","61e1ec61-13c7-4a8f-bf47-a91ec9909364","","null","<div style=""display: flex; justify-content: center; align-items: center;"">
                <img src=""images/other/blank.jpg"" style=""width: 300px; height: 300px;"" />
              </div>","null",""
"","","","","","html-keyboard-response","65","401218","0.0-65.0","18FB6A772EAC454BB20B1A6B18E9C844","515d4cd0-f1be-4cdd-8922-4fd0db3578d1","61e1ec61-13c7-4a8f-bf47-a91ec9909364","","null","<div style=""display: flex; justify-content: center; align-items: center;"">
                <img src=""images/causal/causal_series_17/causal_series_17_a.jpg"" style=""width: 300px; height: 300px;"" />
              </div>","null",""
"","","","","","html-keyboard-response","66","404221","0.0-66.0","18FB6A772EAC454BB20B1A6B18E9C844","515d4cd0-f1be-4cdd-8922-4fd0db3578d1","61e1ec61-13c7-4a8f-bf47-a91ec9909364","","null","<div style=""display: flex; justify-content: center; align-items: center;"">
                <img src=""images/causal/causal_series_17/causal_series_17_b.jpg"" style=""width: 300px; height: 300px;"" />
              </div>","null",""
"","","","","","html-keyboard-response","67","407224","0.0-67.0","18FB6A772EAC454BB20B1A6B18E9C844","515d4cd0-f1be-4cdd-8922-4fd0db3578d1","61e1ec61-13c7-4a8f-bf47-a91ec9909364","","null","<div style=""display: flex; justify-content: center; align-items: center;"">
                <img src=""images/causal/causal_series_17/causal_series_17_c.jpg"" style=""width: 300px; height: 300px;"" />
              </div>","null",""
"","","","","","html-button-response","68","408511","0.0-68.0","18FB6A772EAC454BB20B1A6B18E9C844","515d4cd0-f1be-4cdd-8922-4fd0db3578d1","61e1ec61-13c7-4a8f-bf47-a91ec9909364","","1283","
    <div style=""display: flex; justify-content: center; align-items: center;"">
      <img src=""images/red_deck_2.png"" style=""width: 300px; height: 300px; margin-right: 10px;"" />
      <img src=""images/blue_deck_1.png"" style=""width: 300px; height: 300px;"" />
    </div>","0","0"
"","","","","","html-keyboard-response","69","411515","0.0-69.0-0.0-0.0","18FB6A772EAC454BB20B1A6B18E9C844","515d4cd0-f1be-4cdd-8922-4fd0db3578d1","61e1ec61-13c7-4a8f-bf47-a91ec9909364","","null","<div style=""display: flex; justify-content: center; align-items: center;"">
                <img src=""images/causal/causal_series_17/causal_series_17_d.jpg"" style=""width: 300px; height: 300px;"" />
              </div>","null",""
"","","","","","html-keyboard-response","70","414518","0.0-70.0","18FB6A772EAC454BB20B1A6B18E9C844","515d4cd0-f1be-4cdd-8922-4fd0db3578d1","61e1ec61-13c7-4a8f-bf47-a91ec9909364","","null","<div style=""display: flex; justify-content: center; align-items: center;"">
                <img src=""images/other/blank.jpg"" style=""width: 300px; height: 300px;"" />
              </div>","null",""
"","","","","","html-keyboard-response","71","417521","0.0-71.0","18FB6A772EAC454BB20B1A6B18E9C844","515d4cd0-f1be-4cdd-8922-4fd0db3578d1","61e1ec61-13c7-4a8f-bf47-a91ec9909364","","null","<div style=""display: flex; justify-content: center; align-items: center;"">
                <img src=""images/causal/causal_series_8/causal_series_8_a.jpg"" style=""width: 300px; height: 300px;"" />
              </div>","null",""
"","","","","","html-keyboard-response","72","420523","0.0-72.0","18FB6A772EAC454BB20B1A6B18E9C844","515d4cd0-f1be-4cdd-8922-4fd0db3578d1","61e1ec61-13c7-4a8f-bf47-a91ec9909364","","null","<div style=""display: flex; justify-content: center; align-items: center;"">
                <img src=""images/causal/causal_series_8/causal_series_8_b.jpg"" style=""width: 300px; height: 300px;"" />
              </div>","null",""
"","","","","","html-keyboard-response","73","423526","0.0-73.0","18FB6A772EAC454BB20B1A6B18E9C844","515d4cd0-f1be-4cdd-8922-4fd0db3578d1","61e1ec61-13c7-4a8f-bf47-a91ec9909364","","null","<div style=""display: flex; justify-content: center; align-items: center;"">
                <img src=""images/causal/causal_series_8/causal_series_8_c.jpg"" style=""width: 300px; height: 300px;"" />
              </div>","null",""
"","","","","","html-button-response","74","424437","0.0-74.0","18FB6A772EAC454BB20B1A6B18E9C844","515d4cd0-f1be-4cdd-8922-4fd0db3578d1","61e1ec61-13c7-4a8f-bf47-a91ec9909364","","908","
    <div style=""display: flex; justify-content: center; align-items: center;"">
      <img src=""images/red_deck_2.png"" style=""width: 300px; height: 300px; margin-right: 10px;"" />
      <img src=""images/blue_deck_1.png"" style=""width: 300px; height: 300px;"" />
    </div>","0","0"
"","","","","","html-keyboard-response","75","427440","0.0-75.0-0.0-0.0","18FB6A772EAC454BB20B1A6B18E9C844","515d4cd0-f1be-4cdd-8922-4fd0db3578d1","61e1ec61-13c7-4a8f-bf47-a91ec9909364","","null","<div style=""display: flex; justify-content: center; align-items: center;"">
                <img src=""images/causal/causal_series_8/causal_series_8_d.jpg"" style=""width: 300px; height: 300px;"" />
              </div>","null",""
"","","","","","html-keyboard-response","76","430442","0.0-76.0","18FB6A772EAC454BB20B1A6B18E9C844","515d4cd0-f1be-4cdd-8922-4fd0db3578d1","61e1ec61-13c7-4a8f-bf47-a91ec9909364","","null","<div style=""display: flex; justify-content: center; align-items: center;"">
                <img src=""images/other/blank.jpg"" style=""width: 300px; height: 300px;"" />
              </div>","null",""
"","","","","","html-keyboard-response","77","433446","0.0-77.0","18FB6A772EAC454BB20B1A6B18E9C844","515d4cd0-f1be-4cdd-8922-4fd0db3578d1","61e1ec61-13c7-4a8f-bf47-a91ec9909364","","null","<div style=""display: flex; justify-content: center; align-items: center;"">
                <img src=""images/causal/causal_series_1/causal_series_1_a.jpg"" style=""width: 300px; height: 300px;"" />
              </div>","null",""
"","","","","","html-keyboard-response","78","436448","0.0-78.0","18FB6A772EAC454BB20B1A6B18E9C844","515d4cd0-f1be-4cdd-8922-4fd0db3578d1","61e1ec61-13c7-4a8f-bf47-a91ec9909364","","null","<div style=""display: flex; justify-content: center; align-items: center;"">
                <img src=""images/causal/causal_series_1/causal_series_1_b.jpg"" style=""width: 300px; height: 300px;"" />
              </div>","null",""
"","","","","","html-keyboard-response","79","439450","0.0-79.0","18FB6A772EAC454BB20B1A6B18E9C844","515d4cd0-f1be-4cdd-8922-4fd0db3578d1","61e1ec61-13c7-4a8f-bf47-a91ec9909364","","null","<div style=""display: flex; justify-content: center; align-items: center;"">
                <img src=""images/causal/causal_series_1/causal_series_1_c.jpg"" style=""width: 300px; height: 300px;"" />
              </div>","null",""
"","","","","","html-button-response","80","444686","0.0-80.0","18FB6A772EAC454BB20B1A6B18E9C844","515d4cd0-f1be-4cdd-8922-4fd0db3578d1","61e1ec61-13c7-4a8f-bf47-a91ec9909364","","5233","
    <div style=""display: flex; justify-content: center; align-items: center;"">
      <img src=""images/red_deck_2.png"" style=""width: 300px; height: 300px; margin-right: 10px;"" />
      <img src=""images/blue_deck_1.png"" style=""width: 300px; height: 300px;"" />
    </div>","1","1"
"","","","","","html-keyboard-response","81","447689","0.0-81.0-1.0-0.0","18FB6A772EAC454BB20B1A6B18E9C844","515d4cd0-f1be-4cdd-8922-4fd0db3578d1","61e1ec61-13c7-4a8f-bf47-a91ec9909364","","null","<div style=""display: flex; justify-content: center; align-items: center;"">
                <img src=""images/semantic/semantic_series_18/semantic_series_18_d.jpg"" style=""width: 300px; height: 300px;"" />
              </div>","null",""
"","","","","","html-keyboard-response","82","450692","0.0-82.0","18FB6A772EAC454BB20B1A6B18E9C844","515d4cd0-f1be-4cdd-8922-4fd0db3578d1","61e1ec61-13c7-4a8f-bf47-a91ec9909364","","null","<div style=""display: flex; justify-content: center; align-items: center;"">
                <img src=""images/other/blank.jpg"" style=""width: 300px; height: 300px;"" />
              </div>","null",""
"","","","","","html-keyboard-response","83","453695","0.0-83.0","18FB6A772EAC454BB20B1A6B18E9C844","515d4cd0-f1be-4cdd-8922-4fd0db3578d1","61e1ec61-13c7-4a8f-bf47-a91ec9909364","","null","<div style=""display: flex; justify-content: center; align-items: center;"">
                <img src=""images/causal/causal_series_4/causal_series_4_a.jpg"" style=""width: 300px; height: 300px;"" />
              </div>","null",""
"","","","","","html-keyboard-response","84","456698","0.0-84.0","18FB6A772EAC454BB20B1A6B18E9C844","515d4cd0-f1be-4cdd-8922-4fd0db3578d1","61e1ec61-13c7-4a8f-bf47-a91ec9909364","","null","<div style=""display: flex; justify-content: center; align-items: center;"">
                <img src=""images/causal/causal_series_4/causal_series_4_b.jpg"" style=""width: 300px; height: 300px;"" />
              </div>","null",""
"","","","","","html-keyboard-response","85","459701","0.0-85.0","18FB6A772EAC454BB20B1A6B18E9C844","515d4cd0-f1be-4cdd-8922-4fd0db3578d1","61e1ec61-13c7-4a8f-bf47-a91ec9909364","","null","<div style=""display: flex; justify-content: center; align-items: center;"">
                <img src=""images/causal/causal_series_4/causal_series_4_c.jpg"" style=""width: 300px; height: 300px;"" />
              </div>","null",""
"","","","","","html-button-response","86","460789","0.0-86.0","18FB6A772EAC454BB20B1A6B18E9C844","515d4cd0-f1be-4cdd-8922-4fd0db3578d1","61e1ec61-13c7-4a8f-bf47-a91ec9909364","","1085","
    <div style=""display: flex; justify-content: center; align-items: center;"">
      <img src=""images/red_deck_2.png"" style=""width: 300px; height: 300px; margin-right: 10px;"" />
      <img src=""images/blue_deck_1.png"" style=""width: 300px; height: 300px;"" />
    </div>","0","0"
"","","","","","html-keyboard-response","87","463792","0.0-87.0-0.0-0.0","18FB6A772EAC454BB20B1A6B18E9C844","515d4cd0-f1be-4cdd-8922-4fd0db3578d1","61e1ec61-13c7-4a8f-bf47-a91ec9909364","","null","<div style=""display: flex; justify-content: center; align-items: center;"">
                <img src=""images/causal/causal_series_4/causal_series_4_d.jpg"" style=""width: 300px; height: 300px;"" />
              </div>","null",""
"","","","","","html-keyboard-response","88","466795","0.0-88.0","18FB6A772EAC454BB20B1A6B18E9C844","515d4cd0-f1be-4cdd-8922-4fd0db3578d1","61e1ec61-13c7-4a8f-bf47-a91ec9909364","","null","<div style=""display: flex; justify-content: center; align-items: center;"">
                <img src=""images/other/blank.jpg"" style=""width: 300px; height: 300px;"" />
              </div>","null",""
"","","","","","html-keyboard-response","89","469798","0.0-89.0","18FB6A772EAC454BB20B1A6B18E9C844","515d4cd0-f1be-4cdd-8922-4fd0db3578d1","61e1ec61-13c7-4a8f-bf47-a91ec9909364","","null","<div style=""display: flex; justify-content: center; align-items: center;"">
                <img src=""images/causal/causal_series_16/causal_series_16_a.jpg"" style=""width: 300px; height: 300px;"" />
              </div>","null",""
"","","","","","html-keyboard-response","90","472801","0.0-90.0","18FB6A772EAC454BB20B1A6B18E9C844","515d4cd0-f1be-4cdd-8922-4fd0db3578d1","61e1ec61-13c7-4a8f-bf47-a91ec9909364","","null","<div style=""display: flex; justify-content: center; align-items: center;"">
                <img src=""images/causal/causal_series_16/causal_series_16_b.jpg"" style=""width: 300px; height: 300px;"" />
              </div>","null",""
"","","","","","html-keyboard-response","91","475805","0.0-91.0","18FB6A772EAC454BB20B1A6B18E9C844","515d4cd0-f1be-4cdd-8922-4fd0db3578d1","61e1ec61-13c7-4a8f-bf47-a91ec9909364","","null","<div style=""display: flex; justify-content: center; align-items: center;"">
                <img src=""images/causal/causal_series_16/causal_series_16_c.jpg"" style=""width: 300px; height: 300px;"" />
              </div>","null",""
"","","","","","html-button-response","92","477210","0.0-92.0","18FB6A772EAC454BB20B1A6B18E9C844","515d4cd0-f1be-4cdd-8922-4fd0db3578d1","61e1ec61-13c7-4a8f-bf47-a91ec9909364","","1402","
    <div style=""display: flex; justify-content: center; align-items: center;"">
      <img src=""images/red_deck_2.png"" style=""width: 300px; height: 300px; margin-right: 10px;"" />
      <img src=""images/blue_deck_1.png"" style=""width: 300px; height: 300px;"" />
    </div>","1","1"
"","","","","","html-keyboard-response","93","480212","0.0-93.0-1.0-0.0","18FB6A772EAC454BB20B1A6B18E9C844","515d4cd0-f1be-4cdd-8922-4fd0db3578d1","61e1ec61-13c7-4a8f-bf47-a91ec9909364","","null","<div style=""display: flex; justify-content: center; align-items: center;"">
                <img src=""images/semantic/semantic_series_15/semantic_series_15_d.jpg"" style=""width: 300px; height: 300px;"" />
              </div>","null",""
"","","","","","html-keyboard-response","94","483214","0.0-94.0","18FB6A772EAC454BB20B1A6B18E9C844","515d4cd0-f1be-4cdd-8922-4fd0db3578d1","61e1ec61-13c7-4a8f-bf47-a91ec9909364","","null","<div style=""display: flex; justify-content: center; align-items: center;"">
                <img src=""images/other/blank.jpg"" style=""width: 300px; height: 300px;"" />
              </div>","null",""
"","","","","","html-keyboard-response","95","486217","0.0-95.0","18FB6A772EAC454BB20B1A6B18E9C844","515d4cd0-f1be-4cdd-8922-4fd0db3578d1","61e1ec61-13c7-4a8f-bf47-a91ec9909364","","null","<div style=""display: flex; justify-content: center; align-items: center;"">
                <img src=""images/causal/causal_series_6/causal_series_6_a.jpg"" style=""width: 300px; height: 300px;"" />
              </div>","null",""
"","","","","","html-keyboard-response","96","489220","0.0-96.0","18FB6A772EAC454BB20B1A6B18E9C844","515d4cd0-f1be-4cdd-8922-4fd0db3578d1","61e1ec61-13c7-4a8f-bf47-a91ec9909364","","null","<div style=""display: flex; justify-content: center; align-items: center;"">
                <img src=""images/causal/causal_series_6/causal_series_6_b.jpg"" style=""width: 300px; height: 300px;"" />
              </div>","null",""
"","","","","","html-keyboard-response","97","492223","0.0-97.0","18FB6A772EAC454BB20B1A6B18E9C844","515d4cd0-f1be-4cdd-8922-4fd0db3578d1","61e1ec61-13c7-4a8f-bf47-a91ec9909364","","null","<div style=""display: flex; justify-content: center; align-items: center;"">
                <img src=""images/causal/causal_series_6/causal_series_6_c.jpg"" style=""width: 300px; height: 300px;"" />
              </div>","null",""
"","","","","","html-button-response","98","496696","0.0-98.0","18FB6A772EAC454BB20B1A6B18E9C844","515d4cd0-f1be-4cdd-8922-4fd0db3578d1","61e1ec61-13c7-4a8f-bf47-a91ec9909364","","4471","
    <div style=""display: flex; justify-content: center; align-items: center;"">
      <img src=""images/red_deck_2.png"" style=""width: 300px; height: 300px; margin-right: 10px;"" />
      <img src=""images/blue_deck_1.png"" style=""width: 300px; height: 300px;"" />
    </div>","0","0"
"","","","","","html-keyboard-response","99","499699","0.0-99.0-0.0-0.0","18FB6A772EAC454BB20B1A6B18E9C844","515d4cd0-f1be-4cdd-8922-4fd0db3578d1","61e1ec61-13c7-4a8f-bf47-a91ec9909364","","null","<div style=""display: flex; justify-content: center; align-items: center;"">
                <img src=""images/causal/causal_series_6/causal_series_6_d.jpg"" style=""width: 300px; height: 300px;"" />
              </div>","null",""
"","","","","","html-keyboard-response","100","502702","0.0-100.0","18FB6A772EAC454BB20B1A6B18E9C844","515d4cd0-f1be-4cdd-8922-4fd0db3578d1","61e1ec61-13c7-4a8f-bf47-a91ec9909364","","null","<div style=""display: flex; justify-content: center; align-items: center;"">
                <img src=""images/other/blank.jpg"" style=""width: 300px; height: 300px;"" />
              </div>","null",""
"","","","","","html-keyboard-response","101","505705","0.0-101.0","18FB6A772EAC454BB20B1A6B18E9C844","515d4cd0-f1be-4cdd-8922-4fd0db3578d1","61e1ec61-13c7-4a8f-bf47-a91ec9909364","","null","<div style=""display: flex; justify-content: center; align-items: center;"">
                <img src=""images/causal/causal_series_18/causal_series_18_a.jpg"" style=""width: 300px; height: 300px;"" />
              </div>","null",""
"","","","","","html-keyboard-response","102","508707","0.0-102.0","18FB6A772EAC454BB20B1A6B18E9C844","515d4cd0-f1be-4cdd-8922-4fd0db3578d1","61e1ec61-13c7-4a8f-bf47-a91ec9909364","","null","<div style=""display: flex; justify-content: center; align-items: center;"">
                <img src=""images/causal/causal_series_18/causal_series_18_b.jpg"" style=""width: 300px; height: 300px;"" />
              </div>","null",""
"","","","","","html-keyboard-response","103","511710","0.0-103.0","18FB6A772EAC454BB20B1A6B18E9C844","515d4cd0-f1be-4cdd-8922-4fd0db3578d1","61e1ec61-13c7-4a8f-bf47-a91ec9909364","","null","<div style=""display: flex; justify-content: center; align-items: center;"">
                <img src=""images/causal/causal_series_18/causal_series_18_c.jpg"" style=""width: 300px; height: 300px;"" />
              </div>","null",""
"","","","","","html-button-response","104","512877","0.0-104.0","18FB6A772EAC454BB20B1A6B18E9C844","515d4cd0-f1be-4cdd-8922-4fd0db3578d1","61e1ec61-13c7-4a8f-bf47-a91ec9909364","","1165","
    <div style=""display: flex; justify-content: center; align-items: center;"">
      <img src=""images/red_deck_2.png"" style=""width: 300px; height: 300px; margin-right: 10px;"" />
      <img src=""images/blue_deck_1.png"" style=""width: 300px; height: 300px;"" />
    </div>","0","0"
"","","","","","html-keyboard-response","105","515879","0.0-105.0-0.0-0.0","18FB6A772EAC454BB20B1A6B18E9C844","515d4cd0-f1be-4cdd-8922-4fd0db3578d1","61e1ec61-13c7-4a8f-bf47-a91ec9909364","","null","<div style=""display: flex; justify-content: center; align-items: center;"">
                <img src=""images/causal/causal_series_18/causal_series_18_d.jpg"" style=""width: 300px; height: 300px;"" />
              </div>","null",""
"","","","","","html-keyboard-response","106","518882","0.0-106.0","18FB6A772EAC454BB20B1A6B18E9C844","515d4cd0-f1be-4cdd-8922-4fd0db3578d1","61e1ec61-13c7-4a8f-bf47-a91ec9909364","","null","<div style=""display: flex; justify-content: center; align-items: center;"">
                <img src=""images/other/blank.jpg"" style=""width: 300px; height: 300px;"" />
              </div>","null",""
"","","","","","html-keyboard-response","107","521885","0.0-107.0","18FB6A772EAC454BB20B1A6B18E9C844","515d4cd0-f1be-4cdd-8922-4fd0db3578d1","61e1ec61-13c7-4a8f-bf47-a91ec9909364","","null","<div style=""display: flex; justify-content: center; align-items: center;"">
                <img src=""images/causal/causal_series_2/causal_series_2_a.jpg"" style=""width: 300px; height: 300px;"" />
              </div>","null",""
"","","","","","html-keyboard-response","108","524887","0.0-108.0","18FB6A772EAC454BB20B1A6B18E9C844","515d4cd0-f1be-4cdd-8922-4fd0db3578d1","61e1ec61-13c7-4a8f-bf47-a91ec9909364","","null","<div style=""display: flex; justify-content: center; align-items: center;"">
                <img src=""images/causal/causal_series_2/causal_series_2_b.jpg"" style=""width: 300px; height: 300px;"" />
              </div>","null",""
"","","","","","html-keyboard-response","109","527890","0.0-109.0","18FB6A772EAC454BB20B1A6B18E9C844","515d4cd0-f1be-4cdd-8922-4fd0db3578d1","61e1ec61-13c7-4a8f-bf47-a91ec9909364","","null","<div style=""display: flex; justify-content: center; align-items: center;"">
                <img src=""images/causal/causal_series_2/causal_series_2_c.jpg"" style=""width: 300px; height: 300px;"" />
              </div>","null",""
"","","","","","html-button-response","110","529629","0.0-110.0","18FB6A772EAC454BB20B1A6B18E9C844","515d4cd0-f1be-4cdd-8922-4fd0db3578d1","61e1ec61-13c7-4a8f-bf47-a91ec9909364","","1737","
    <div style=""display: flex; justify-content: center; align-items: center;"">
      <img src=""images/red_deck_2.png"" style=""width: 300px; height: 300px; margin-right: 10px;"" />
      <img src=""images/blue_deck_1.png"" style=""width: 300px; height: 300px;"" />
    </div>","1","1"
"","","","","","html-keyboard-response","111","532631","0.0-111.0-1.0-0.0","18FB6A772EAC454BB20B1A6B18E9C844","515d4cd0-f1be-4cdd-8922-4fd0db3578d1","61e1ec61-13c7-4a8f-bf47-a91ec9909364","","null","<div style=""display: flex; justify-content: center; align-items: center;"">
                <img src=""images/semantic/semantic_series_1/semantic_series_1_d.jpg"" style=""width: 300px; height: 300px;"" />
              </div>","null",""
"","","","","","html-keyboard-response","112","535634","0.0-112.0","18FB6A772EAC454BB20B1A6B18E9C844","515d4cd0-f1be-4cdd-8922-4fd0db3578d1","61e1ec61-13c7-4a8f-bf47-a91ec9909364","","null","<div style=""display: flex; justify-content: center; align-items: center;"">
                <img src=""images/other/blank.jpg"" style=""width: 300px; height: 300px;"" />
              </div>","null",""
"","","","","","survey-text","113","560887","0.0-113.0","18FB6A772EAC454BB20B1A6B18E9C844","515d4cd0-f1be-4cdd-8922-4fd0db3578d1","61e1ec61-13c7-4a8f-bf47-a91ec9909364","","25229","","{""Q0"":""It seems like the red card (Deck 1) is more actionable cards, whereas the blue card (Deck 2) is more passive actions.""}",""
"","","","","","survey-text","114","570367","0.0-114.0","18FB6A772EAC454BB20B1A6B18E9C844","515d4cd0-f1be-4cdd-8922-4fd0db3578d1","61e1ec61-13c7-4a8f-bf47-a91ec9909364","","9473","","{""Q0"":""I found both decks interesting.""}",""
"","","","","","html-button-response","115","582904","0.0-115.0","18FB6A772EAC454BB20B1A6B18E9C844","515d4cd0-f1be-4cdd-8922-4fd0db3578d1","61e1ec61-13c7-4a8f-bf47-a91ec9909364","","12536","Which color deck does the fourth image continue the story from the series?","1",""
"","","","","","html-button-response","116","589169","0.0-116.0","18FB6A772EAC454BB20B1A6B18E9C844","515d4cd0-f1be-4cdd-8922-4fd0db3578d1","61e1ec61-13c7-4a8f-bf47-a91ec9909364","","6264","Which color deck does the fourth image not follow the story from the series?","0",""
"","","","","","survey-text","117","593392","0.0-117.0","18FB6A772EAC454BB20B1A6B18E9C844","515d4cd0-f1be-4cdd-8922-4fd0db3578d1","61e1ec61-13c7-4a8f-bf47-a91ec9909364","","4211","","{""Q0"":""MALE"",""Q1"":""19""}",""
"","","","","","instructions","118","599412","0.0-118.0","18FB6A772EAC454BB20B1A6B18E9C844","515d4cd0-f1be-4cdd-8922-4fd0db3578d1","61e1ec61-13c7-4a8f-bf47-a91ec9909364","[{""page_index"":0,""viewing_time"":6019}]","6020","","",""
