"success","timeout","failed_images","failed_audio","failed_video","trial_type","trial_index","time_elapsed","internal_node_id","subject_id","study_id","session_id","view_history","rt","stimulus","response","choice","question_order"
"true","false","[]","[]","[]","preload","0","719","0.0-0.0","EF39775A5EFC446388D25D2217B5401F","0199d03e-7172-7334-a8e3-1aae591fa0fa","0199d03a-64b5-7588-a054-13255d1a32c0","","","","","",""
"","","","","","instructions","1","9793","0.0-1.0","EF39775A5EFC446388D25D2217B5401F","0199d03e-7172-7334-a8e3-1aae591fa0fa","0199d03a-64b5-7588-a054-13255d1a32c0","[{""page_index"":0,""viewing_time"":9073}]","9073","","","",""
"","","","","","instructions","2","12528","0.0-2.0","EF39775A5EFC446388D25D2217B5401F","0199d03e-7172-7334-a8e3-1aae591fa0fa","0199d03a-64b5-7588-a054-13255d1a32c0","[{""page_index"":0,""viewing_time"":2734}]","2734","","","",""
"true","","","","","fullscreen","3","16278","0.0-3.0","EF39775A5EFC446388D25D2217B5401F","0199d03e-7172-7334-a8e3-1aae591fa0fa","0199d03a-64b5-7588-a054-13255d1a32c0","","2736","","","",""
"","","","","","instructions","4","20690","0.0-4.0","EF39775A5EFC446388D25D2217B5401F","0199d03e-7172-7334-a8e3-1aae591fa0fa","0199d03a-64b5-7588-a054-13255d1a32c0","[{""page_index"":0,""viewing_time"":4412}]","4412","","","",""
"","","","","","html-keyboard-response","5","27706","0.0-5.0","EF39775A5EFC446388D25D2217B5401F","0199d03e-7172-7334-a8e3-1aae591fa0fa","0199d03a-64b5-7588-a054-13255d1a32c0","","null","<div style=""display: flex; justify-content: center; align-items: center;"">
                     <img src=""images/causal/causal_series_4/causal_series_4_a.png"" style=""width: 300px; height: 300px;"" />
                   </div>","null","",""
"","","","","","html-keyboard-response","6","34711","0.0-6.0","EF39775A5EFC446388D25D2217B5401F","0199d03e-7172-7334-a8e3-1aae591fa0fa","0199d03a-64b5-7588-a054-13255d1a32c0","","null","<div style=""display: flex; justify-content: center; align-items: center;"">
                     <img src=""images/causal/causal_series_4/causal_series_4_b.png"" style=""width: 300px; height: 300px;"" />
                   </div>","null","",""
"","","","","","html-keyboard-response","7","41719","0.0-7.0","EF39775A5EFC446388D25D2217B5401F","0199d03e-7172-7334-a8e3-1aae591fa0fa","0199d03a-64b5-7588-a054-13255d1a32c0","","null","<div style=""display: flex; justify-content: center; align-items: center;"">
                     <img src=""images/causal/causal_series_4/causal_series_4_c.png"" style=""width: 300px; height: 300px;"" />
                   </div>","null","",""
"","","","","","html-button-response","8","45904","0.0-8.0","EF39775A5EFC446388D25D2217B5401F","0199d03e-7172-7334-a8e3-1aae591fa0fa","0199d03a-64b5-7588-a054-13255d1a32c0","","4183","
        <div style=""display: flex; justify-content: center; align-items: center;"">
          <img src=""images/red_deck_2.png"" style=""width: 300px; height: 300px; margin-right: 10px;"" />
          <img src=""images/blue_deck_1.png"" style=""width: 300px; height: 300px;"" />
        </div>","1","1",""
"","","","","","html-keyboard-response","9","52911","0.0-9.0-1.0-0.0","EF39775A5EFC446388D25D2217B5401F","0199d03e-7172-7334-a8e3-1aae591fa0fa","0199d03a-64b5-7588-a054-13255d1a32c0","","null","<div style=""display: flex; justify-content: center; align-items: center;"">
                     <img src=""images/semantic/semantic_series_4/semantic_series_4_d.png"" style=""width: 300px; height: 300px;"" />
                   </div>","null","",""
"","","","","","survey-likert","10","58695","0.0-10.0","EF39775A5EFC446388D25D2217B5401F","0199d03e-7172-7334-a8e3-1aae591fa0fa","0199d03a-64b5-7588-a054-13255d1a32c0","","5782","","{""Q0"":1}","","[0]"
"","","","","","survey-likert","11","63572","0.0-11.0","EF39775A5EFC446388D25D2217B5401F","0199d03e-7172-7334-a8e3-1aae591fa0fa","0199d03a-64b5-7588-a054-13255d1a32c0","","4876","","{""Q0"":3}","","[0]"
"","","","","","html-keyboard-response","12","70588","0.0-12.0","EF39775A5EFC446388D25D2217B5401F","0199d03e-7172-7334-a8e3-1aae591fa0fa","0199d03a-64b5-7588-a054-13255d1a32c0","","null","<div style=""display: flex; justify-content: center; align-items: center;"">
                     <img src=""images/other/blank.png"" style=""width: 300px; height: 300px;"" />
                   </div>","null","",""
"","","","","","html-keyboard-response","13","77603","0.0-13.0","EF39775A5EFC446388D25D2217B5401F","0199d03e-7172-7334-a8e3-1aae591fa0fa","0199d03a-64b5-7588-a054-13255d1a32c0","","null","<div style=""display: flex; justify-content: center; align-items: center;"">
                     <img src=""images/causal/causal_series_5/causal_series_5_a.png"" style=""width: 300px; height: 300px;"" />
                   </div>","null","",""
"","","","","","html-keyboard-response","14","84605","0.0-14.0","EF39775A5EFC446388D25D2217B5401F","0199d03e-7172-7334-a8e3-1aae591fa0fa","0199d03a-64b5-7588-a054-13255d1a32c0","","null","<div style=""display: flex; justify-content: center; align-items: center;"">
                     <img src=""images/causal/causal_series_5/causal_series_5_b.png"" style=""width: 300px; height: 300px;"" />
                   </div>","null","",""
"","","","","","html-keyboard-response","15","91606","0.0-15.0","EF39775A5EFC446388D25D2217B5401F","0199d03e-7172-7334-a8e3-1aae591fa0fa","0199d03a-64b5-7588-a054-13255d1a32c0","","null","<div style=""display: flex; justify-content: center; align-items: center;"">
                     <img src=""images/causal/causal_series_5/causal_series_5_c.png"" style=""width: 300px; height: 300px;"" />
                   </div>","null","",""
"","","","","","html-button-response","16","93251","0.0-16.0","EF39775A5EFC446388D25D2217B5401F","0199d03e-7172-7334-a8e3-1aae591fa0fa","0199d03a-64b5-7588-a054-13255d1a32c0","","1644","
        <div style=""display: flex; justify-content: center; align-items: center;"">
          <img src=""images/red_deck_2.png"" style=""width: 300px; height: 300px; margin-right: 10px;"" />
          <img src=""images/blue_deck_1.png"" style=""width: 300px; height: 300px;"" />
        </div>","0","0",""
"","","","","","html-keyboard-response","17","100253","0.0-17.0-0.0-0.0","EF39775A5EFC446388D25D2217B5401F","0199d03e-7172-7334-a8e3-1aae591fa0fa","0199d03a-64b5-7588-a054-13255d1a32c0","","null","<div style=""display: flex; justify-content: center; align-items: center;"">
                     <img src=""images/causal/causal_series_5/causal_series_5_d.png"" style=""width: 300px; height: 300px;"" />
                   </div>","null","",""
"","","","","","survey-likert","18","102473","0.0-18.0","EF39775A5EFC446388D25D2217B5401F","0199d03e-7172-7334-a8e3-1aae591fa0fa","0199d03a-64b5-7588-a054-13255d1a32c0","","2219","","{""Q0"":2}","","[0]"
"","","","","","survey-likert","19","105560","0.0-19.0","EF39775A5EFC446388D25D2217B5401F","0199d03e-7172-7334-a8e3-1aae591fa0fa","0199d03a-64b5-7588-a054-13255d1a32c0","","3087","","{""Q0"":3}","","[0]"
"","","","","","html-keyboard-response","20","112570","0.0-20.0","EF39775A5EFC446388D25D2217B5401F","0199d03e-7172-7334-a8e3-1aae591fa0fa","0199d03a-64b5-7588-a054-13255d1a32c0","","null","<div style=""display: flex; justify-content: center; align-items: center;"">
                     <img src=""images/other/blank.png"" style=""width: 300px; height: 300px;"" />
                   </div>","null","",""
"","","","","","html-keyboard-response","21","119575","0.0-21.0","EF39775A5EFC446388D25D2217B5401F","0199d03e-7172-7334-a8e3-1aae591fa0fa","0199d03a-64b5-7588-a054-13255d1a32c0","","null","<div style=""display: flex; justify-content: center; align-items: center;"">
                     <img src=""images/causal/causal_series_7/causal_series_7_a.png"" style=""width: 300px; height: 300px;"" />
                   </div>","null","",""
"","","","","","html-keyboard-response","22","126586","0.0-22.0","EF39775A5EFC446388D25D2217B5401F","0199d03e-7172-7334-a8e3-1aae591fa0fa","0199d03a-64b5-7588-a054-13255d1a32c0","","null","<div style=""display: flex; justify-content: center; align-items: center;"">
                     <img src=""images/causal/causal_series_7/causal_series_7_b.png"" style=""width: 300px; height: 300px;"" />
                   </div>","null","",""
"","","","","","html-keyboard-response","23","133599","0.0-23.0","EF39775A5EFC446388D25D2217B5401F","0199d03e-7172-7334-a8e3-1aae591fa0fa","0199d03a-64b5-7588-a054-13255d1a32c0","","null","<div style=""display: flex; justify-content: center; align-items: center;"">
                     <img src=""images/causal/causal_series_7/causal_series_7_c.png"" style=""width: 300px; height: 300px;"" />
                   </div>","null","",""
"","","","","","html-button-response","24","135949","0.0-24.0","EF39775A5EFC446388D25D2217B5401F","0199d03e-7172-7334-a8e3-1aae591fa0fa","0199d03a-64b5-7588-a054-13255d1a32c0","","2349","
        <div style=""display: flex; justify-content: center; align-items: center;"">
          <img src=""images/red_deck_2.png"" style=""width: 300px; height: 300px; margin-right: 10px;"" />
          <img src=""images/blue_deck_1.png"" style=""width: 300px; height: 300px;"" />
        </div>","0","0",""
"","","","","","html-keyboard-response","25","142953","0.0-25.0-0.0-0.0","EF39775A5EFC446388D25D2217B5401F","0199d03e-7172-7334-a8e3-1aae591fa0fa","0199d03a-64b5-7588-a054-13255d1a32c0","","null","<div style=""display: flex; justify-content: center; align-items: center;"">
                     <img src=""images/causal/causal_series_7/causal_series_7_d.png"" style=""width: 300px; height: 300px;"" />
                   </div>","null","",""
"","","","","","survey-likert","26","145871","0.0-26.0","EF39775A5EFC446388D25D2217B5401F","0199d03e-7172-7334-a8e3-1aae591fa0fa","0199d03a-64b5-7588-a054-13255d1a32c0","","2917","","{""Q0"":3}","","[0]"
"","","","","","survey-likert","27","147126","0.0-27.0","EF39775A5EFC446388D25D2217B5401F","0199d03e-7172-7334-a8e3-1aae591fa0fa","0199d03a-64b5-7588-a054-13255d1a32c0","","1254","","{""Q0"":3}","","[0]"
"","","","","","html-keyboard-response","28","154140","0.0-28.0","EF39775A5EFC446388D25D2217B5401F","0199d03e-7172-7334-a8e3-1aae591fa0fa","0199d03a-64b5-7588-a054-13255d1a32c0","","null","<div style=""display: flex; justify-content: center; align-items: center;"">
                     <img src=""images/other/blank.png"" style=""width: 300px; height: 300px;"" />
                   </div>","null","",""
"","","","","","html-keyboard-response","29","161145","0.0-29.0","EF39775A5EFC446388D25D2217B5401F","0199d03e-7172-7334-a8e3-1aae591fa0fa","0199d03a-64b5-7588-a054-13255d1a32c0","","null","<div style=""display: flex; justify-content: center; align-items: center;"">
                     <img src=""images/causal/causal_series_6/causal_series_6_a.png"" style=""width: 300px; height: 300px;"" />
                   </div>","null","",""
"","","","","","html-keyboard-response","30","168160","0.0-30.0","EF39775A5EFC446388D25D2217B5401F","0199d03e-7172-7334-a8e3-1aae591fa0fa","0199d03a-64b5-7588-a054-13255d1a32c0","","null","<div style=""display: flex; justify-content: center; align-items: center;"">
                     <img src=""images/causal/causal_series_6/causal_series_6_b.png"" style=""width: 300px; height: 300px;"" />
                   </div>","null","",""
"","","","","","html-keyboard-response","31","175166","0.0-31.0","EF39775A5EFC446388D25D2217B5401F","0199d03e-7172-7334-a8e3-1aae591fa0fa","0199d03a-64b5-7588-a054-13255d1a32c0","","null","<div style=""display: flex; justify-content: center; align-items: center;"">
                     <img src=""images/causal/causal_series_6/causal_series_6_c.png"" style=""width: 300px; height: 300px;"" />
                   </div>","null","",""
"","","","","","html-button-response","32","181939","0.0-32.0","EF39775A5EFC446388D25D2217B5401F","0199d03e-7172-7334-a8e3-1aae591fa0fa","0199d03a-64b5-7588-a054-13255d1a32c0","","6772","
        <div style=""display: flex; justify-content: center; align-items: center;"">
          <img src=""images/red_deck_2.png"" style=""width: 300px; height: 300px; margin-right: 10px;"" />
          <img src=""images/blue_deck_1.png"" style=""width: 300px; height: 300px;"" />
        </div>","1","1",""
"","","","","","html-keyboard-response","33","188956","0.0-33.0-1.0-0.0","EF39775A5EFC446388D25D2217B5401F","0199d03e-7172-7334-a8e3-1aae591fa0fa","0199d03a-64b5-7588-a054-13255d1a32c0","","null","<div style=""display: flex; justify-content: center; align-items: center;"">
                     <img src=""images/semantic/semantic_series_6/semantic_series_6_d.png"" style=""width: 300px; height: 300px;"" />
                   </div>","null","",""
"","","","","","survey-likert","34","209275","0.0-34.0","EF39775A5EFC446388D25D2217B5401F","0199d03e-7172-7334-a8e3-1aae591fa0fa","0199d03a-64b5-7588-a054-13255d1a32c0","","20318","","{""Q0"":3}","","[0]"
"","","","","","survey-likert","35","210412","0.0-35.0","EF39775A5EFC446388D25D2217B5401F","0199d03e-7172-7334-a8e3-1aae591fa0fa","0199d03a-64b5-7588-a054-13255d1a32c0","","1136","","{""Q0"":3}","","[0]"
"","","","","","html-keyboard-response","36","217418","0.0-36.0","EF39775A5EFC446388D25D2217B5401F","0199d03e-7172-7334-a8e3-1aae591fa0fa","0199d03a-64b5-7588-a054-13255d1a32c0","","null","<div style=""display: flex; justify-content: center; align-items: center;"">
                     <img src=""images/other/blank.png"" style=""width: 300px; height: 300px;"" />
                   </div>","null","",""
"","","","","","html-keyboard-response","37","224433","0.0-37.0","EF39775A5EFC446388D25D2217B5401F","0199d03e-7172-7334-a8e3-1aae591fa0fa","0199d03a-64b5-7588-a054-13255d1a32c0","","null","<div style=""display: flex; justify-content: center; align-items: center;"">
                     <img src=""images/causal/causal_series_2/causal_series_2_a.png"" style=""width: 300px; height: 300px;"" />
                   </div>","null","",""
"","","","","","html-keyboard-response","38","231435","0.0-38.0","EF39775A5EFC446388D25D2217B5401F","0199d03e-7172-7334-a8e3-1aae591fa0fa","0199d03a-64b5-7588-a054-13255d1a32c0","","null","<div style=""display: flex; justify-content: center; align-items: center;"">
                     <img src=""images/causal/causal_series_2/causal_series_2_b.png"" style=""width: 300px; height: 300px;"" />
                   </div>","null","",""
"","","","","","html-keyboard-response","39","238436","0.0-39.0","EF39775A5EFC446388D25D2217B5401F","0199d03e-7172-7334-a8e3-1aae591fa0fa","0199d03a-64b5-7588-a054-13255d1a32c0","","null","<div style=""display: flex; justify-content: center; align-items: center;"">
                     <img src=""images/causal/causal_series_2/causal_series_2_c.png"" style=""width: 300px; height: 300px;"" />
                   </div>","null","",""
"","","","","","html-button-response","40","240177","0.0-40.0","EF39775A5EFC446388D25D2217B5401F","0199d03e-7172-7334-a8e3-1aae591fa0fa","0199d03a-64b5-7588-a054-13255d1a32c0","","1739","
        <div style=""display: flex; justify-content: center; align-items: center;"">
          <img src=""images/red_deck_2.png"" style=""width: 300px; height: 300px; margin-right: 10px;"" />
          <img src=""images/blue_deck_1.png"" style=""width: 300px; height: 300px;"" />
        </div>","0","0",""
"","","","","","html-keyboard-response","41","247182","0.0-41.0-0.0-0.0","EF39775A5EFC446388D25D2217B5401F","0199d03e-7172-7334-a8e3-1aae591fa0fa","0199d03a-64b5-7588-a054-13255d1a32c0","","null","<div style=""display: flex; justify-content: center; align-items: center;"">
                     <img src=""images/causal/causal_series_2/causal_series_2_d.png"" style=""width: 300px; height: 300px;"" />
                   </div>","null","",""
"","","","","","survey-likert","42","250032","0.0-42.0","EF39775A5EFC446388D25D2217B5401F","0199d03e-7172-7334-a8e3-1aae591fa0fa","0199d03a-64b5-7588-a054-13255d1a32c0","","2849","","{""Q0"":1}","","[0]"
"","","","","","survey-likert","43","252291","0.0-43.0","EF39775A5EFC446388D25D2217B5401F","0199d03e-7172-7334-a8e3-1aae591fa0fa","0199d03a-64b5-7588-a054-13255d1a32c0","","2259","","{""Q0"":1}","","[0]"
"","","","","","html-keyboard-response","44","259300","0.0-44.0","EF39775A5EFC446388D25D2217B5401F","0199d03e-7172-7334-a8e3-1aae591fa0fa","0199d03a-64b5-7588-a054-13255d1a32c0","","null","<div style=""display: flex; justify-content: center; align-items: center;"">
                     <img src=""images/other/blank.png"" style=""width: 300px; height: 300px;"" />
                   </div>","null","",""
"","","","","","html-keyboard-response","45","266314","0.0-45.0","EF39775A5EFC446388D25D2217B5401F","0199d03e-7172-7334-a8e3-1aae591fa0fa","0199d03a-64b5-7588-a054-13255d1a32c0","","null","<div style=""display: flex; justify-content: center; align-items: center;"">
                     <img src=""images/causal/causal_series_3/causal_series_3_a.png"" style=""width: 300px; height: 300px;"" />
                   </div>","null","",""
"","","","","","html-keyboard-response","46","273321","0.0-46.0","EF39775A5EFC446388D25D2217B5401F","0199d03e-7172-7334-a8e3-1aae591fa0fa","0199d03a-64b5-7588-a054-13255d1a32c0","","null","<div style=""display: flex; justify-content: center; align-items: center;"">
                     <img src=""images/causal/causal_series_3/causal_series_3_b.png"" style=""width: 300px; height: 300px;"" />
                   </div>","null","",""
"","","","","","html-keyboard-response","47","280330","0.0-47.0","EF39775A5EFC446388D25D2217B5401F","0199d03e-7172-7334-a8e3-1aae591fa0fa","0199d03a-64b5-7588-a054-13255d1a32c0","","null","<div style=""display: flex; justify-content: center; align-items: center;"">
                     <img src=""images/causal/causal_series_3/causal_series_3_c.png"" style=""width: 300px; height: 300px;"" />
                   </div>","null","",""
"","","","","","html-button-response","48","282963","0.0-48.0","EF39775A5EFC446388D25D2217B5401F","0199d03e-7172-7334-a8e3-1aae591fa0fa","0199d03a-64b5-7588-a054-13255d1a32c0","","2632","
        <div style=""display: flex; justify-content: center; align-items: center;"">
          <img src=""images/red_deck_2.png"" style=""width: 300px; height: 300px; margin-right: 10px;"" />
          <img src=""images/blue_deck_1.png"" style=""width: 300px; height: 300px;"" />
        </div>","1","1",""
"","","","","","html-keyboard-response","49","289969","0.0-49.0-1.0-0.0","EF39775A5EFC446388D25D2217B5401F","0199d03e-7172-7334-a8e3-1aae591fa0fa","0199d03a-64b5-7588-a054-13255d1a32c0","","null","<div style=""display: flex; justify-content: center; align-items: center;"">
                     <img src=""images/semantic/semantic_series_3/semantic_series_3_d.png"" style=""width: 300px; height: 300px;"" />
                   </div>","null","",""
"","","","","","survey-likert","50","294670","0.0-50.0","EF39775A5EFC446388D25D2217B5401F","0199d03e-7172-7334-a8e3-1aae591fa0fa","0199d03a-64b5-7588-a054-13255d1a32c0","","4700","","{""Q0"":1}","","[0]"
"","","","","","survey-likert","51","296536","0.0-51.0","EF39775A5EFC446388D25D2217B5401F","0199d03e-7172-7334-a8e3-1aae591fa0fa","0199d03a-64b5-7588-a054-13255d1a32c0","","1865","","{""Q0"":3}","","[0]"
"","","","","","html-keyboard-response","52","303540","0.0-52.0","EF39775A5EFC446388D25D2217B5401F","0199d03e-7172-7334-a8e3-1aae591fa0fa","0199d03a-64b5-7588-a054-13255d1a32c0","","null","<div style=""display: flex; justify-content: center; align-items: center;"">
                     <img src=""images/other/blank.png"" style=""width: 300px; height: 300px;"" />
                   </div>","null","",""
"","","","","","html-keyboard-response","53","310549","0.0-53.0","EF39775A5EFC446388D25D2217B5401F","0199d03e-7172-7334-a8e3-1aae591fa0fa","0199d03a-64b5-7588-a054-13255d1a32c0","","null","<div style=""display: flex; justify-content: center; align-items: center;"">
                     <img src=""images/causal/causal_series_1/causal_series_1_a.png"" style=""width: 300px; height: 300px;"" />
                   </div>","null","",""
"","","","","","html-keyboard-response","54","317559","0.0-54.0","EF39775A5EFC446388D25D2217B5401F","0199d03e-7172-7334-a8e3-1aae591fa0fa","0199d03a-64b5-7588-a054-13255d1a32c0","","null","<div style=""display: flex; justify-content: center; align-items: center;"">
                     <img src=""images/causal/causal_series_1/causal_series_1_b.png"" style=""width: 300px; height: 300px;"" />
                   </div>","null","",""
"","","","","","html-keyboard-response","55","324567","0.0-55.0","EF39775A5EFC446388D25D2217B5401F","0199d03e-7172-7334-a8e3-1aae591fa0fa","0199d03a-64b5-7588-a054-13255d1a32c0","","null","<div style=""display: flex; justify-content: center; align-items: center;"">
                     <img src=""images/causal/causal_series_1/causal_series_1_c.png"" style=""width: 300px; height: 300px;"" />
                   </div>","null","",""
"","","","","","html-button-response","56","325773","0.0-56.0","EF39775A5EFC446388D25D2217B5401F","0199d03e-7172-7334-a8e3-1aae591fa0fa","0199d03a-64b5-7588-a054-13255d1a32c0","","1205","
        <div style=""display: flex; justify-content: center; align-items: center;"">
          <img src=""images/red_deck_2.png"" style=""width: 300px; height: 300px; margin-right: 10px;"" />
          <img src=""images/blue_deck_1.png"" style=""width: 300px; height: 300px;"" />
        </div>","0","0",""
"","","","","","html-keyboard-response","57","332775","0.0-57.0-0.0-0.0","EF39775A5EFC446388D25D2217B5401F","0199d03e-7172-7334-a8e3-1aae591fa0fa","0199d03a-64b5-7588-a054-13255d1a32c0","","null","<div style=""display: flex; justify-content: center; align-items: center;"">
                     <img src=""images/causal/causal_series_1/causal_series_1_d.png"" style=""width: 300px; height: 300px;"" />
                   </div>","null","",""
"","","","","","survey-likert","58","349979","0.0-58.0","EF39775A5EFC446388D25D2217B5401F","0199d03e-7172-7334-a8e3-1aae591fa0fa","0199d03a-64b5-7588-a054-13255d1a32c0","","17204","","{""Q0"":3}","","[0]"
"","","","","","survey-likert","59","351131","0.0-59.0","EF39775A5EFC446388D25D2217B5401F","0199d03e-7172-7334-a8e3-1aae591fa0fa","0199d03a-64b5-7588-a054-13255d1a32c0","","1150","","{""Q0"":3}","","[0]"
"","","","","","html-keyboard-response","60","358139","0.0-60.0","EF39775A5EFC446388D25D2217B5401F","0199d03e-7172-7334-a8e3-1aae591fa0fa","0199d03a-64b5-7588-a054-13255d1a32c0","","null","<div style=""display: flex; justify-content: center; align-items: center;"">
                     <img src=""images/other/blank.png"" style=""width: 300px; height: 300px;"" />
                   </div>","null","",""
"","","","","","html-keyboard-response","61","365149","0.0-61.0","EF39775A5EFC446388D25D2217B5401F","0199d03e-7172-7334-a8e3-1aae591fa0fa","0199d03a-64b5-7588-a054-13255d1a32c0","","null","<div style=""display: flex; justify-content: center; align-items: center;"">
                     <img src=""images/causal/causal_series_10/causal_series_10_a.png"" style=""width: 300px; height: 300px;"" />
                   </div>","null","",""
"","","","","","html-keyboard-response","62","372165","0.0-62.0","EF39775A5EFC446388D25D2217B5401F","0199d03e-7172-7334-a8e3-1aae591fa0fa","0199d03a-64b5-7588-a054-13255d1a32c0","","null","<div style=""display: flex; justify-content: center; align-items: center;"">
                     <img src=""images/causal/causal_series_10/causal_series_10_b.png"" style=""width: 300px; height: 300px;"" />
                   </div>","null","",""
"","","","","","html-keyboard-response","63","379182","0.0-63.0","EF39775A5EFC446388D25D2217B5401F","0199d03e-7172-7334-a8e3-1aae591fa0fa","0199d03a-64b5-7588-a054-13255d1a32c0","","null","<div style=""display: flex; justify-content: center; align-items: center;"">
                     <img src=""images/causal/causal_series_10/causal_series_10_c.png"" style=""width: 300px; height: 300px;"" />
                   </div>","null","",""
"","","","","","html-button-response","64","390937","0.0-64.0","EF39775A5EFC446388D25D2217B5401F","0199d03e-7172-7334-a8e3-1aae591fa0fa","0199d03a-64b5-7588-a054-13255d1a32c0","","11755","
        <div style=""display: flex; justify-content: center; align-items: center;"">
          <img src=""images/red_deck_2.png"" style=""width: 300px; height: 300px; margin-right: 10px;"" />
          <img src=""images/blue_deck_1.png"" style=""width: 300px; height: 300px;"" />
        </div>","0","0",""
"","","","","","html-keyboard-response","65","397946","0.0-65.0-0.0-0.0","EF39775A5EFC446388D25D2217B5401F","0199d03e-7172-7334-a8e3-1aae591fa0fa","0199d03a-64b5-7588-a054-13255d1a32c0","","null","<div style=""display: flex; justify-content: center; align-items: center;"">
                     <img src=""images/causal/causal_series_10/causal_series_10_d.png"" style=""width: 300px; height: 300px;"" />
                   </div>","null","",""
"","","","","","survey-likert","66","400324","0.0-66.0","EF39775A5EFC446388D25D2217B5401F","0199d03e-7172-7334-a8e3-1aae591fa0fa","0199d03a-64b5-7588-a054-13255d1a32c0","","2377","","{""Q0"":2}","","[0]"
"","","","","","survey-likert","67","402249","0.0-67.0","EF39775A5EFC446388D25D2217B5401F","0199d03e-7172-7334-a8e3-1aae591fa0fa","0199d03a-64b5-7588-a054-13255d1a32c0","","1924","","{""Q0"":3}","","[0]"
"","","","","","html-keyboard-response","68","409253","0.0-68.0","EF39775A5EFC446388D25D2217B5401F","0199d03e-7172-7334-a8e3-1aae591fa0fa","0199d03a-64b5-7588-a054-13255d1a32c0","","null","<div style=""display: flex; justify-content: center; align-items: center;"">
                     <img src=""images/other/blank.png"" style=""width: 300px; height: 300px;"" />
                   </div>","null","",""
"","","","","","html-keyboard-response","69","416263","0.0-69.0","EF39775A5EFC446388D25D2217B5401F","0199d03e-7172-7334-a8e3-1aae591fa0fa","0199d03a-64b5-7588-a054-13255d1a32c0","","null","<div style=""display: flex; justify-content: center; align-items: center;"">
                     <img src=""images/causal/causal_series_8/causal_series_8_a.png"" style=""width: 300px; height: 300px;"" />
                   </div>","null","",""
"","","","","","html-keyboard-response","70","423273","0.0-70.0","EF39775A5EFC446388D25D2217B5401F","0199d03e-7172-7334-a8e3-1aae591fa0fa","0199d03a-64b5-7588-a054-13255d1a32c0","","null","<div style=""display: flex; justify-content: center; align-items: center;"">
                     <img src=""images/causal/causal_series_8/causal_series_8_b.png"" style=""width: 300px; height: 300px;"" />
                   </div>","null","",""
"","","","","","html-keyboard-response","71","430279","0.0-71.0","EF39775A5EFC446388D25D2217B5401F","0199d03e-7172-7334-a8e3-1aae591fa0fa","0199d03a-64b5-7588-a054-13255d1a32c0","","null","<div style=""display: flex; justify-content: center; align-items: center;"">
                     <img src=""images/causal/causal_series_8/causal_series_8_c.png"" style=""width: 300px; height: 300px;"" />
                   </div>","null","",""
"","","","","","html-button-response","72","433997","0.0-72.0","EF39775A5EFC446388D25D2217B5401F","0199d03e-7172-7334-a8e3-1aae591fa0fa","0199d03a-64b5-7588-a054-13255d1a32c0","","3716","
        <div style=""display: flex; justify-content: center; align-items: center;"">
          <img src=""images/red_deck_2.png"" style=""width: 300px; height: 300px; margin-right: 10px;"" />
          <img src=""images/blue_deck_1.png"" style=""width: 300px; height: 300px;"" />
        </div>","0","0",""
"","","","","","html-keyboard-response","73","441011","0.0-73.0-0.0-0.0","EF39775A5EFC446388D25D2217B5401F","0199d03e-7172-7334-a8e3-1aae591fa0fa","0199d03a-64b5-7588-a054-13255d1a32c0","","null","<div style=""display: flex; justify-content: center; align-items: center;"">
                     <img src=""images/causal/causal_series_8/causal_series_8_d.png"" style=""width: 300px; height: 300px;"" />
                   </div>","null","",""
"","","","","","survey-likert","74","443469","0.0-74.0","EF39775A5EFC446388D25D2217B5401F","0199d03e-7172-7334-a8e3-1aae591fa0fa","0199d03a-64b5-7588-a054-13255d1a32c0","","2457","","{""Q0"":2}","","[0]"
"","","","","","survey-likert","75","444706","0.0-75.0","EF39775A5EFC446388D25D2217B5401F","0199d03e-7172-7334-a8e3-1aae591fa0fa","0199d03a-64b5-7588-a054-13255d1a32c0","","1236","","{""Q0"":3}","","[0]"
"","","","","","html-keyboard-response","76","451716","0.0-76.0","EF39775A5EFC446388D25D2217B5401F","0199d03e-7172-7334-a8e3-1aae591fa0fa","0199d03a-64b5-7588-a054-13255d1a32c0","","null","<div style=""display: flex; justify-content: center; align-items: center;"">
                     <img src=""images/other/blank.png"" style=""width: 300px; height: 300px;"" />
                   </div>","null","",""
"","","","","","html-keyboard-response","77","458730","0.0-77.0","EF39775A5EFC446388D25D2217B5401F","0199d03e-7172-7334-a8e3-1aae591fa0fa","0199d03a-64b5-7588-a054-13255d1a32c0","","null","<div style=""display: flex; justify-content: center; align-items: center;"">
                     <img src=""images/causal/causal_series_9/causal_series_9_a.png"" style=""width: 300px; height: 300px;"" />
                   </div>","null","",""
"","","","","","html-keyboard-response","78","465737","0.0-78.0","EF39775A5EFC446388D25D2217B5401F","0199d03e-7172-7334-a8e3-1aae591fa0fa","0199d03a-64b5-7588-a054-13255d1a32c0","","null","<div style=""display: flex; justify-content: center; align-items: center;"">
                     <img src=""images/causal/causal_series_9/causal_series_9_b.png"" style=""width: 300px; height: 300px;"" />
                   </div>","null","",""
"","","","","","html-keyboard-response","79","472750","0.0-79.0","EF39775A5EFC446388D25D2217B5401F","0199d03e-7172-7334-a8e3-1aae591fa0fa","0199d03a-64b5-7588-a054-13255d1a32c0","","null","<div style=""display: flex; justify-content: center; align-items: center;"">
                     <img src=""images/causal/causal_series_9/causal_series_9_c.png"" style=""width: 300px; height: 300px;"" />
                   </div>","null","",""
"","","","","","html-button-response","80","479363","0.0-80.0","EF39775A5EFC446388D25D2217B5401F","0199d03e-7172-7334-a8e3-1aae591fa0fa","0199d03a-64b5-7588-a054-13255d1a32c0","","6612","
        <div style=""display: flex; justify-content: center; align-items: center;"">
          <img src=""images/red_deck_2.png"" style=""width: 300px; height: 300px; margin-right: 10px;"" />
          <img src=""images/blue_deck_1.png"" style=""width: 300px; height: 300px;"" />
        </div>","1","1",""
"","","","","","html-keyboard-response","81","486373","0.0-81.0-1.0-0.0","EF39775A5EFC446388D25D2217B5401F","0199d03e-7172-7334-a8e3-1aae591fa0fa","0199d03a-64b5-7588-a054-13255d1a32c0","","null","<div style=""display: flex; justify-content: center; align-items: center;"">
                     <img src=""images/semantic/semantic_series_9/semantic_series_9_d.png"" style=""width: 300px; height: 300px;"" />
                   </div>","null","",""
"","","","","","survey-likert","82","488771","0.0-82.0","EF39775A5EFC446388D25D2217B5401F","0199d03e-7172-7334-a8e3-1aae591fa0fa","0199d03a-64b5-7588-a054-13255d1a32c0","","2397","","{""Q0"":1}","","[0]"
"","","","","","survey-likert","83","489816","0.0-83.0","EF39775A5EFC446388D25D2217B5401F","0199d03e-7172-7334-a8e3-1aae591fa0fa","0199d03a-64b5-7588-a054-13255d1a32c0","","1044","","{""Q0"":3}","","[0]"
"","","","","","html-keyboard-response","84","496830","0.0-84.0","EF39775A5EFC446388D25D2217B5401F","0199d03e-7172-7334-a8e3-1aae591fa0fa","0199d03a-64b5-7588-a054-13255d1a32c0","","null","<div style=""display: flex; justify-content: center; align-items: center;"">
                     <img src=""images/other/blank.png"" style=""width: 300px; height: 300px;"" />
                   </div>","null","",""
"","","","","","survey-text","85","542145","0.0-85.0","EF39775A5EFC446388D25D2217B5401F","0199d03e-7172-7334-a8e3-1aae591fa0fa","0199d03a-64b5-7588-a054-13255d1a32c0","","45312","","{""Q0"":""I haven't really recognized a pattern""}","",""
"","","","","","html-button-response","86","550949","0.0-86.0","EF39775A5EFC446388D25D2217B5401F","0199d03e-7172-7334-a8e3-1aae591fa0fa","0199d03a-64b5-7588-a054-13255d1a32c0","","8803","Which color deck do the following images continue the story from?","0","",""
"","","","","","html-button-response","87","552703","0.0-87.0","EF39775A5EFC446388D25D2217B5401F","0199d03e-7172-7334-a8e3-1aae591fa0fa","0199d03a-64b5-7588-a054-13255d1a32c0","","1753","Which color deck do the following images NOT follow the story from?","1","",""
"","","","","","html-button-response","88","567949","0.0-88.0","EF39775A5EFC446388D25D2217B5401F","0199d03e-7172-7334-a8e3-1aae591fa0fa","0199d03a-64b5-7588-a054-13255d1a32c0","","15245","Which type of deck did you prefer overall?","0","",""
"","","","","","survey-text","89","573848","0.0-89.0","EF39775A5EFC446388D25D2217B5401F","0199d03e-7172-7334-a8e3-1aae591fa0fa","0199d03a-64b5-7588-a054-13255d1a32c0","","5895","","{""Q0"":""MALE"",""Q1"":""32""}","",""
"","","","","","instructions","90","578275","0.0-90.0","EF39775A5EFC446388D25D2217B5401F","0199d03e-7172-7334-a8e3-1aae591fa0fa","0199d03a-64b5-7588-a054-13255d1a32c0","[{""page_index"":0,""viewing_time"":4426}]","4426","","","",""
