"success","timeout","failed_images","failed_audio","failed_video","trial_type","trial_index","time_elapsed","internal_node_id","subject_id","study_id","session_id","view_history","rt","stimulus","response","choice"
"true","false","[]","[]","[]","preload","0","6132","0.0-0.0","0AF3E3CC85D14A76BB40B747590A18CE","4e066a22-3807-4cc7-8aa5-82c7f2291976","61e1ec61-13c7-4a8f-bf47-a91ec9909364","","","","",""
"","","","","","instructions","1","7609","0.0-1.0","0AF3E3CC85D14A76BB40B747590A18CE","4e066a22-3807-4cc7-8aa5-82c7f2291976","61e1ec61-13c7-4a8f-bf47-a91ec9909364","[{""page_index"":0,""viewing_time"":1476}]","1476","","",""
"","","","","","instructions","2","10593","0.0-2.0","0AF3E3CC85D14A76BB40B747590A18CE","4e066a22-3807-4cc7-8aa5-82c7f2291976","61e1ec61-13c7-4a8f-bf47-a91ec9909364","[{""page_index"":0,""viewing_time"":2984}]","2984","","",""
"true","","","","","fullscreen","3","12893","0.0-3.0","0AF3E3CC85D14A76BB40B747590A18CE","4e066a22-3807-4cc7-8aa5-82c7f2291976","61e1ec61-13c7-4a8f-bf47-a91ec9909364","","1283","","",""
"","","","","","instructions","4","25373","0.0-4.0","0AF3E3CC85D14A76BB40B747590A18CE","4e066a22-3807-4cc7-8aa5-82c7f2291976","61e1ec61-13c7-4a8f-bf47-a91ec9909364","[{""page_index"":0,""viewing_time"":12479}]","12480","","",""
"","","","","","html-keyboard-response","5","28378","0.0-5.0","0AF3E3CC85D14A76BB40B747590A18CE","4e066a22-3807-4cc7-8aa5-82c7f2291976","61e1ec61-13c7-4a8f-bf47-a91ec9909364","","null","<div style=""display: flex; justify-content: center; align-items: center;"">
                <img src=""images/causal/causal_series_13/causal_series_13_a.jpg"" style=""width: 300px; height: 300px;"" />
              </div>","null",""
"","","","","","html-keyboard-response","6","31392","0.0-6.0","0AF3E3CC85D14A76BB40B747590A18CE","4e066a22-3807-4cc7-8aa5-82c7f2291976","61e1ec61-13c7-4a8f-bf47-a91ec9909364","","null","<div style=""display: flex; justify-content: center; align-items: center;"">
                <img src=""images/causal/causal_series_13/causal_series_13_b.jpg"" style=""width: 300px; height: 300px;"" />
              </div>","null",""
"","","","","","html-keyboard-response","7","34399","0.0-7.0","0AF3E3CC85D14A76BB40B747590A18CE","4e066a22-3807-4cc7-8aa5-82c7f2291976","61e1ec61-13c7-4a8f-bf47-a91ec9909364","","null","<div style=""display: flex; justify-content: center; align-items: center;"">
                <img src=""images/causal/causal_series_13/causal_series_13_c.jpg"" style=""width: 300px; height: 300px;"" />
              </div>","null",""
"","","","","","html-button-response","8","36398","0.0-8.0","0AF3E3CC85D14A76BB40B747590A18CE","4e066a22-3807-4cc7-8aa5-82c7f2291976","61e1ec61-13c7-4a8f-bf47-a91ec9909364","","1997","
    <div style=""display: flex; justify-content: center; align-items: center;"">
      <img src=""images/red_deck_2.png"" style=""width: 300px; height: 300px; margin-right: 10px;"" />
      <img src=""images/blue_deck_1.png"" style=""width: 300px; height: 300px;"" />
    </div>","1","1"
"","","","","","html-keyboard-response","9","39404","0.0-9.0-1.0-0.0","0AF3E3CC85D14A76BB40B747590A18CE","4e066a22-3807-4cc7-8aa5-82c7f2291976","61e1ec61-13c7-4a8f-bf47-a91ec9909364","","null","<div style=""display: flex; justify-content: center; align-items: center;"">
                <img src=""images/semantic/semantic_series_12/semantic_series_12_d.jpg"" style=""width: 300px; height: 300px;"" />
              </div>","null",""
"","","","","","html-keyboard-response","10","42407","0.0-10.0","0AF3E3CC85D14A76BB40B747590A18CE","4e066a22-3807-4cc7-8aa5-82c7f2291976","61e1ec61-13c7-4a8f-bf47-a91ec9909364","","null","<div style=""display: flex; justify-content: center; align-items: center;"">
                <img src=""images/other/blank.jpg"" style=""width: 300px; height: 300px;"" />
              </div>","null",""
"","","","","","html-keyboard-response","11","45418","0.0-11.0","0AF3E3CC85D14A76BB40B747590A18CE","4e066a22-3807-4cc7-8aa5-82c7f2291976","61e1ec61-13c7-4a8f-bf47-a91ec9909364","","null","<div style=""display: flex; justify-content: center; align-items: center;"">
                <img src=""images/causal/causal_series_11/causal_series_11_a.jpg"" style=""width: 300px; height: 300px;"" />
              </div>","null",""
"","","","","","html-keyboard-response","12","48428","0.0-12.0","0AF3E3CC85D14A76BB40B747590A18CE","4e066a22-3807-4cc7-8aa5-82c7f2291976","61e1ec61-13c7-4a8f-bf47-a91ec9909364","","null","<div style=""display: flex; justify-content: center; align-items: center;"">
                <img src=""images/causal/causal_series_11/causal_series_11_b.jpg"" style=""width: 300px; height: 300px;"" />
              </div>","null",""
"","","","","","html-keyboard-response","13","51444","0.0-13.0","0AF3E3CC85D14A76BB40B747590A18CE","4e066a22-3807-4cc7-8aa5-82c7f2291976","61e1ec61-13c7-4a8f-bf47-a91ec9909364","","null","<div style=""display: flex; justify-content: center; align-items: center;"">
                <img src=""images/causal/causal_series_11/causal_series_11_c.jpg"" style=""width: 300px; height: 300px;"" />
              </div>","null",""
"","","","","","html-button-response","14","52761","0.0-14.0","0AF3E3CC85D14A76BB40B747590A18CE","4e066a22-3807-4cc7-8aa5-82c7f2291976","61e1ec61-13c7-4a8f-bf47-a91ec9909364","","1316","
    <div style=""display: flex; justify-content: center; align-items: center;"">
      <img src=""images/red_deck_2.png"" style=""width: 300px; height: 300px; margin-right: 10px;"" />
      <img src=""images/blue_deck_1.png"" style=""width: 300px; height: 300px;"" />
    </div>","0","0"
"","","","","","html-keyboard-response","15","55765","0.0-15.0-0.0-0.0","0AF3E3CC85D14A76BB40B747590A18CE","4e066a22-3807-4cc7-8aa5-82c7f2291976","61e1ec61-13c7-4a8f-bf47-a91ec9909364","","null","<div style=""display: flex; justify-content: center; align-items: center;"">
                <img src=""images/causal/causal_series_11/causal_series_11_d.jpg"" style=""width: 300px; height: 300px;"" />
              </div>","null",""
"","","","","","html-keyboard-response","16","58769","0.0-16.0","0AF3E3CC85D14A76BB40B747590A18CE","4e066a22-3807-4cc7-8aa5-82c7f2291976","61e1ec61-13c7-4a8f-bf47-a91ec9909364","","null","<div style=""display: flex; justify-content: center; align-items: center;"">
                <img src=""images/other/blank.jpg"" style=""width: 300px; height: 300px;"" />
              </div>","null",""
"","","","","","html-keyboard-response","17","61771","0.0-17.0","0AF3E3CC85D14A76BB40B747590A18CE","4e066a22-3807-4cc7-8aa5-82c7f2291976","61e1ec61-13c7-4a8f-bf47-a91ec9909364","","null","<div style=""display: flex; justify-content: center; align-items: center;"">
                <img src=""images/causal/causal_series_16/causal_series_16_a.jpg"" style=""width: 300px; height: 300px;"" />
              </div>","null",""
"","","","","","html-keyboard-response","18","64786","0.0-18.0","0AF3E3CC85D14A76BB40B747590A18CE","4e066a22-3807-4cc7-8aa5-82c7f2291976","61e1ec61-13c7-4a8f-bf47-a91ec9909364","","null","<div style=""display: flex; justify-content: center; align-items: center;"">
                <img src=""images/causal/causal_series_16/causal_series_16_b.jpg"" style=""width: 300px; height: 300px;"" />
              </div>","null",""
"","","","","","html-keyboard-response","19","67788","0.0-19.0","0AF3E3CC85D14A76BB40B747590A18CE","4e066a22-3807-4cc7-8aa5-82c7f2291976","61e1ec61-13c7-4a8f-bf47-a91ec9909364","","null","<div style=""display: flex; justify-content: center; align-items: center;"">
                <img src=""images/causal/causal_series_16/causal_series_16_c.jpg"" style=""width: 300px; height: 300px;"" />
              </div>","null",""
"","","","","","html-button-response","20","69029","0.0-20.0","0AF3E3CC85D14A76BB40B747590A18CE","4e066a22-3807-4cc7-8aa5-82c7f2291976","61e1ec61-13c7-4a8f-bf47-a91ec9909364","","1240","
    <div style=""display: flex; justify-content: center; align-items: center;"">
      <img src=""images/red_deck_2.png"" style=""width: 300px; height: 300px; margin-right: 10px;"" />
      <img src=""images/blue_deck_1.png"" style=""width: 300px; height: 300px;"" />
    </div>","1","1"
"","","","","","html-keyboard-response","21","72035","0.0-21.0-1.0-0.0","0AF3E3CC85D14A76BB40B747590A18CE","4e066a22-3807-4cc7-8aa5-82c7f2291976","61e1ec61-13c7-4a8f-bf47-a91ec9909364","","null","<div style=""display: flex; justify-content: center; align-items: center;"">
                <img src=""images/semantic/semantic_series_15/semantic_series_15_d.jpg"" style=""width: 300px; height: 300px;"" />
              </div>","null",""
"","","","","","html-keyboard-response","22","75050","0.0-22.0","0AF3E3CC85D14A76BB40B747590A18CE","4e066a22-3807-4cc7-8aa5-82c7f2291976","61e1ec61-13c7-4a8f-bf47-a91ec9909364","","null","<div style=""display: flex; justify-content: center; align-items: center;"">
                <img src=""images/other/blank.jpg"" style=""width: 300px; height: 300px;"" />
              </div>","null",""
"","","","","","html-keyboard-response","23","78066","0.0-23.0","0AF3E3CC85D14A76BB40B747590A18CE","4e066a22-3807-4cc7-8aa5-82c7f2291976","61e1ec61-13c7-4a8f-bf47-a91ec9909364","","null","<div style=""display: flex; justify-content: center; align-items: center;"">
                <img src=""images/causal/causal_series_17/causal_series_17_a.jpg"" style=""width: 300px; height: 300px;"" />
              </div>","null",""
"","","","","","html-keyboard-response","24","81080","0.0-24.0","0AF3E3CC85D14A76BB40B747590A18CE","4e066a22-3807-4cc7-8aa5-82c7f2291976","61e1ec61-13c7-4a8f-bf47-a91ec9909364","","null","<div style=""display: flex; justify-content: center; align-items: center;"">
                <img src=""images/causal/causal_series_17/causal_series_17_b.jpg"" style=""width: 300px; height: 300px;"" />
              </div>","null",""
"","","","","","html-keyboard-response","25","84086","0.0-25.0","0AF3E3CC85D14A76BB40B747590A18CE","4e066a22-3807-4cc7-8aa5-82c7f2291976","61e1ec61-13c7-4a8f-bf47-a91ec9909364","","null","<div style=""display: flex; justify-content: center; align-items: center;"">
                <img src=""images/causal/causal_series_17/causal_series_17_c.jpg"" style=""width: 300px; height: 300px;"" />
              </div>","null",""
"","","","","","html-button-response","26","85369","0.0-26.0","0AF3E3CC85D14A76BB40B747590A18CE","4e066a22-3807-4cc7-8aa5-82c7f2291976","61e1ec61-13c7-4a8f-bf47-a91ec9909364","","1282","
    <div style=""display: flex; justify-content: center; align-items: center;"">
      <img src=""images/red_deck_2.png"" style=""width: 300px; height: 300px; margin-right: 10px;"" />
      <img src=""images/blue_deck_1.png"" style=""width: 300px; height: 300px;"" />
    </div>","1","1"
"","","","","","html-keyboard-response","27","88375","0.0-27.0-1.0-0.0","0AF3E3CC85D14A76BB40B747590A18CE","4e066a22-3807-4cc7-8aa5-82c7f2291976","61e1ec61-13c7-4a8f-bf47-a91ec9909364","","null","<div style=""display: flex; justify-content: center; align-items: center;"">
                <img src=""images/semantic/semantic_series_16/semantic_series_16_d.jpg"" style=""width: 300px; height: 300px;"" />
              </div>","null",""
"","","","","","html-keyboard-response","28","91379","0.0-28.0","0AF3E3CC85D14A76BB40B747590A18CE","4e066a22-3807-4cc7-8aa5-82c7f2291976","61e1ec61-13c7-4a8f-bf47-a91ec9909364","","null","<div style=""display: flex; justify-content: center; align-items: center;"">
                <img src=""images/other/blank.jpg"" style=""width: 300px; height: 300px;"" />
              </div>","null",""
"","","","","","html-keyboard-response","29","94387","0.0-29.0","0AF3E3CC85D14A76BB40B747590A18CE","4e066a22-3807-4cc7-8aa5-82c7f2291976","61e1ec61-13c7-4a8f-bf47-a91ec9909364","","null","<div style=""display: flex; justify-content: center; align-items: center;"">
                <img src=""images/causal/causal_series_2/causal_series_2_a.jpg"" style=""width: 300px; height: 300px;"" />
              </div>","null",""
"","","","","","html-keyboard-response","30","97392","0.0-30.0","0AF3E3CC85D14A76BB40B747590A18CE","4e066a22-3807-4cc7-8aa5-82c7f2291976","61e1ec61-13c7-4a8f-bf47-a91ec9909364","","null","<div style=""display: flex; justify-content: center; align-items: center;"">
                <img src=""images/causal/causal_series_2/causal_series_2_b.jpg"" style=""width: 300px; height: 300px;"" />
              </div>","null",""
"","","","","","html-keyboard-response","31","100406","0.0-31.0","0AF3E3CC85D14A76BB40B747590A18CE","4e066a22-3807-4cc7-8aa5-82c7f2291976","61e1ec61-13c7-4a8f-bf47-a91ec9909364","","null","<div style=""display: flex; justify-content: center; align-items: center;"">
                <img src=""images/causal/causal_series_2/causal_series_2_c.jpg"" style=""width: 300px; height: 300px;"" />
              </div>","null",""
"","","","","","html-button-response","32","101745","0.0-32.0","0AF3E3CC85D14A76BB40B747590A18CE","4e066a22-3807-4cc7-8aa5-82c7f2291976","61e1ec61-13c7-4a8f-bf47-a91ec9909364","","1337","
    <div style=""display: flex; justify-content: center; align-items: center;"">
      <img src=""images/red_deck_2.png"" style=""width: 300px; height: 300px; margin-right: 10px;"" />
      <img src=""images/blue_deck_1.png"" style=""width: 300px; height: 300px;"" />
    </div>","0","0"
"","","","","","html-keyboard-response","33","104750","0.0-33.0-0.0-0.0","0AF3E3CC85D14A76BB40B747590A18CE","4e066a22-3807-4cc7-8aa5-82c7f2291976","61e1ec61-13c7-4a8f-bf47-a91ec9909364","","null","<div style=""display: flex; justify-content: center; align-items: center;"">
                <img src=""images/causal/causal_series_2/causal_series_2_d.jpg"" style=""width: 300px; height: 300px;"" />
              </div>","null",""
"","","","","","html-keyboard-response","34","107757","0.0-34.0","0AF3E3CC85D14A76BB40B747590A18CE","4e066a22-3807-4cc7-8aa5-82c7f2291976","61e1ec61-13c7-4a8f-bf47-a91ec9909364","","null","<div style=""display: flex; justify-content: center; align-items: center;"">
                <img src=""images/other/blank.jpg"" style=""width: 300px; height: 300px;"" />
              </div>","null",""
"","","","","","html-keyboard-response","35","110768","0.0-35.0","0AF3E3CC85D14A76BB40B747590A18CE","4e066a22-3807-4cc7-8aa5-82c7f2291976","61e1ec61-13c7-4a8f-bf47-a91ec9909364","","null","<div style=""display: flex; justify-content: center; align-items: center;"">
                <img src=""images/causal/causal_series_3/causal_series_3_a.jpg"" style=""width: 300px; height: 300px;"" />
              </div>","null",""
"","","","","","html-keyboard-response","36","113781","0.0-36.0","0AF3E3CC85D14A76BB40B747590A18CE","4e066a22-3807-4cc7-8aa5-82c7f2291976","61e1ec61-13c7-4a8f-bf47-a91ec9909364","","null","<div style=""display: flex; justify-content: center; align-items: center;"">
                <img src=""images/causal/causal_series_3/causal_series_3_b.jpg"" style=""width: 300px; height: 300px;"" />
              </div>","null",""
"","","","","","html-keyboard-response","37","116793","0.0-37.0","0AF3E3CC85D14A76BB40B747590A18CE","4e066a22-3807-4cc7-8aa5-82c7f2291976","61e1ec61-13c7-4a8f-bf47-a91ec9909364","","null","<div style=""display: flex; justify-content: center; align-items: center;"">
                <img src=""images/causal/causal_series_3/causal_series_3_c.jpg"" style=""width: 300px; height: 300px;"" />
              </div>","null",""
"","","","","","html-button-response","38","118053","0.0-38.0","0AF3E3CC85D14A76BB40B747590A18CE","4e066a22-3807-4cc7-8aa5-82c7f2291976","61e1ec61-13c7-4a8f-bf47-a91ec9909364","","1259","
    <div style=""display: flex; justify-content: center; align-items: center;"">
      <img src=""images/red_deck_2.png"" style=""width: 300px; height: 300px; margin-right: 10px;"" />
      <img src=""images/blue_deck_1.png"" style=""width: 300px; height: 300px;"" />
    </div>","1","1"
"","","","","","html-keyboard-response","39","121059","0.0-39.0-1.0-0.0","0AF3E3CC85D14A76BB40B747590A18CE","4e066a22-3807-4cc7-8aa5-82c7f2291976","61e1ec61-13c7-4a8f-bf47-a91ec9909364","","null","<div style=""display: flex; justify-content: center; align-items: center;"">
                <img src=""images/semantic/semantic_series_2/semantic_series_2_d.jpg"" style=""width: 300px; height: 300px;"" />
              </div>","null",""
"","","","","","html-keyboard-response","40","124076","0.0-40.0","0AF3E3CC85D14A76BB40B747590A18CE","4e066a22-3807-4cc7-8aa5-82c7f2291976","61e1ec61-13c7-4a8f-bf47-a91ec9909364","","null","<div style=""display: flex; justify-content: center; align-items: center;"">
                <img src=""images/other/blank.jpg"" style=""width: 300px; height: 300px;"" />
              </div>","null",""
"","","","","","html-keyboard-response","41","127090","0.0-41.0","0AF3E3CC85D14A76BB40B747590A18CE","4e066a22-3807-4cc7-8aa5-82c7f2291976","61e1ec61-13c7-4a8f-bf47-a91ec9909364","","null","<div style=""display: flex; justify-content: center; align-items: center;"">
                <img src=""images/causal/causal_series_7/causal_series_7_a.jpg"" style=""width: 300px; height: 300px;"" />
              </div>","null",""
"","","","","","html-keyboard-response","42","130091","0.0-42.0","0AF3E3CC85D14A76BB40B747590A18CE","4e066a22-3807-4cc7-8aa5-82c7f2291976","61e1ec61-13c7-4a8f-bf47-a91ec9909364","","null","<div style=""display: flex; justify-content: center; align-items: center;"">
                <img src=""images/causal/causal_series_7/causal_series_7_b.jpg"" style=""width: 300px; height: 300px;"" />
              </div>","null",""
"","","","","","html-keyboard-response","43","133097","0.0-43.0","0AF3E3CC85D14A76BB40B747590A18CE","4e066a22-3807-4cc7-8aa5-82c7f2291976","61e1ec61-13c7-4a8f-bf47-a91ec9909364","","null","<div style=""display: flex; justify-content: center; align-items: center;"">
                <img src=""images/causal/causal_series_7/causal_series_7_c.jpg"" style=""width: 300px; height: 300px;"" />
              </div>","null",""
"","","","","","html-button-response","44","133993","0.0-44.0","0AF3E3CC85D14A76BB40B747590A18CE","4e066a22-3807-4cc7-8aa5-82c7f2291976","61e1ec61-13c7-4a8f-bf47-a91ec9909364","","895","
    <div style=""display: flex; justify-content: center; align-items: center;"">
      <img src=""images/red_deck_2.png"" style=""width: 300px; height: 300px; margin-right: 10px;"" />
      <img src=""images/blue_deck_1.png"" style=""width: 300px; height: 300px;"" />
    </div>","0","0"
"","","","","","html-keyboard-response","45","137007","0.0-45.0-0.0-0.0","0AF3E3CC85D14A76BB40B747590A18CE","4e066a22-3807-4cc7-8aa5-82c7f2291976","61e1ec61-13c7-4a8f-bf47-a91ec9909364","","null","<div style=""display: flex; justify-content: center; align-items: center;"">
                <img src=""images/causal/causal_series_7/causal_series_7_d.jpg"" style=""width: 300px; height: 300px;"" />
              </div>","null",""
"","","","","","html-keyboard-response","46","140008","0.0-46.0","0AF3E3CC85D14A76BB40B747590A18CE","4e066a22-3807-4cc7-8aa5-82c7f2291976","61e1ec61-13c7-4a8f-bf47-a91ec9909364","","null","<div style=""display: flex; justify-content: center; align-items: center;"">
                <img src=""images/other/blank.jpg"" style=""width: 300px; height: 300px;"" />
              </div>","null",""
"","","","","","html-keyboard-response","47","143024","0.0-47.0","0AF3E3CC85D14A76BB40B747590A18CE","4e066a22-3807-4cc7-8aa5-82c7f2291976","61e1ec61-13c7-4a8f-bf47-a91ec9909364","","null","<div style=""display: flex; justify-content: center; align-items: center;"">
                <img src=""images/causal/causal_series_10/causal_series_10_a.jpg"" style=""width: 300px; height: 300px;"" />
              </div>","null",""
"","","","","","html-keyboard-response","48","146040","0.0-48.0","0AF3E3CC85D14A76BB40B747590A18CE","4e066a22-3807-4cc7-8aa5-82c7f2291976","61e1ec61-13c7-4a8f-bf47-a91ec9909364","","null","<div style=""display: flex; justify-content: center; align-items: center;"">
                <img src=""images/causal/causal_series_10/causal_series_10_b.jpg"" style=""width: 300px; height: 300px;"" />
              </div>","null",""
"","","","","","html-keyboard-response","49","149052","0.0-49.0","0AF3E3CC85D14A76BB40B747590A18CE","4e066a22-3807-4cc7-8aa5-82c7f2291976","61e1ec61-13c7-4a8f-bf47-a91ec9909364","","null","<div style=""display: flex; justify-content: center; align-items: center;"">
                <img src=""images/causal/causal_series_10/causal_series_10_c.jpg"" style=""width: 300px; height: 300px;"" />
              </div>","null",""
"","","","","","html-button-response","50","150341","0.0-50.0","0AF3E3CC85D14A76BB40B747590A18CE","4e066a22-3807-4cc7-8aa5-82c7f2291976","61e1ec61-13c7-4a8f-bf47-a91ec9909364","","1288","
    <div style=""display: flex; justify-content: center; align-items: center;"">
      <img src=""images/red_deck_2.png"" style=""width: 300px; height: 300px; margin-right: 10px;"" />
      <img src=""images/blue_deck_1.png"" style=""width: 300px; height: 300px;"" />
    </div>","1","1"
"","","","","","html-keyboard-response","51","153354","0.0-51.0-1.0-0.0","0AF3E3CC85D14A76BB40B747590A18CE","4e066a22-3807-4cc7-8aa5-82c7f2291976","61e1ec61-13c7-4a8f-bf47-a91ec9909364","","null","<div style=""display: flex; justify-content: center; align-items: center;"">
                <img src=""images/semantic/semantic_series_9/semantic_series_9_d.jpg"" style=""width: 300px; height: 300px;"" />
              </div>","null",""
"","","","","","html-keyboard-response","52","156365","0.0-52.0","0AF3E3CC85D14A76BB40B747590A18CE","4e066a22-3807-4cc7-8aa5-82c7f2291976","61e1ec61-13c7-4a8f-bf47-a91ec9909364","","null","<div style=""display: flex; justify-content: center; align-items: center;"">
                <img src=""images/other/blank.jpg"" style=""width: 300px; height: 300px;"" />
              </div>","null",""
"","","","","","html-keyboard-response","53","159376","0.0-53.0","0AF3E3CC85D14A76BB40B747590A18CE","4e066a22-3807-4cc7-8aa5-82c7f2291976","61e1ec61-13c7-4a8f-bf47-a91ec9909364","","null","<div style=""display: flex; justify-content: center; align-items: center;"">
                <img src=""images/causal/causal_series_1/causal_series_1_a.jpg"" style=""width: 300px; height: 300px;"" />
              </div>","null",""
"","","","","","html-keyboard-response","54","162382","0.0-54.0","0AF3E3CC85D14A76BB40B747590A18CE","4e066a22-3807-4cc7-8aa5-82c7f2291976","61e1ec61-13c7-4a8f-bf47-a91ec9909364","","null","<div style=""display: flex; justify-content: center; align-items: center;"">
                <img src=""images/causal/causal_series_1/causal_series_1_b.jpg"" style=""width: 300px; height: 300px;"" />
              </div>","null",""
"","","","","","html-keyboard-response","55","165391","0.0-55.0","0AF3E3CC85D14A76BB40B747590A18CE","4e066a22-3807-4cc7-8aa5-82c7f2291976","61e1ec61-13c7-4a8f-bf47-a91ec9909364","","null","<div style=""display: flex; justify-content: center; align-items: center;"">
                <img src=""images/causal/causal_series_1/causal_series_1_c.jpg"" style=""width: 300px; height: 300px;"" />
              </div>","null",""
"","","","","","html-button-response","56","166945","0.0-56.0","0AF3E3CC85D14A76BB40B747590A18CE","4e066a22-3807-4cc7-8aa5-82c7f2291976","61e1ec61-13c7-4a8f-bf47-a91ec9909364","","1553","
    <div style=""display: flex; justify-content: center; align-items: center;"">
      <img src=""images/red_deck_2.png"" style=""width: 300px; height: 300px; margin-right: 10px;"" />
      <img src=""images/blue_deck_1.png"" style=""width: 300px; height: 300px;"" />
    </div>","1","1"
"","","","","","html-keyboard-response","57","169960","0.0-57.0-1.0-0.0","0AF3E3CC85D14A76BB40B747590A18CE","4e066a22-3807-4cc7-8aa5-82c7f2291976","61e1ec61-13c7-4a8f-bf47-a91ec9909364","","null","<div style=""display: flex; justify-content: center; align-items: center;"">
                <img src=""images/semantic/semantic_series_18/semantic_series_18_d.jpg"" style=""width: 300px; height: 300px;"" />
              </div>","null",""
"","","","","","html-keyboard-response","58","172974","0.0-58.0","0AF3E3CC85D14A76BB40B747590A18CE","4e066a22-3807-4cc7-8aa5-82c7f2291976","61e1ec61-13c7-4a8f-bf47-a91ec9909364","","null","<div style=""display: flex; justify-content: center; align-items: center;"">
                <img src=""images/other/blank.jpg"" style=""width: 300px; height: 300px;"" />
              </div>","null",""
"","","","","","html-keyboard-response","59","175984","0.0-59.0","0AF3E3CC85D14A76BB40B747590A18CE","4e066a22-3807-4cc7-8aa5-82c7f2291976","61e1ec61-13c7-4a8f-bf47-a91ec9909364","","null","<div style=""display: flex; justify-content: center; align-items: center;"">
                <img src=""images/causal/causal_series_4/causal_series_4_a.jpg"" style=""width: 300px; height: 300px;"" />
              </div>","null",""
"","","","","","html-keyboard-response","60","178994","0.0-60.0","0AF3E3CC85D14A76BB40B747590A18CE","4e066a22-3807-4cc7-8aa5-82c7f2291976","61e1ec61-13c7-4a8f-bf47-a91ec9909364","","null","<div style=""display: flex; justify-content: center; align-items: center;"">
                <img src=""images/causal/causal_series_4/causal_series_4_b.jpg"" style=""width: 300px; height: 300px;"" />
              </div>","null",""
"","","","","","html-keyboard-response","61","181997","0.0-61.0","0AF3E3CC85D14A76BB40B747590A18CE","4e066a22-3807-4cc7-8aa5-82c7f2291976","61e1ec61-13c7-4a8f-bf47-a91ec9909364","","null","<div style=""display: flex; justify-content: center; align-items: center;"">
                <img src=""images/causal/causal_series_4/causal_series_4_c.jpg"" style=""width: 300px; height: 300px;"" />
              </div>","null",""
"","","","","","html-button-response","62","182881","0.0-62.0","0AF3E3CC85D14A76BB40B747590A18CE","4e066a22-3807-4cc7-8aa5-82c7f2291976","61e1ec61-13c7-4a8f-bf47-a91ec9909364","","884","
    <div style=""display: flex; justify-content: center; align-items: center;"">
      <img src=""images/red_deck_2.png"" style=""width: 300px; height: 300px; margin-right: 10px;"" />
      <img src=""images/blue_deck_1.png"" style=""width: 300px; height: 300px;"" />
    </div>","0","0"
"","","","","","html-keyboard-response","63","185893","0.0-63.0-0.0-0.0","0AF3E3CC85D14A76BB40B747590A18CE","4e066a22-3807-4cc7-8aa5-82c7f2291976","61e1ec61-13c7-4a8f-bf47-a91ec9909364","","null","<div style=""display: flex; justify-content: center; align-items: center;"">
                <img src=""images/causal/causal_series_4/causal_series_4_d.jpg"" style=""width: 300px; height: 300px;"" />
              </div>","null",""
"","","","","","html-keyboard-response","64","188913","0.0-64.0","0AF3E3CC85D14A76BB40B747590A18CE","4e066a22-3807-4cc7-8aa5-82c7f2291976","61e1ec61-13c7-4a8f-bf47-a91ec9909364","","null","<div style=""display: flex; justify-content: center; align-items: center;"">
                <img src=""images/other/blank.jpg"" style=""width: 300px; height: 300px;"" />
              </div>","null",""
"","","","","","html-keyboard-response","65","191925","0.0-65.0","0AF3E3CC85D14A76BB40B747590A18CE","4e066a22-3807-4cc7-8aa5-82c7f2291976","61e1ec61-13c7-4a8f-bf47-a91ec9909364","","null","<div style=""display: flex; justify-content: center; align-items: center;"">
                <img src=""images/causal/causal_series_12/causal_series_12_a.jpg"" style=""width: 300px; height: 300px;"" />
              </div>","null",""
"","","","","","html-keyboard-response","66","194927","0.0-66.0","0AF3E3CC85D14A76BB40B747590A18CE","4e066a22-3807-4cc7-8aa5-82c7f2291976","61e1ec61-13c7-4a8f-bf47-a91ec9909364","","null","<div style=""display: flex; justify-content: center; align-items: center;"">
                <img src=""images/causal/causal_series_12/causal_series_12_b.jpg"" style=""width: 300px; height: 300px;"" />
              </div>","null",""
"","","","","","html-keyboard-response","67","197928","0.0-67.0","0AF3E3CC85D14A76BB40B747590A18CE","4e066a22-3807-4cc7-8aa5-82c7f2291976","61e1ec61-13c7-4a8f-bf47-a91ec9909364","","null","<div style=""display: flex; justify-content: center; align-items: center;"">
                <img src=""images/causal/causal_series_12/causal_series_12_c.jpg"" style=""width: 300px; height: 300px;"" />
              </div>","null",""
"","","","","","html-button-response","68","198705","0.0-68.0","0AF3E3CC85D14A76BB40B747590A18CE","4e066a22-3807-4cc7-8aa5-82c7f2291976","61e1ec61-13c7-4a8f-bf47-a91ec9909364","","775","
    <div style=""display: flex; justify-content: center; align-items: center;"">
      <img src=""images/red_deck_2.png"" style=""width: 300px; height: 300px; margin-right: 10px;"" />
      <img src=""images/blue_deck_1.png"" style=""width: 300px; height: 300px;"" />
    </div>","0","0"
"","","","","","html-keyboard-response","69","201717","0.0-69.0-0.0-0.0","0AF3E3CC85D14A76BB40B747590A18CE","4e066a22-3807-4cc7-8aa5-82c7f2291976","61e1ec61-13c7-4a8f-bf47-a91ec9909364","","null","<div style=""display: flex; justify-content: center; align-items: center;"">
                <img src=""images/causal/causal_series_12/causal_series_12_d.jpg"" style=""width: 300px; height: 300px;"" />
              </div>","null",""
"","","","","","html-keyboard-response","70","204730","0.0-70.0","0AF3E3CC85D14A76BB40B747590A18CE","4e066a22-3807-4cc7-8aa5-82c7f2291976","61e1ec61-13c7-4a8f-bf47-a91ec9909364","","null","<div style=""display: flex; justify-content: center; align-items: center;"">
                <img src=""images/other/blank.jpg"" style=""width: 300px; height: 300px;"" />
              </div>","null",""
"","","","","","html-keyboard-response","71","207745","0.0-71.0","0AF3E3CC85D14A76BB40B747590A18CE","4e066a22-3807-4cc7-8aa5-82c7f2291976","61e1ec61-13c7-4a8f-bf47-a91ec9909364","","null","<div style=""display: flex; justify-content: center; align-items: center;"">
                <img src=""images/causal/causal_series_18/causal_series_18_a.jpg"" style=""width: 300px; height: 300px;"" />
              </div>","null",""
"","","","","","html-keyboard-response","72","210747","0.0-72.0","0AF3E3CC85D14A76BB40B747590A18CE","4e066a22-3807-4cc7-8aa5-82c7f2291976","61e1ec61-13c7-4a8f-bf47-a91ec9909364","","null","<div style=""display: flex; justify-content: center; align-items: center;"">
                <img src=""images/causal/causal_series_18/causal_series_18_b.jpg"" style=""width: 300px; height: 300px;"" />
              </div>","null",""
"","","","","","html-keyboard-response","73","213749","0.0-73.0","0AF3E3CC85D14A76BB40B747590A18CE","4e066a22-3807-4cc7-8aa5-82c7f2291976","61e1ec61-13c7-4a8f-bf47-a91ec9909364","","null","<div style=""display: flex; justify-content: center; align-items: center;"">
                <img src=""images/causal/causal_series_18/causal_series_18_c.jpg"" style=""width: 300px; height: 300px;"" />
              </div>","null",""
"","","","","","html-button-response","74","215173","0.0-74.0","0AF3E3CC85D14A76BB40B747590A18CE","4e066a22-3807-4cc7-8aa5-82c7f2291976","61e1ec61-13c7-4a8f-bf47-a91ec9909364","","1423","
    <div style=""display: flex; justify-content: center; align-items: center;"">
      <img src=""images/red_deck_2.png"" style=""width: 300px; height: 300px; margin-right: 10px;"" />
      <img src=""images/blue_deck_1.png"" style=""width: 300px; height: 300px;"" />
    </div>","1","1"
"","","","","","html-keyboard-response","75","218177","0.0-75.0-1.0-0.0","0AF3E3CC85D14A76BB40B747590A18CE","4e066a22-3807-4cc7-8aa5-82c7f2291976","61e1ec61-13c7-4a8f-bf47-a91ec9909364","","null","<div style=""display: flex; justify-content: center; align-items: center;"">
                <img src=""images/semantic/semantic_series_17/semantic_series_17_d.jpg"" style=""width: 300px; height: 300px;"" />
              </div>","null",""
"","","","","","html-keyboard-response","76","221180","0.0-76.0","0AF3E3CC85D14A76BB40B747590A18CE","4e066a22-3807-4cc7-8aa5-82c7f2291976","61e1ec61-13c7-4a8f-bf47-a91ec9909364","","null","<div style=""display: flex; justify-content: center; align-items: center;"">
                <img src=""images/other/blank.jpg"" style=""width: 300px; height: 300px;"" />
              </div>","null",""
"","","","","","html-keyboard-response","77","224189","0.0-77.0","0AF3E3CC85D14A76BB40B747590A18CE","4e066a22-3807-4cc7-8aa5-82c7f2291976","61e1ec61-13c7-4a8f-bf47-a91ec9909364","","null","<div style=""display: flex; justify-content: center; align-items: center;"">
                <img src=""images/causal/causal_series_15/causal_series_15_a.jpg"" style=""width: 300px; height: 300px;"" />
              </div>","null",""
"","","","","","html-keyboard-response","78","227193","0.0-78.0","0AF3E3CC85D14A76BB40B747590A18CE","4e066a22-3807-4cc7-8aa5-82c7f2291976","61e1ec61-13c7-4a8f-bf47-a91ec9909364","","null","<div style=""display: flex; justify-content: center; align-items: center;"">
                <img src=""images/causal/causal_series_15/causal_series_15_b.jpg"" style=""width: 300px; height: 300px;"" />
              </div>","null",""
"","","","","","html-keyboard-response","79","230198","0.0-79.0","0AF3E3CC85D14A76BB40B747590A18CE","4e066a22-3807-4cc7-8aa5-82c7f2291976","61e1ec61-13c7-4a8f-bf47-a91ec9909364","","null","<div style=""display: flex; justify-content: center; align-items: center;"">
                <img src=""images/causal/causal_series_15/causal_series_15_c.jpg"" style=""width: 300px; height: 300px;"" />
              </div>","null",""
"","","","","","html-button-response","80","231145","0.0-80.0","0AF3E3CC85D14A76BB40B747590A18CE","4e066a22-3807-4cc7-8aa5-82c7f2291976","61e1ec61-13c7-4a8f-bf47-a91ec9909364","","945","
    <div style=""display: flex; justify-content: center; align-items: center;"">
      <img src=""images/red_deck_2.png"" style=""width: 300px; height: 300px; margin-right: 10px;"" />
      <img src=""images/blue_deck_1.png"" style=""width: 300px; height: 300px;"" />
    </div>","0","0"
"","","","","","html-keyboard-response","81","234152","0.0-81.0-0.0-0.0","0AF3E3CC85D14A76BB40B747590A18CE","4e066a22-3807-4cc7-8aa5-82c7f2291976","61e1ec61-13c7-4a8f-bf47-a91ec9909364","","null","<div style=""display: flex; justify-content: center; align-items: center;"">
                <img src=""images/causal/causal_series_15/causal_series_15_d.jpg"" style=""width: 300px; height: 300px;"" />
              </div>","null",""
"","","","","","html-keyboard-response","82","237165","0.0-82.0","0AF3E3CC85D14A76BB40B747590A18CE","4e066a22-3807-4cc7-8aa5-82c7f2291976","61e1ec61-13c7-4a8f-bf47-a91ec9909364","","null","<div style=""display: flex; justify-content: center; align-items: center;"">
                <img src=""images/other/blank.jpg"" style=""width: 300px; height: 300px;"" />
              </div>","null",""
"","","","","","html-keyboard-response","83","240172","0.0-83.0","0AF3E3CC85D14A76BB40B747590A18CE","4e066a22-3807-4cc7-8aa5-82c7f2291976","61e1ec61-13c7-4a8f-bf47-a91ec9909364","","null","<div style=""display: flex; justify-content: center; align-items: center;"">
                <img src=""images/causal/causal_series_14/causal_series_14_a.jpg"" style=""width: 300px; height: 300px;"" />
              </div>","null",""
"","","","","","html-keyboard-response","84","243181","0.0-84.0","0AF3E3CC85D14A76BB40B747590A18CE","4e066a22-3807-4cc7-8aa5-82c7f2291976","61e1ec61-13c7-4a8f-bf47-a91ec9909364","","null","<div style=""display: flex; justify-content: center; align-items: center;"">
                <img src=""images/causal/causal_series_14/causal_series_14_b.jpg"" style=""width: 300px; height: 300px;"" />
              </div>","null",""
"","","","","","html-keyboard-response","85","246189","0.0-85.0","0AF3E3CC85D14A76BB40B747590A18CE","4e066a22-3807-4cc7-8aa5-82c7f2291976","61e1ec61-13c7-4a8f-bf47-a91ec9909364","","null","<div style=""display: flex; justify-content: center; align-items: center;"">
                <img src=""images/causal/causal_series_14/causal_series_14_c.jpg"" style=""width: 300px; height: 300px;"" />
              </div>","null",""
"","","","","","html-button-response","86","246981","0.0-86.0","0AF3E3CC85D14A76BB40B747590A18CE","4e066a22-3807-4cc7-8aa5-82c7f2291976","61e1ec61-13c7-4a8f-bf47-a91ec9909364","","791","
    <div style=""display: flex; justify-content: center; align-items: center;"">
      <img src=""images/red_deck_2.png"" style=""width: 300px; height: 300px; margin-right: 10px;"" />
      <img src=""images/blue_deck_1.png"" style=""width: 300px; height: 300px;"" />
    </div>","0","0"
"","","","","","html-keyboard-response","87","249985","0.0-87.0-0.0-0.0","0AF3E3CC85D14A76BB40B747590A18CE","4e066a22-3807-4cc7-8aa5-82c7f2291976","61e1ec61-13c7-4a8f-bf47-a91ec9909364","","null","<div style=""display: flex; justify-content: center; align-items: center;"">
                <img src=""images/causal/causal_series_14/causal_series_14_d.jpg"" style=""width: 300px; height: 300px;"" />
              </div>","null",""
"","","","","","html-keyboard-response","88","252994","0.0-88.0","0AF3E3CC85D14A76BB40B747590A18CE","4e066a22-3807-4cc7-8aa5-82c7f2291976","61e1ec61-13c7-4a8f-bf47-a91ec9909364","","null","<div style=""display: flex; justify-content: center; align-items: center;"">
                <img src=""images/other/blank.jpg"" style=""width: 300px; height: 300px;"" />
              </div>","null",""
"","","","","","html-keyboard-response","89","256003","0.0-89.0","0AF3E3CC85D14A76BB40B747590A18CE","4e066a22-3807-4cc7-8aa5-82c7f2291976","61e1ec61-13c7-4a8f-bf47-a91ec9909364","","null","<div style=""display: flex; justify-content: center; align-items: center;"">
                <img src=""images/causal/causal_series_6/causal_series_6_a.jpg"" style=""width: 300px; height: 300px;"" />
              </div>","null",""
"","","","","","html-keyboard-response","90","259013","0.0-90.0","0AF3E3CC85D14A76BB40B747590A18CE","4e066a22-3807-4cc7-8aa5-82c7f2291976","61e1ec61-13c7-4a8f-bf47-a91ec9909364","","null","<div style=""display: flex; justify-content: center; align-items: center;"">
                <img src=""images/causal/causal_series_6/causal_series_6_b.jpg"" style=""width: 300px; height: 300px;"" />
              </div>","null",""
"","","","","","html-keyboard-response","91","262015","0.0-91.0","0AF3E3CC85D14A76BB40B747590A18CE","4e066a22-3807-4cc7-8aa5-82c7f2291976","61e1ec61-13c7-4a8f-bf47-a91ec9909364","","null","<div style=""display: flex; justify-content: center; align-items: center;"">
                <img src=""images/causal/causal_series_6/causal_series_6_c.jpg"" style=""width: 300px; height: 300px;"" />
              </div>","null",""
"","","","","","html-button-response","92","263045","0.0-92.0","0AF3E3CC85D14A76BB40B747590A18CE","4e066a22-3807-4cc7-8aa5-82c7f2291976","61e1ec61-13c7-4a8f-bf47-a91ec9909364","","1028","
    <div style=""display: flex; justify-content: center; align-items: center;"">
      <img src=""images/red_deck_2.png"" style=""width: 300px; height: 300px; margin-right: 10px;"" />
      <img src=""images/blue_deck_1.png"" style=""width: 300px; height: 300px;"" />
    </div>","0","0"
"","","","","","html-keyboard-response","93","266048","0.0-93.0-0.0-0.0","0AF3E3CC85D14A76BB40B747590A18CE","4e066a22-3807-4cc7-8aa5-82c7f2291976","61e1ec61-13c7-4a8f-bf47-a91ec9909364","","null","<div style=""display: flex; justify-content: center; align-items: center;"">
                <img src=""images/causal/causal_series_6/causal_series_6_d.jpg"" style=""width: 300px; height: 300px;"" />
              </div>","null",""
"","","","","","html-keyboard-response","94","269050","0.0-94.0","0AF3E3CC85D14A76BB40B747590A18CE","4e066a22-3807-4cc7-8aa5-82c7f2291976","61e1ec61-13c7-4a8f-bf47-a91ec9909364","","null","<div style=""display: flex; justify-content: center; align-items: center;"">
                <img src=""images/other/blank.jpg"" style=""width: 300px; height: 300px;"" />
              </div>","null",""
"","","","","","html-keyboard-response","95","272059","0.0-95.0","0AF3E3CC85D14A76BB40B747590A18CE","4e066a22-3807-4cc7-8aa5-82c7f2291976","61e1ec61-13c7-4a8f-bf47-a91ec9909364","","null","<div style=""display: flex; justify-content: center; align-items: center;"">
                <img src=""images/causal/causal_series_5/causal_series_5_a.jpg"" style=""width: 300px; height: 300px;"" />
              </div>","null",""
"","","","","","html-keyboard-response","96","275060","0.0-96.0","0AF3E3CC85D14A76BB40B747590A18CE","4e066a22-3807-4cc7-8aa5-82c7f2291976","61e1ec61-13c7-4a8f-bf47-a91ec9909364","","null","<div style=""display: flex; justify-content: center; align-items: center;"">
                <img src=""images/causal/causal_series_5/causal_series_5_b.jpg"" style=""width: 300px; height: 300px;"" />
              </div>","null",""
"","","","","","html-keyboard-response","97","278074","0.0-97.0","0AF3E3CC85D14A76BB40B747590A18CE","4e066a22-3807-4cc7-8aa5-82c7f2291976","61e1ec61-13c7-4a8f-bf47-a91ec9909364","","null","<div style=""display: flex; justify-content: center; align-items: center;"">
                <img src=""images/causal/causal_series_5/causal_series_5_c.jpg"" style=""width: 300px; height: 300px;"" />
              </div>","null",""
"","","","","","html-button-response","98","279068","0.0-98.0","0AF3E3CC85D14A76BB40B747590A18CE","4e066a22-3807-4cc7-8aa5-82c7f2291976","61e1ec61-13c7-4a8f-bf47-a91ec9909364","","993","
    <div style=""display: flex; justify-content: center; align-items: center;"">
      <img src=""images/red_deck_2.png"" style=""width: 300px; height: 300px; margin-right: 10px;"" />
      <img src=""images/blue_deck_1.png"" style=""width: 300px; height: 300px;"" />
    </div>","0","0"
"","","","","","html-keyboard-response","99","282074","0.0-99.0-0.0-0.0","0AF3E3CC85D14A76BB40B747590A18CE","4e066a22-3807-4cc7-8aa5-82c7f2291976","61e1ec61-13c7-4a8f-bf47-a91ec9909364","","null","<div style=""display: flex; justify-content: center; align-items: center;"">
                <img src=""images/causal/causal_series_5/causal_series_5_d.jpg"" style=""width: 300px; height: 300px;"" />
              </div>","null",""
"","","","","","html-keyboard-response","100","285075","0.0-100.0","0AF3E3CC85D14A76BB40B747590A18CE","4e066a22-3807-4cc7-8aa5-82c7f2291976","61e1ec61-13c7-4a8f-bf47-a91ec9909364","","null","<div style=""display: flex; justify-content: center; align-items: center;"">
                <img src=""images/other/blank.jpg"" style=""width: 300px; height: 300px;"" />
              </div>","null",""
"","","","","","html-keyboard-response","101","288078","0.0-101.0","0AF3E3CC85D14A76BB40B747590A18CE","4e066a22-3807-4cc7-8aa5-82c7f2291976","61e1ec61-13c7-4a8f-bf47-a91ec9909364","","null","<div style=""display: flex; justify-content: center; align-items: center;"">
                <img src=""images/causal/causal_series_9/causal_series_9_a.jpg"" style=""width: 300px; height: 300px;"" />
              </div>","null",""
"","","","","","html-keyboard-response","102","291080","0.0-102.0","0AF3E3CC85D14A76BB40B747590A18CE","4e066a22-3807-4cc7-8aa5-82c7f2291976","61e1ec61-13c7-4a8f-bf47-a91ec9909364","","null","<div style=""display: flex; justify-content: center; align-items: center;"">
                <img src=""images/causal/causal_series_9/causal_series_9_b.jpg"" style=""width: 300px; height: 300px;"" />
              </div>","null",""
"","","","","","html-keyboard-response","103","294085","0.0-103.0","0AF3E3CC85D14A76BB40B747590A18CE","4e066a22-3807-4cc7-8aa5-82c7f2291976","61e1ec61-13c7-4a8f-bf47-a91ec9909364","","null","<div style=""display: flex; justify-content: center; align-items: center;"">
                <img src=""images/causal/causal_series_9/causal_series_9_c.jpg"" style=""width: 300px; height: 300px;"" />
              </div>","null",""
"","","","","","html-button-response","104","295593","0.0-104.0","0AF3E3CC85D14A76BB40B747590A18CE","4e066a22-3807-4cc7-8aa5-82c7f2291976","61e1ec61-13c7-4a8f-bf47-a91ec9909364","","1507","
    <div style=""display: flex; justify-content: center; align-items: center;"">
      <img src=""images/red_deck_2.png"" style=""width: 300px; height: 300px; margin-right: 10px;"" />
      <img src=""images/blue_deck_1.png"" style=""width: 300px; height: 300px;"" />
    </div>","1","1"
"","","","","","html-keyboard-response","105","298602","0.0-105.0-1.0-0.0","0AF3E3CC85D14A76BB40B747590A18CE","4e066a22-3807-4cc7-8aa5-82c7f2291976","61e1ec61-13c7-4a8f-bf47-a91ec9909364","","null","<div style=""display: flex; justify-content: center; align-items: center;"">
                <img src=""images/semantic/semantic_series_8/semantic_series_8_d.jpg"" style=""width: 300px; height: 300px;"" />
              </div>","null",""
"","","","","","html-keyboard-response","106","301616","0.0-106.0","0AF3E3CC85D14A76BB40B747590A18CE","4e066a22-3807-4cc7-8aa5-82c7f2291976","61e1ec61-13c7-4a8f-bf47-a91ec9909364","","null","<div style=""display: flex; justify-content: center; align-items: center;"">
                <img src=""images/other/blank.jpg"" style=""width: 300px; height: 300px;"" />
              </div>","null",""
"","","","","","html-keyboard-response","107","304619","0.0-107.0","0AF3E3CC85D14A76BB40B747590A18CE","4e066a22-3807-4cc7-8aa5-82c7f2291976","61e1ec61-13c7-4a8f-bf47-a91ec9909364","","null","<div style=""display: flex; justify-content: center; align-items: center;"">
                <img src=""images/causal/causal_series_8/causal_series_8_a.jpg"" style=""width: 300px; height: 300px;"" />
              </div>","null",""
"","","","","","html-keyboard-response","108","307628","0.0-108.0","0AF3E3CC85D14A76BB40B747590A18CE","4e066a22-3807-4cc7-8aa5-82c7f2291976","61e1ec61-13c7-4a8f-bf47-a91ec9909364","","null","<div style=""display: flex; justify-content: center; align-items: center;"">
                <img src=""images/causal/causal_series_8/causal_series_8_b.jpg"" style=""width: 300px; height: 300px;"" />
              </div>","null",""
"","","","","","html-keyboard-response","109","310643","0.0-109.0","0AF3E3CC85D14A76BB40B747590A18CE","4e066a22-3807-4cc7-8aa5-82c7f2291976","61e1ec61-13c7-4a8f-bf47-a91ec9909364","","null","<div style=""display: flex; justify-content: center; align-items: center;"">
                <img src=""images/causal/causal_series_8/causal_series_8_c.jpg"" style=""width: 300px; height: 300px;"" />
              </div>","null",""
"","","","","","html-button-response","110","311656","0.0-110.0","0AF3E3CC85D14A76BB40B747590A18CE","4e066a22-3807-4cc7-8aa5-82c7f2291976","61e1ec61-13c7-4a8f-bf47-a91ec9909364","","1012","
    <div style=""display: flex; justify-content: center; align-items: center;"">
      <img src=""images/red_deck_2.png"" style=""width: 300px; height: 300px; margin-right: 10px;"" />
      <img src=""images/blue_deck_1.png"" style=""width: 300px; height: 300px;"" />
    </div>","0","0"
"","","","","","html-keyboard-response","111","314658","0.0-111.0-0.0-0.0","0AF3E3CC85D14A76BB40B747590A18CE","4e066a22-3807-4cc7-8aa5-82c7f2291976","61e1ec61-13c7-4a8f-bf47-a91ec9909364","","null","<div style=""display: flex; justify-content: center; align-items: center;"">
                <img src=""images/causal/causal_series_8/causal_series_8_d.jpg"" style=""width: 300px; height: 300px;"" />
              </div>","null",""
"","","","","","html-keyboard-response","112","317665","0.0-112.0","0AF3E3CC85D14A76BB40B747590A18CE","4e066a22-3807-4cc7-8aa5-82c7f2291976","61e1ec61-13c7-4a8f-bf47-a91ec9909364","","null","<div style=""display: flex; justify-content: center; align-items: center;"">
                <img src=""images/other/blank.jpg"" style=""width: 300px; height: 300px;"" />
              </div>","null",""
"","","","","","survey-text","113","337877","0.0-113.0","0AF3E3CC85D14A76BB40B747590A18CE","4e066a22-3807-4cc7-8aa5-82c7f2291976","61e1ec61-13c7-4a8f-bf47-a91ec9909364","","20209","","{""Q0"":""Not really, I felt it was pretty random ""}",""
"","","","","","survey-text","114","356625","0.0-114.0","0AF3E3CC85D14A76BB40B747590A18CE","4e066a22-3807-4cc7-8aa5-82c7f2291976","61e1ec61-13c7-4a8f-bf47-a91ec9909364","","18745","","{""Q0"":""I feel like I had more cartoon with the blue one""}",""
"","","","","","html-button-response","115","367080","0.0-115.0","0AF3E3CC85D14A76BB40B747590A18CE","4e066a22-3807-4cc7-8aa5-82c7f2291976","61e1ec61-13c7-4a8f-bf47-a91ec9909364","","10455","Which color deck does the fourth image continue the story from the series?","0",""
"","","","","","html-button-response","116","368744","0.0-116.0","0AF3E3CC85D14A76BB40B747590A18CE","4e066a22-3807-4cc7-8aa5-82c7f2291976","61e1ec61-13c7-4a8f-bf47-a91ec9909364","","1663","Which color deck does the fourth image not follow the story from the series?","1",""
"","","","","","survey-text","117","376905","0.0-117.0","0AF3E3CC85D14A76BB40B747590A18CE","4e066a22-3807-4cc7-8aa5-82c7f2291976","61e1ec61-13c7-4a8f-bf47-a91ec9909364","","8158","","{""Q0"":""FEMALE"",""Q1"":""33""}",""
"","","","","","instructions","118","380780","0.0-118.0","0AF3E3CC85D14A76BB40B747590A18CE","4e066a22-3807-4cc7-8aa5-82c7f2291976","61e1ec61-13c7-4a8f-bf47-a91ec9909364","[{""page_index"":0,""viewing_time"":3875}]","3875","","",""
