"success","timeout","failed_images","failed_audio","failed_video","trial_type","trial_index","time_elapsed","internal_node_id","subject_id","study_id","session_id","view_history","rt","stimulus","response","choice"
"true","false","[]","[]","[]","preload","0","4806","0.0-0.0","1EA2F7A6ADC046B59A150EF4BC8F6527","9d84cdd4-62a5-45fb-b3da-f8cb68e73d4e","935a6d0c-0ba8-4f12-81d2-6af4ae24cda6","","","","",""
"","","","","","instructions","1","524338","0.0-1.0","1EA2F7A6ADC046B59A150EF4BC8F6527","9d84cdd4-62a5-45fb-b3da-f8cb68e73d4e","935a6d0c-0ba8-4f12-81d2-6af4ae24cda6","[{""page_index"":0,""viewing_time"":519526}]","519526","","",""
"","","","","","instructions","2","528480","0.0-2.0","1EA2F7A6ADC046B59A150EF4BC8F6527","9d84cdd4-62a5-45fb-b3da-f8cb68e73d4e","935a6d0c-0ba8-4f12-81d2-6af4ae24cda6","[{""page_index"":0,""viewing_time"":4141}]","4141","","",""
"true","","","","","fullscreen","3","586295","0.0-3.0","1EA2F7A6ADC046B59A150EF4BC8F6527","9d84cdd4-62a5-45fb-b3da-f8cb68e73d4e","935a6d0c-0ba8-4f12-81d2-6af4ae24cda6","","56804","","",""
"","","","","","instructions","4","587611","0.0-4.0","1EA2F7A6ADC046B59A150EF4BC8F6527","9d84cdd4-62a5-45fb-b3da-f8cb68e73d4e","935a6d0c-0ba8-4f12-81d2-6af4ae24cda6","[{""page_index"":0,""viewing_time"":1316}]","1316","","",""
"","","","","","html-keyboard-response","5","590612","0.0-5.0","1EA2F7A6ADC046B59A150EF4BC8F6527","9d84cdd4-62a5-45fb-b3da-f8cb68e73d4e","935a6d0c-0ba8-4f12-81d2-6af4ae24cda6","","null","<div style=""display: flex; justify-content: center; align-items: center;"">
                <img src=""images/causal/causal_series_7/causal_series_7_a.jpg"" style=""width: 300px; height: 300px;"" />
              </div>","null",""
"","","","","","html-button-response","6","592464","0.0-6.0","1EA2F7A6ADC046B59A150EF4BC8F6527","9d84cdd4-62a5-45fb-b3da-f8cb68e73d4e","935a6d0c-0ba8-4f12-81d2-6af4ae24cda6","","1851","
    <div style=""display: flex; justify-content: center; align-items: center;"">
      <img src=""images/red_deck_2.png"" style=""width: 300px; height: 300px; margin-right: 10px;"" />
      <img src=""images/blue_deck_1.png"" style=""width: 300px; height: 300px;"" />
    </div>","0","0"
"","","","","","html-keyboard-response","7","595469","0.0-7.0-0.0-0.0","1EA2F7A6ADC046B59A150EF4BC8F6527","9d84cdd4-62a5-45fb-b3da-f8cb68e73d4e","935a6d0c-0ba8-4f12-81d2-6af4ae24cda6","","null","<div style=""display: flex; justify-content: center; align-items: center;"">
                <img src=""images/causal/causal_series_7/causal_series_7_b.jpg"" style=""width: 300px; height: 300px;"" />
              </div>","null",""
"","","","","","html-keyboard-response","8","598485","0.0-7.0-0.0-1.0","1EA2F7A6ADC046B59A150EF4BC8F6527","9d84cdd4-62a5-45fb-b3da-f8cb68e73d4e","935a6d0c-0ba8-4f12-81d2-6af4ae24cda6","","null","<div style=""display: flex; justify-content: center; align-items: center;"">
                <img src=""images/causal/causal_series_7/causal_series_7_c.jpg"" style=""width: 300px; height: 300px;"" />
              </div>","null",""
"","","","","","html-keyboard-response","9","601499","0.0-7.0-0.0-2.0","1EA2F7A6ADC046B59A150EF4BC8F6527","9d84cdd4-62a5-45fb-b3da-f8cb68e73d4e","935a6d0c-0ba8-4f12-81d2-6af4ae24cda6","","null","<div style=""display: flex; justify-content: center; align-items: center;"">
                <img src=""images/causal/causal_series_7/causal_series_7_d.jpg"" style=""width: 300px; height: 300px;"" />
              </div>","null",""
"","","","","","html-keyboard-response","10","604502","0.0-8.0","1EA2F7A6ADC046B59A150EF4BC8F6527","9d84cdd4-62a5-45fb-b3da-f8cb68e73d4e","935a6d0c-0ba8-4f12-81d2-6af4ae24cda6","","null","<div style=""display: flex; justify-content: center; align-items: center;"">
                <img src=""images/other/blank.jpg"" style=""width: 300px; height: 300px;"" />
              </div>","null",""
"","","","","","html-keyboard-response","11","607509","0.0-9.0","1EA2F7A6ADC046B59A150EF4BC8F6527","9d84cdd4-62a5-45fb-b3da-f8cb68e73d4e","935a6d0c-0ba8-4f12-81d2-6af4ae24cda6","","null","<div style=""display: flex; justify-content: center; align-items: center;"">
                <img src=""images/causal/causal_series_8/causal_series_8_a.jpg"" style=""width: 300px; height: 300px;"" />
              </div>","null",""
"","","","","","html-button-response","12","608327","0.0-10.0","1EA2F7A6ADC046B59A150EF4BC8F6527","9d84cdd4-62a5-45fb-b3da-f8cb68e73d4e","935a6d0c-0ba8-4f12-81d2-6af4ae24cda6","","817","
    <div style=""display: flex; justify-content: center; align-items: center;"">
      <img src=""images/red_deck_2.png"" style=""width: 300px; height: 300px; margin-right: 10px;"" />
      <img src=""images/blue_deck_1.png"" style=""width: 300px; height: 300px;"" />
    </div>","1","1"
"","","","","","html-keyboard-response","13","611547","0.0-11.0-1.0-0.0","1EA2F7A6ADC046B59A150EF4BC8F6527","9d84cdd4-62a5-45fb-b3da-f8cb68e73d4e","935a6d0c-0ba8-4f12-81d2-6af4ae24cda6","","null","<div style=""display: flex; justify-content: center; align-items: center;"">
                <img src=""images/semantic/semantic_series_3/semantic_series_3_d.jpg"" style=""width: 300px; height: 300px;"" />
              </div>","null",""
"","","","","","html-keyboard-response","14","615555","0.0-11.0-1.0-1.0","1EA2F7A6ADC046B59A150EF4BC8F6527","9d84cdd4-62a5-45fb-b3da-f8cb68e73d4e","935a6d0c-0ba8-4f12-81d2-6af4ae24cda6","","null","<div style=""display: flex; justify-content: center; align-items: center;"">
                <img src=""images/semantic/semantic_series_4/semantic_series_4_d.jpg"" style=""width: 300px; height: 300px;"" />
              </div>","null",""
"","","","","","html-keyboard-response","15","618562","0.0-11.0-1.0-2.0","1EA2F7A6ADC046B59A150EF4BC8F6527","9d84cdd4-62a5-45fb-b3da-f8cb68e73d4e","935a6d0c-0ba8-4f12-81d2-6af4ae24cda6","","null","<div style=""display: flex; justify-content: center; align-items: center;"">
                <img src=""images/semantic/semantic_series_5/semantic_series_5_d.jpg"" style=""width: 300px; height: 300px;"" />
              </div>","null",""
"","","","","","html-keyboard-response","16","621577","0.0-12.0","1EA2F7A6ADC046B59A150EF4BC8F6527","9d84cdd4-62a5-45fb-b3da-f8cb68e73d4e","935a6d0c-0ba8-4f12-81d2-6af4ae24cda6","","null","<div style=""display: flex; justify-content: center; align-items: center;"">
                <img src=""images/other/blank.jpg"" style=""width: 300px; height: 300px;"" />
              </div>","null",""
"","","","","","html-keyboard-response","17","624586","0.0-13.0","1EA2F7A6ADC046B59A150EF4BC8F6527","9d84cdd4-62a5-45fb-b3da-f8cb68e73d4e","935a6d0c-0ba8-4f12-81d2-6af4ae24cda6","","null","<div style=""display: flex; justify-content: center; align-items: center;"">
                <img src=""images/causal/causal_series_18/causal_series_18_a.jpg"" style=""width: 300px; height: 300px;"" />
              </div>","null",""
"","","","","","html-button-response","18","625676","0.0-14.0","1EA2F7A6ADC046B59A150EF4BC8F6527","9d84cdd4-62a5-45fb-b3da-f8cb68e73d4e","935a6d0c-0ba8-4f12-81d2-6af4ae24cda6","","1090","
    <div style=""display: flex; justify-content: center; align-items: center;"">
      <img src=""images/red_deck_2.png"" style=""width: 300px; height: 300px; margin-right: 10px;"" />
      <img src=""images/blue_deck_1.png"" style=""width: 300px; height: 300px;"" />
    </div>","0","0"
"","","","","","html-keyboard-response","19","628686","0.0-15.0-0.0-0.0","1EA2F7A6ADC046B59A150EF4BC8F6527","9d84cdd4-62a5-45fb-b3da-f8cb68e73d4e","935a6d0c-0ba8-4f12-81d2-6af4ae24cda6","","null","<div style=""display: flex; justify-content: center; align-items: center;"">
                <img src=""images/causal/causal_series_18/causal_series_18_b.jpg"" style=""width: 300px; height: 300px;"" />
              </div>","null",""
"","","","","","html-keyboard-response","20","631700","0.0-15.0-0.0-1.0","1EA2F7A6ADC046B59A150EF4BC8F6527","9d84cdd4-62a5-45fb-b3da-f8cb68e73d4e","935a6d0c-0ba8-4f12-81d2-6af4ae24cda6","","null","<div style=""display: flex; justify-content: center; align-items: center;"">
                <img src=""images/causal/causal_series_18/causal_series_18_c.jpg"" style=""width: 300px; height: 300px;"" />
              </div>","null",""
"","","","","","html-keyboard-response","21","634711","0.0-15.0-0.0-2.0","1EA2F7A6ADC046B59A150EF4BC8F6527","9d84cdd4-62a5-45fb-b3da-f8cb68e73d4e","935a6d0c-0ba8-4f12-81d2-6af4ae24cda6","","null","<div style=""display: flex; justify-content: center; align-items: center;"">
                <img src=""images/causal/causal_series_18/causal_series_18_d.jpg"" style=""width: 300px; height: 300px;"" />
              </div>","null",""
"","","","","","html-keyboard-response","22","637719","0.0-16.0","1EA2F7A6ADC046B59A150EF4BC8F6527","9d84cdd4-62a5-45fb-b3da-f8cb68e73d4e","935a6d0c-0ba8-4f12-81d2-6af4ae24cda6","","null","<div style=""display: flex; justify-content: center; align-items: center;"">
                <img src=""images/other/blank.jpg"" style=""width: 300px; height: 300px;"" />
              </div>","null",""
"","","","","","html-keyboard-response","23","640733","0.0-17.0","1EA2F7A6ADC046B59A150EF4BC8F6527","9d84cdd4-62a5-45fb-b3da-f8cb68e73d4e","935a6d0c-0ba8-4f12-81d2-6af4ae24cda6","","null","<div style=""display: flex; justify-content: center; align-items: center;"">
                <img src=""images/causal/causal_series_15/causal_series_15_a.jpg"" style=""width: 300px; height: 300px;"" />
              </div>","null",""
"","","","","","html-button-response","24","642991","0.0-18.0","1EA2F7A6ADC046B59A150EF4BC8F6527","9d84cdd4-62a5-45fb-b3da-f8cb68e73d4e","935a6d0c-0ba8-4f12-81d2-6af4ae24cda6","","2258","
    <div style=""display: flex; justify-content: center; align-items: center;"">
      <img src=""images/red_deck_2.png"" style=""width: 300px; height: 300px; margin-right: 10px;"" />
      <img src=""images/blue_deck_1.png"" style=""width: 300px; height: 300px;"" />
    </div>","0","0"
"","","","","","html-keyboard-response","25","646000","0.0-19.0-0.0-0.0","1EA2F7A6ADC046B59A150EF4BC8F6527","9d84cdd4-62a5-45fb-b3da-f8cb68e73d4e","935a6d0c-0ba8-4f12-81d2-6af4ae24cda6","","null","<div style=""display: flex; justify-content: center; align-items: center;"">
                <img src=""images/causal/causal_series_15/causal_series_15_b.jpg"" style=""width: 300px; height: 300px;"" />
              </div>","null",""
"","","","","","html-keyboard-response","26","649014","0.0-19.0-0.0-1.0","1EA2F7A6ADC046B59A150EF4BC8F6527","9d84cdd4-62a5-45fb-b3da-f8cb68e73d4e","935a6d0c-0ba8-4f12-81d2-6af4ae24cda6","","null","<div style=""display: flex; justify-content: center; align-items: center;"">
                <img src=""images/causal/causal_series_15/causal_series_15_c.jpg"" style=""width: 300px; height: 300px;"" />
              </div>","null",""
"","","","","","html-keyboard-response","27","652017","0.0-19.0-0.0-2.0","1EA2F7A6ADC046B59A150EF4BC8F6527","9d84cdd4-62a5-45fb-b3da-f8cb68e73d4e","935a6d0c-0ba8-4f12-81d2-6af4ae24cda6","","null","<div style=""display: flex; justify-content: center; align-items: center;"">
                <img src=""images/causal/causal_series_15/causal_series_15_d.jpg"" style=""width: 300px; height: 300px;"" />
              </div>","null",""
"","","","","","html-keyboard-response","28","655020","0.0-20.0","1EA2F7A6ADC046B59A150EF4BC8F6527","9d84cdd4-62a5-45fb-b3da-f8cb68e73d4e","935a6d0c-0ba8-4f12-81d2-6af4ae24cda6","","null","<div style=""display: flex; justify-content: center; align-items: center;"">
                <img src=""images/other/blank.jpg"" style=""width: 300px; height: 300px;"" />
              </div>","null",""
"","","","","","html-keyboard-response","29","658036","0.0-21.0","1EA2F7A6ADC046B59A150EF4BC8F6527","9d84cdd4-62a5-45fb-b3da-f8cb68e73d4e","935a6d0c-0ba8-4f12-81d2-6af4ae24cda6","","null","<div style=""display: flex; justify-content: center; align-items: center;"">
                <img src=""images/causal/causal_series_13/causal_series_13_a.jpg"" style=""width: 300px; height: 300px;"" />
              </div>","null",""
"","","","","","html-button-response","30","660583","0.0-22.0","1EA2F7A6ADC046B59A150EF4BC8F6527","9d84cdd4-62a5-45fb-b3da-f8cb68e73d4e","935a6d0c-0ba8-4f12-81d2-6af4ae24cda6","","2545","
    <div style=""display: flex; justify-content: center; align-items: center;"">
      <img src=""images/red_deck_2.png"" style=""width: 300px; height: 300px; margin-right: 10px;"" />
      <img src=""images/blue_deck_1.png"" style=""width: 300px; height: 300px;"" />
    </div>","0","0"
"","","","","","html-keyboard-response","31","663594","0.0-23.0-0.0-0.0","1EA2F7A6ADC046B59A150EF4BC8F6527","9d84cdd4-62a5-45fb-b3da-f8cb68e73d4e","935a6d0c-0ba8-4f12-81d2-6af4ae24cda6","","null","<div style=""display: flex; justify-content: center; align-items: center;"">
                <img src=""images/causal/causal_series_13/causal_series_13_b.jpg"" style=""width: 300px; height: 300px;"" />
              </div>","null",""
"","","","","","html-keyboard-response","32","666607","0.0-23.0-0.0-1.0","1EA2F7A6ADC046B59A150EF4BC8F6527","9d84cdd4-62a5-45fb-b3da-f8cb68e73d4e","935a6d0c-0ba8-4f12-81d2-6af4ae24cda6","","null","<div style=""display: flex; justify-content: center; align-items: center;"">
                <img src=""images/causal/causal_series_13/causal_series_13_c.jpg"" style=""width: 300px; height: 300px;"" />
              </div>","null",""
"","","","","","html-keyboard-response","33","669620","0.0-23.0-0.0-2.0","1EA2F7A6ADC046B59A150EF4BC8F6527","9d84cdd4-62a5-45fb-b3da-f8cb68e73d4e","935a6d0c-0ba8-4f12-81d2-6af4ae24cda6","","null","<div style=""display: flex; justify-content: center; align-items: center;"">
                <img src=""images/causal/causal_series_13/causal_series_13_d.jpg"" style=""width: 300px; height: 300px;"" />
              </div>","null",""
"","","","","","html-keyboard-response","34","672634","0.0-24.0","1EA2F7A6ADC046B59A150EF4BC8F6527","9d84cdd4-62a5-45fb-b3da-f8cb68e73d4e","935a6d0c-0ba8-4f12-81d2-6af4ae24cda6","","null","<div style=""display: flex; justify-content: center; align-items: center;"">
                <img src=""images/other/blank.jpg"" style=""width: 300px; height: 300px;"" />
              </div>","null",""
"","","","","","html-keyboard-response","35","675636","0.0-25.0","1EA2F7A6ADC046B59A150EF4BC8F6527","9d84cdd4-62a5-45fb-b3da-f8cb68e73d4e","935a6d0c-0ba8-4f12-81d2-6af4ae24cda6","","null","<div style=""display: flex; justify-content: center; align-items: center;"">
                <img src=""images/causal/causal_series_5/causal_series_5_a.jpg"" style=""width: 300px; height: 300px;"" />
              </div>","null",""
"","","","","","html-button-response","36","682025","0.0-26.0","1EA2F7A6ADC046B59A150EF4BC8F6527","9d84cdd4-62a5-45fb-b3da-f8cb68e73d4e","935a6d0c-0ba8-4f12-81d2-6af4ae24cda6","","6388","
    <div style=""display: flex; justify-content: center; align-items: center;"">
      <img src=""images/red_deck_2.png"" style=""width: 300px; height: 300px; margin-right: 10px;"" />
      <img src=""images/blue_deck_1.png"" style=""width: 300px; height: 300px;"" />
    </div>","0","0"
"","","","","","html-keyboard-response","37","685027","0.0-27.0-0.0-0.0","1EA2F7A6ADC046B59A150EF4BC8F6527","9d84cdd4-62a5-45fb-b3da-f8cb68e73d4e","935a6d0c-0ba8-4f12-81d2-6af4ae24cda6","","null","<div style=""display: flex; justify-content: center; align-items: center;"">
                <img src=""images/causal/causal_series_5/causal_series_5_b.jpg"" style=""width: 300px; height: 300px;"" />
              </div>","null",""
"","","","","","html-keyboard-response","38","688037","0.0-27.0-0.0-1.0","1EA2F7A6ADC046B59A150EF4BC8F6527","9d84cdd4-62a5-45fb-b3da-f8cb68e73d4e","935a6d0c-0ba8-4f12-81d2-6af4ae24cda6","","null","<div style=""display: flex; justify-content: center; align-items: center;"">
                <img src=""images/causal/causal_series_5/causal_series_5_c.jpg"" style=""width: 300px; height: 300px;"" />
              </div>","null",""
"","","","","","html-keyboard-response","39","691039","0.0-27.0-0.0-2.0","1EA2F7A6ADC046B59A150EF4BC8F6527","9d84cdd4-62a5-45fb-b3da-f8cb68e73d4e","935a6d0c-0ba8-4f12-81d2-6af4ae24cda6","","null","<div style=""display: flex; justify-content: center; align-items: center;"">
                <img src=""images/causal/causal_series_5/causal_series_5_d.jpg"" style=""width: 300px; height: 300px;"" />
              </div>","null",""
"","","","","","html-keyboard-response","40","694049","0.0-28.0","1EA2F7A6ADC046B59A150EF4BC8F6527","9d84cdd4-62a5-45fb-b3da-f8cb68e73d4e","935a6d0c-0ba8-4f12-81d2-6af4ae24cda6","","null","<div style=""display: flex; justify-content: center; align-items: center;"">
                <img src=""images/other/blank.jpg"" style=""width: 300px; height: 300px;"" />
              </div>","null",""
"","","","","","html-keyboard-response","41","697065","0.0-29.0","1EA2F7A6ADC046B59A150EF4BC8F6527","9d84cdd4-62a5-45fb-b3da-f8cb68e73d4e","935a6d0c-0ba8-4f12-81d2-6af4ae24cda6","","null","<div style=""display: flex; justify-content: center; align-items: center;"">
                <img src=""images/causal/causal_series_11/causal_series_11_a.jpg"" style=""width: 300px; height: 300px;"" />
              </div>","null",""
"","","","","","html-button-response","42","700068","0.0-30.0","1EA2F7A6ADC046B59A150EF4BC8F6527","9d84cdd4-62a5-45fb-b3da-f8cb68e73d4e","935a6d0c-0ba8-4f12-81d2-6af4ae24cda6","","3001","
    <div style=""display: flex; justify-content: center; align-items: center;"">
      <img src=""images/red_deck_2.png"" style=""width: 300px; height: 300px; margin-right: 10px;"" />
      <img src=""images/blue_deck_1.png"" style=""width: 300px; height: 300px;"" />
    </div>","1","1"
"","","","","","html-keyboard-response","43","703083","0.0-31.0-1.0-0.0","1EA2F7A6ADC046B59A150EF4BC8F6527","9d84cdd4-62a5-45fb-b3da-f8cb68e73d4e","935a6d0c-0ba8-4f12-81d2-6af4ae24cda6","","null","<div style=""display: flex; justify-content: center; align-items: center;"">
                <img src=""images/semantic/semantic_series_12/semantic_series_12_d.jpg"" style=""width: 300px; height: 300px;"" />
              </div>","null",""
"","","","","","html-keyboard-response","44","706100","0.0-31.0-1.0-1.0","1EA2F7A6ADC046B59A150EF4BC8F6527","9d84cdd4-62a5-45fb-b3da-f8cb68e73d4e","935a6d0c-0ba8-4f12-81d2-6af4ae24cda6","","null","<div style=""display: flex; justify-content: center; align-items: center;"">
                <img src=""images/semantic/semantic_series_13/semantic_series_13_d.jpg"" style=""width: 300px; height: 300px;"" />
              </div>","null",""
"","","","","","html-keyboard-response","45","709116","0.0-31.0-1.0-2.0","1EA2F7A6ADC046B59A150EF4BC8F6527","9d84cdd4-62a5-45fb-b3da-f8cb68e73d4e","935a6d0c-0ba8-4f12-81d2-6af4ae24cda6","","null","<div style=""display: flex; justify-content: center; align-items: center;"">
                <img src=""images/semantic/semantic_series_14/semantic_series_14_d.jpg"" style=""width: 300px; height: 300px;"" />
              </div>","null",""
"","","","","","html-keyboard-response","46","712120","0.0-32.0","1EA2F7A6ADC046B59A150EF4BC8F6527","9d84cdd4-62a5-45fb-b3da-f8cb68e73d4e","935a6d0c-0ba8-4f12-81d2-6af4ae24cda6","","null","<div style=""display: flex; justify-content: center; align-items: center;"">
                <img src=""images/other/blank.jpg"" style=""width: 300px; height: 300px;"" />
              </div>","null",""
"","","","","","html-keyboard-response","47","715132","0.0-33.0","1EA2F7A6ADC046B59A150EF4BC8F6527","9d84cdd4-62a5-45fb-b3da-f8cb68e73d4e","935a6d0c-0ba8-4f12-81d2-6af4ae24cda6","","null","<div style=""display: flex; justify-content: center; align-items: center;"">
                <img src=""images/causal/causal_series_12/causal_series_12_a.jpg"" style=""width: 300px; height: 300px;"" />
              </div>","null",""
"","","","","","html-button-response","48","730027","0.0-34.0","1EA2F7A6ADC046B59A150EF4BC8F6527","9d84cdd4-62a5-45fb-b3da-f8cb68e73d4e","935a6d0c-0ba8-4f12-81d2-6af4ae24cda6","","14894","
    <div style=""display: flex; justify-content: center; align-items: center;"">
      <img src=""images/red_deck_2.png"" style=""width: 300px; height: 300px; margin-right: 10px;"" />
      <img src=""images/blue_deck_1.png"" style=""width: 300px; height: 300px;"" />
    </div>","1","1"
"","","","","","html-keyboard-response","49","733036","0.0-35.0-1.0-0.0","1EA2F7A6ADC046B59A150EF4BC8F6527","9d84cdd4-62a5-45fb-b3da-f8cb68e73d4e","935a6d0c-0ba8-4f12-81d2-6af4ae24cda6","","null","<div style=""display: flex; justify-content: center; align-items: center;"">
                <img src=""images/semantic/semantic_series_15/semantic_series_15_d.jpg"" style=""width: 300px; height: 300px;"" />
              </div>","null",""
"","","","","","html-keyboard-response","50","736038","0.0-35.0-1.0-1.0","1EA2F7A6ADC046B59A150EF4BC8F6527","9d84cdd4-62a5-45fb-b3da-f8cb68e73d4e","935a6d0c-0ba8-4f12-81d2-6af4ae24cda6","","null","<div style=""display: flex; justify-content: center; align-items: center;"">
                <img src=""images/semantic/semantic_series_16/semantic_series_16_d.jpg"" style=""width: 300px; height: 300px;"" />
              </div>","null",""
"","","","","","html-keyboard-response","51","739055","0.0-35.0-1.0-2.0","1EA2F7A6ADC046B59A150EF4BC8F6527","9d84cdd4-62a5-45fb-b3da-f8cb68e73d4e","935a6d0c-0ba8-4f12-81d2-6af4ae24cda6","","null","<div style=""display: flex; justify-content: center; align-items: center;"">
                <img src=""images/semantic/semantic_series_17/semantic_series_17_d.jpg"" style=""width: 300px; height: 300px;"" />
              </div>","null",""
"","","","","","html-keyboard-response","52","742070","0.0-36.0","1EA2F7A6ADC046B59A150EF4BC8F6527","9d84cdd4-62a5-45fb-b3da-f8cb68e73d4e","935a6d0c-0ba8-4f12-81d2-6af4ae24cda6","","null","<div style=""display: flex; justify-content: center; align-items: center;"">
                <img src=""images/other/blank.jpg"" style=""width: 300px; height: 300px;"" />
              </div>","null",""
"","","","","","html-keyboard-response","53","745085","0.0-37.0","1EA2F7A6ADC046B59A150EF4BC8F6527","9d84cdd4-62a5-45fb-b3da-f8cb68e73d4e","935a6d0c-0ba8-4f12-81d2-6af4ae24cda6","","null","<div style=""display: flex; justify-content: center; align-items: center;"">
                <img src=""images/causal/causal_series_17/causal_series_17_a.jpg"" style=""width: 300px; height: 300px;"" />
              </div>","null",""
"","","","","","html-button-response","54","750785","0.0-38.0","1EA2F7A6ADC046B59A150EF4BC8F6527","9d84cdd4-62a5-45fb-b3da-f8cb68e73d4e","935a6d0c-0ba8-4f12-81d2-6af4ae24cda6","","5698","
    <div style=""display: flex; justify-content: center; align-items: center;"">
      <img src=""images/red_deck_2.png"" style=""width: 300px; height: 300px; margin-right: 10px;"" />
      <img src=""images/blue_deck_1.png"" style=""width: 300px; height: 300px;"" />
    </div>","1","1"
"","","","","","html-keyboard-response","55","753800","0.0-39.0-1.0-0.0","1EA2F7A6ADC046B59A150EF4BC8F6527","9d84cdd4-62a5-45fb-b3da-f8cb68e73d4e","935a6d0c-0ba8-4f12-81d2-6af4ae24cda6","","null","<div style=""display: flex; justify-content: center; align-items: center;"">
                <img src=""images/semantic/semantic_series_12/semantic_series_12_d.jpg"" style=""width: 300px; height: 300px;"" />
              </div>","null",""
"","","","","","html-keyboard-response","56","756815","0.0-39.0-1.0-1.0","1EA2F7A6ADC046B59A150EF4BC8F6527","9d84cdd4-62a5-45fb-b3da-f8cb68e73d4e","935a6d0c-0ba8-4f12-81d2-6af4ae24cda6","","null","<div style=""display: flex; justify-content: center; align-items: center;"">
                <img src=""images/semantic/semantic_series_13/semantic_series_13_d.jpg"" style=""width: 300px; height: 300px;"" />
              </div>","null",""
"","","","","","html-keyboard-response","57","759818","0.0-39.0-1.0-2.0","1EA2F7A6ADC046B59A150EF4BC8F6527","9d84cdd4-62a5-45fb-b3da-f8cb68e73d4e","935a6d0c-0ba8-4f12-81d2-6af4ae24cda6","","null","<div style=""display: flex; justify-content: center; align-items: center;"">
                <img src=""images/semantic/semantic_series_14/semantic_series_14_d.jpg"" style=""width: 300px; height: 300px;"" />
              </div>","null",""
"","","","","","html-keyboard-response","58","762820","0.0-40.0","1EA2F7A6ADC046B59A150EF4BC8F6527","9d84cdd4-62a5-45fb-b3da-f8cb68e73d4e","935a6d0c-0ba8-4f12-81d2-6af4ae24cda6","","null","<div style=""display: flex; justify-content: center; align-items: center;"">
                <img src=""images/other/blank.jpg"" style=""width: 300px; height: 300px;"" />
              </div>","null",""
"","","","","","html-keyboard-response","59","765828","0.0-41.0","1EA2F7A6ADC046B59A150EF4BC8F6527","9d84cdd4-62a5-45fb-b3da-f8cb68e73d4e","935a6d0c-0ba8-4f12-81d2-6af4ae24cda6","","null","<div style=""display: flex; justify-content: center; align-items: center;"">
                <img src=""images/causal/causal_series_6/causal_series_6_a.jpg"" style=""width: 300px; height: 300px;"" />
              </div>","null",""
"","","","","","html-button-response","60","772434","0.0-42.0","1EA2F7A6ADC046B59A150EF4BC8F6527","9d84cdd4-62a5-45fb-b3da-f8cb68e73d4e","935a6d0c-0ba8-4f12-81d2-6af4ae24cda6","","6604","
    <div style=""display: flex; justify-content: center; align-items: center;"">
      <img src=""images/red_deck_2.png"" style=""width: 300px; height: 300px; margin-right: 10px;"" />
      <img src=""images/blue_deck_1.png"" style=""width: 300px; height: 300px;"" />
    </div>","0","0"
"","","","","","html-keyboard-response","61","775437","0.0-43.0-0.0-0.0","1EA2F7A6ADC046B59A150EF4BC8F6527","9d84cdd4-62a5-45fb-b3da-f8cb68e73d4e","935a6d0c-0ba8-4f12-81d2-6af4ae24cda6","","null","<div style=""display: flex; justify-content: center; align-items: center;"">
                <img src=""images/causal/causal_series_6/causal_series_6_b.jpg"" style=""width: 300px; height: 300px;"" />
              </div>","null",""
"","","","","","html-keyboard-response","62","778453","0.0-43.0-0.0-1.0","1EA2F7A6ADC046B59A150EF4BC8F6527","9d84cdd4-62a5-45fb-b3da-f8cb68e73d4e","935a6d0c-0ba8-4f12-81d2-6af4ae24cda6","","null","<div style=""display: flex; justify-content: center; align-items: center;"">
                <img src=""images/causal/causal_series_6/causal_series_6_c.jpg"" style=""width: 300px; height: 300px;"" />
              </div>","null",""
"","","","","","html-keyboard-response","63","781467","0.0-43.0-0.0-2.0","1EA2F7A6ADC046B59A150EF4BC8F6527","9d84cdd4-62a5-45fb-b3da-f8cb68e73d4e","935a6d0c-0ba8-4f12-81d2-6af4ae24cda6","","null","<div style=""display: flex; justify-content: center; align-items: center;"">
                <img src=""images/causal/causal_series_6/causal_series_6_d.jpg"" style=""width: 300px; height: 300px;"" />
              </div>","null",""
"","","","","","html-keyboard-response","64","784468","0.0-44.0","1EA2F7A6ADC046B59A150EF4BC8F6527","9d84cdd4-62a5-45fb-b3da-f8cb68e73d4e","935a6d0c-0ba8-4f12-81d2-6af4ae24cda6","","null","<div style=""display: flex; justify-content: center; align-items: center;"">
                <img src=""images/other/blank.jpg"" style=""width: 300px; height: 300px;"" />
              </div>","null",""
"","","","","","html-keyboard-response","65","787470","0.0-45.0","1EA2F7A6ADC046B59A150EF4BC8F6527","9d84cdd4-62a5-45fb-b3da-f8cb68e73d4e","935a6d0c-0ba8-4f12-81d2-6af4ae24cda6","","null","<div style=""display: flex; justify-content: center; align-items: center;"">
                <img src=""images/causal/causal_series_16/causal_series_16_a.jpg"" style=""width: 300px; height: 300px;"" />
              </div>","null",""
"","","","","","html-button-response","66","794713","0.0-46.0","1EA2F7A6ADC046B59A150EF4BC8F6527","9d84cdd4-62a5-45fb-b3da-f8cb68e73d4e","935a6d0c-0ba8-4f12-81d2-6af4ae24cda6","","7242","
    <div style=""display: flex; justify-content: center; align-items: center;"">
      <img src=""images/red_deck_2.png"" style=""width: 300px; height: 300px; margin-right: 10px;"" />
      <img src=""images/blue_deck_1.png"" style=""width: 300px; height: 300px;"" />
    </div>","0","0"
"","","","","","html-keyboard-response","67","797722","0.0-47.0-0.0-0.0","1EA2F7A6ADC046B59A150EF4BC8F6527","9d84cdd4-62a5-45fb-b3da-f8cb68e73d4e","935a6d0c-0ba8-4f12-81d2-6af4ae24cda6","","null","<div style=""display: flex; justify-content: center; align-items: center;"">
                <img src=""images/causal/causal_series_16/causal_series_16_b.jpg"" style=""width: 300px; height: 300px;"" />
              </div>","null",""
"","","","","","html-keyboard-response","68","800733","0.0-47.0-0.0-1.0","1EA2F7A6ADC046B59A150EF4BC8F6527","9d84cdd4-62a5-45fb-b3da-f8cb68e73d4e","935a6d0c-0ba8-4f12-81d2-6af4ae24cda6","","null","<div style=""display: flex; justify-content: center; align-items: center;"">
                <img src=""images/causal/causal_series_16/causal_series_16_c.jpg"" style=""width: 300px; height: 300px;"" />
              </div>","null",""
"","","","","","html-keyboard-response","69","803737","0.0-47.0-0.0-2.0","1EA2F7A6ADC046B59A150EF4BC8F6527","9d84cdd4-62a5-45fb-b3da-f8cb68e73d4e","935a6d0c-0ba8-4f12-81d2-6af4ae24cda6","","null","<div style=""display: flex; justify-content: center; align-items: center;"">
                <img src=""images/causal/causal_series_16/causal_series_16_d.jpg"" style=""width: 300px; height: 300px;"" />
              </div>","null",""
"","","","","","html-keyboard-response","70","806752","0.0-48.0","1EA2F7A6ADC046B59A150EF4BC8F6527","9d84cdd4-62a5-45fb-b3da-f8cb68e73d4e","935a6d0c-0ba8-4f12-81d2-6af4ae24cda6","","null","<div style=""display: flex; justify-content: center; align-items: center;"">
                <img src=""images/other/blank.jpg"" style=""width: 300px; height: 300px;"" />
              </div>","null",""
"","","","","","html-keyboard-response","71","809768","0.0-49.0","1EA2F7A6ADC046B59A150EF4BC8F6527","9d84cdd4-62a5-45fb-b3da-f8cb68e73d4e","935a6d0c-0ba8-4f12-81d2-6af4ae24cda6","","null","<div style=""display: flex; justify-content: center; align-items: center;"">
                <img src=""images/causal/causal_series_14/causal_series_14_a.jpg"" style=""width: 300px; height: 300px;"" />
              </div>","null",""
"","","","","","html-button-response","72","810665","0.0-50.0","1EA2F7A6ADC046B59A150EF4BC8F6527","9d84cdd4-62a5-45fb-b3da-f8cb68e73d4e","935a6d0c-0ba8-4f12-81d2-6af4ae24cda6","","897","
    <div style=""display: flex; justify-content: center; align-items: center;"">
      <img src=""images/red_deck_2.png"" style=""width: 300px; height: 300px; margin-right: 10px;"" />
      <img src=""images/blue_deck_1.png"" style=""width: 300px; height: 300px;"" />
    </div>","0","0"
"","","","","","html-keyboard-response","73","813669","0.0-51.0-0.0-0.0","1EA2F7A6ADC046B59A150EF4BC8F6527","9d84cdd4-62a5-45fb-b3da-f8cb68e73d4e","935a6d0c-0ba8-4f12-81d2-6af4ae24cda6","","null","<div style=""display: flex; justify-content: center; align-items: center;"">
                <img src=""images/causal/causal_series_14/causal_series_14_b.jpg"" style=""width: 300px; height: 300px;"" />
              </div>","null",""
"","","","","","html-keyboard-response","74","816671","0.0-51.0-0.0-1.0","1EA2F7A6ADC046B59A150EF4BC8F6527","9d84cdd4-62a5-45fb-b3da-f8cb68e73d4e","935a6d0c-0ba8-4f12-81d2-6af4ae24cda6","","null","<div style=""display: flex; justify-content: center; align-items: center;"">
                <img src=""images/causal/causal_series_14/causal_series_14_c.jpg"" style=""width: 300px; height: 300px;"" />
              </div>","null",""
"","","","","","html-keyboard-response","75","819686","0.0-51.0-0.0-2.0","1EA2F7A6ADC046B59A150EF4BC8F6527","9d84cdd4-62a5-45fb-b3da-f8cb68e73d4e","935a6d0c-0ba8-4f12-81d2-6af4ae24cda6","","null","<div style=""display: flex; justify-content: center; align-items: center;"">
                <img src=""images/causal/causal_series_14/causal_series_14_d.jpg"" style=""width: 300px; height: 300px;"" />
              </div>","null",""
"","","","","","html-keyboard-response","76","822701","0.0-52.0","1EA2F7A6ADC046B59A150EF4BC8F6527","9d84cdd4-62a5-45fb-b3da-f8cb68e73d4e","935a6d0c-0ba8-4f12-81d2-6af4ae24cda6","","null","<div style=""display: flex; justify-content: center; align-items: center;"">
                <img src=""images/other/blank.jpg"" style=""width: 300px; height: 300px;"" />
              </div>","null",""
"","","","","","html-keyboard-response","77","825704","0.0-53.0","1EA2F7A6ADC046B59A150EF4BC8F6527","9d84cdd4-62a5-45fb-b3da-f8cb68e73d4e","935a6d0c-0ba8-4f12-81d2-6af4ae24cda6","","null","<div style=""display: flex; justify-content: center; align-items: center;"">
                <img src=""images/causal/causal_series_2/causal_series_2_a.jpg"" style=""width: 300px; height: 300px;"" />
              </div>","null",""
"","","","","","html-button-response","78","831986","0.0-54.0","1EA2F7A6ADC046B59A150EF4BC8F6527","9d84cdd4-62a5-45fb-b3da-f8cb68e73d4e","935a6d0c-0ba8-4f12-81d2-6af4ae24cda6","","6280","
    <div style=""display: flex; justify-content: center; align-items: center;"">
      <img src=""images/red_deck_2.png"" style=""width: 300px; height: 300px; margin-right: 10px;"" />
      <img src=""images/blue_deck_1.png"" style=""width: 300px; height: 300px;"" />
    </div>","0","0"
"","","","","","html-keyboard-response","79","835003","0.0-55.0-0.0-0.0","1EA2F7A6ADC046B59A150EF4BC8F6527","9d84cdd4-62a5-45fb-b3da-f8cb68e73d4e","935a6d0c-0ba8-4f12-81d2-6af4ae24cda6","","null","<div style=""display: flex; justify-content: center; align-items: center;"">
                <img src=""images/causal/causal_series_2/causal_series_2_b.jpg"" style=""width: 300px; height: 300px;"" />
              </div>","null",""
"","","","","","html-keyboard-response","80","838005","0.0-55.0-0.0-1.0","1EA2F7A6ADC046B59A150EF4BC8F6527","9d84cdd4-62a5-45fb-b3da-f8cb68e73d4e","935a6d0c-0ba8-4f12-81d2-6af4ae24cda6","","null","<div style=""display: flex; justify-content: center; align-items: center;"">
                <img src=""images/causal/causal_series_2/causal_series_2_c.jpg"" style=""width: 300px; height: 300px;"" />
              </div>","null",""
"","","","","","html-keyboard-response","81","841021","0.0-55.0-0.0-2.0","1EA2F7A6ADC046B59A150EF4BC8F6527","9d84cdd4-62a5-45fb-b3da-f8cb68e73d4e","935a6d0c-0ba8-4f12-81d2-6af4ae24cda6","","null","<div style=""display: flex; justify-content: center; align-items: center;"">
                <img src=""images/causal/causal_series_2/causal_series_2_d.jpg"" style=""width: 300px; height: 300px;"" />
              </div>","null",""
"","","","","","html-keyboard-response","82","844033","0.0-56.0","1EA2F7A6ADC046B59A150EF4BC8F6527","9d84cdd4-62a5-45fb-b3da-f8cb68e73d4e","935a6d0c-0ba8-4f12-81d2-6af4ae24cda6","","null","<div style=""display: flex; justify-content: center; align-items: center;"">
                <img src=""images/other/blank.jpg"" style=""width: 300px; height: 300px;"" />
              </div>","null",""
"","","","","","html-keyboard-response","83","847037","0.0-57.0","1EA2F7A6ADC046B59A150EF4BC8F6527","9d84cdd4-62a5-45fb-b3da-f8cb68e73d4e","935a6d0c-0ba8-4f12-81d2-6af4ae24cda6","","null","<div style=""display: flex; justify-content: center; align-items: center;"">
                <img src=""images/causal/causal_series_9/causal_series_9_a.jpg"" style=""width: 300px; height: 300px;"" />
              </div>","null",""
"","","","","","html-button-response","84","853593","0.0-58.0","1EA2F7A6ADC046B59A150EF4BC8F6527","9d84cdd4-62a5-45fb-b3da-f8cb68e73d4e","935a6d0c-0ba8-4f12-81d2-6af4ae24cda6","","6556","
    <div style=""display: flex; justify-content: center; align-items: center;"">
      <img src=""images/red_deck_2.png"" style=""width: 300px; height: 300px; margin-right: 10px;"" />
      <img src=""images/blue_deck_1.png"" style=""width: 300px; height: 300px;"" />
    </div>","0","0"
"","","","","","html-keyboard-response","85","856594","0.0-59.0-0.0-0.0","1EA2F7A6ADC046B59A150EF4BC8F6527","9d84cdd4-62a5-45fb-b3da-f8cb68e73d4e","935a6d0c-0ba8-4f12-81d2-6af4ae24cda6","","null","<div style=""display: flex; justify-content: center; align-items: center;"">
                <img src=""images/causal/causal_series_9/causal_series_9_b.jpg"" style=""width: 300px; height: 300px;"" />
              </div>","null",""
"","","","","","html-keyboard-response","86","860549","0.0-59.0-0.0-1.0","1EA2F7A6ADC046B59A150EF4BC8F6527","9d84cdd4-62a5-45fb-b3da-f8cb68e73d4e","935a6d0c-0ba8-4f12-81d2-6af4ae24cda6","","null","<div style=""display: flex; justify-content: center; align-items: center;"">
                <img src=""images/causal/causal_series_9/causal_series_9_c.jpg"" style=""width: 300px; height: 300px;"" />
              </div>","null",""
"","","","","","html-keyboard-response","87","864546","0.0-59.0-0.0-2.0","1EA2F7A6ADC046B59A150EF4BC8F6527","9d84cdd4-62a5-45fb-b3da-f8cb68e73d4e","935a6d0c-0ba8-4f12-81d2-6af4ae24cda6","","null","<div style=""display: flex; justify-content: center; align-items: center;"">
                <img src=""images/causal/causal_series_9/causal_series_9_d.jpg"" style=""width: 300px; height: 300px;"" />
              </div>","null",""
"","","","","","html-keyboard-response","88","868146","0.0-60.0","1EA2F7A6ADC046B59A150EF4BC8F6527","9d84cdd4-62a5-45fb-b3da-f8cb68e73d4e","935a6d0c-0ba8-4f12-81d2-6af4ae24cda6","","null","<div style=""display: flex; justify-content: center; align-items: center;"">
                <img src=""images/other/blank.jpg"" style=""width: 300px; height: 300px;"" />
              </div>","null",""
"","","","","","html-keyboard-response","89","871151","0.0-61.0","1EA2F7A6ADC046B59A150EF4BC8F6527","9d84cdd4-62a5-45fb-b3da-f8cb68e73d4e","935a6d0c-0ba8-4f12-81d2-6af4ae24cda6","","null","<div style=""display: flex; justify-content: center; align-items: center;"">
                <img src=""images/causal/causal_series_4/causal_series_4_a.jpg"" style=""width: 300px; height: 300px;"" />
              </div>","null",""
"","","","","","html-button-response","90","872443","0.0-62.0","1EA2F7A6ADC046B59A150EF4BC8F6527","9d84cdd4-62a5-45fb-b3da-f8cb68e73d4e","935a6d0c-0ba8-4f12-81d2-6af4ae24cda6","","1292","
    <div style=""display: flex; justify-content: center; align-items: center;"">
      <img src=""images/red_deck_2.png"" style=""width: 300px; height: 300px; margin-right: 10px;"" />
      <img src=""images/blue_deck_1.png"" style=""width: 300px; height: 300px;"" />
    </div>","1","1"
"","","","","","html-keyboard-response","91","875551","0.0-63.0-1.0-0.0","1EA2F7A6ADC046B59A150EF4BC8F6527","9d84cdd4-62a5-45fb-b3da-f8cb68e73d4e","935a6d0c-0ba8-4f12-81d2-6af4ae24cda6","","null","<div style=""display: flex; justify-content: center; align-items: center;"">
                <img src=""images/semantic/semantic_series_9/semantic_series_9_d.jpg"" style=""width: 300px; height: 300px;"" />
              </div>","null",""
"","","","","","html-keyboard-response","92","879543","0.0-63.0-1.0-1.0","1EA2F7A6ADC046B59A150EF4BC8F6527","9d84cdd4-62a5-45fb-b3da-f8cb68e73d4e","935a6d0c-0ba8-4f12-81d2-6af4ae24cda6","","null","<div style=""display: flex; justify-content: center; align-items: center;"">
                <img src=""images/semantic/semantic_series_10/semantic_series_10_d.jpg"" style=""width: 300px; height: 300px;"" />
              </div>","null",""
"","","","","","html-keyboard-response","93","882555","0.0-63.0-1.0-2.0","1EA2F7A6ADC046B59A150EF4BC8F6527","9d84cdd4-62a5-45fb-b3da-f8cb68e73d4e","935a6d0c-0ba8-4f12-81d2-6af4ae24cda6","","null","<div style=""display: flex; justify-content: center; align-items: center;"">
                <img src=""images/semantic/semantic_series_11/semantic_series_11_d.jpg"" style=""width: 300px; height: 300px;"" />
              </div>","null",""
"","","","","","html-keyboard-response","94","885559","0.0-64.0","1EA2F7A6ADC046B59A150EF4BC8F6527","9d84cdd4-62a5-45fb-b3da-f8cb68e73d4e","935a6d0c-0ba8-4f12-81d2-6af4ae24cda6","","null","<div style=""display: flex; justify-content: center; align-items: center;"">
                <img src=""images/other/blank.jpg"" style=""width: 300px; height: 300px;"" />
              </div>","null",""
"","","","","","html-keyboard-response","95","888564","0.0-65.0","1EA2F7A6ADC046B59A150EF4BC8F6527","9d84cdd4-62a5-45fb-b3da-f8cb68e73d4e","935a6d0c-0ba8-4f12-81d2-6af4ae24cda6","","null","<div style=""display: flex; justify-content: center; align-items: center;"">
                <img src=""images/causal/causal_series_1/causal_series_1_a.jpg"" style=""width: 300px; height: 300px;"" />
              </div>","null",""
"","","","","","html-button-response","96","889356","0.0-66.0","1EA2F7A6ADC046B59A150EF4BC8F6527","9d84cdd4-62a5-45fb-b3da-f8cb68e73d4e","935a6d0c-0ba8-4f12-81d2-6af4ae24cda6","","792","
    <div style=""display: flex; justify-content: center; align-items: center;"">
      <img src=""images/red_deck_2.png"" style=""width: 300px; height: 300px; margin-right: 10px;"" />
      <img src=""images/blue_deck_1.png"" style=""width: 300px; height: 300px;"" />
    </div>","0","0"
"","","","","","html-keyboard-response","97","892363","0.0-67.0-0.0-0.0","1EA2F7A6ADC046B59A150EF4BC8F6527","9d84cdd4-62a5-45fb-b3da-f8cb68e73d4e","935a6d0c-0ba8-4f12-81d2-6af4ae24cda6","","null","<div style=""display: flex; justify-content: center; align-items: center;"">
                <img src=""images/causal/causal_series_1/causal_series_1_b.jpg"" style=""width: 300px; height: 300px;"" />
              </div>","null",""
"","","","","","html-keyboard-response","98","895366","0.0-67.0-0.0-1.0","1EA2F7A6ADC046B59A150EF4BC8F6527","9d84cdd4-62a5-45fb-b3da-f8cb68e73d4e","935a6d0c-0ba8-4f12-81d2-6af4ae24cda6","","null","<div style=""display: flex; justify-content: center; align-items: center;"">
                <img src=""images/causal/causal_series_1/causal_series_1_c.jpg"" style=""width: 300px; height: 300px;"" />
              </div>","null",""
"","","","","","html-keyboard-response","99","898368","0.0-67.0-0.0-2.0","1EA2F7A6ADC046B59A150EF4BC8F6527","9d84cdd4-62a5-45fb-b3da-f8cb68e73d4e","935a6d0c-0ba8-4f12-81d2-6af4ae24cda6","","null","<div style=""display: flex; justify-content: center; align-items: center;"">
                <img src=""images/causal/causal_series_1/causal_series_1_d.jpg"" style=""width: 300px; height: 300px;"" />
              </div>","null",""
"","","","","","html-keyboard-response","100","901373","0.0-68.0","1EA2F7A6ADC046B59A150EF4BC8F6527","9d84cdd4-62a5-45fb-b3da-f8cb68e73d4e","935a6d0c-0ba8-4f12-81d2-6af4ae24cda6","","null","<div style=""display: flex; justify-content: center; align-items: center;"">
                <img src=""images/other/blank.jpg"" style=""width: 300px; height: 300px;"" />
              </div>","null",""
"","","","","","html-keyboard-response","101","904388","0.0-69.0","1EA2F7A6ADC046B59A150EF4BC8F6527","9d84cdd4-62a5-45fb-b3da-f8cb68e73d4e","935a6d0c-0ba8-4f12-81d2-6af4ae24cda6","","null","<div style=""display: flex; justify-content: center; align-items: center;"">
                <img src=""images/causal/causal_series_3/causal_series_3_a.jpg"" style=""width: 300px; height: 300px;"" />
              </div>","null",""
"","","","","","html-button-response","102","905247","0.0-70.0","1EA2F7A6ADC046B59A150EF4BC8F6527","9d84cdd4-62a5-45fb-b3da-f8cb68e73d4e","935a6d0c-0ba8-4f12-81d2-6af4ae24cda6","","858","
    <div style=""display: flex; justify-content: center; align-items: center;"">
      <img src=""images/red_deck_2.png"" style=""width: 300px; height: 300px; margin-right: 10px;"" />
      <img src=""images/blue_deck_1.png"" style=""width: 300px; height: 300px;"" />
    </div>","0","0"
"","","","","","html-keyboard-response","103","908249","0.0-71.0-0.0-0.0","1EA2F7A6ADC046B59A150EF4BC8F6527","9d84cdd4-62a5-45fb-b3da-f8cb68e73d4e","935a6d0c-0ba8-4f12-81d2-6af4ae24cda6","","null","<div style=""display: flex; justify-content: center; align-items: center;"">
                <img src=""images/causal/causal_series_3/causal_series_3_b.jpg"" style=""width: 300px; height: 300px;"" />
              </div>","null",""
"","","","","","html-keyboard-response","104","911250","0.0-71.0-0.0-1.0","1EA2F7A6ADC046B59A150EF4BC8F6527","9d84cdd4-62a5-45fb-b3da-f8cb68e73d4e","935a6d0c-0ba8-4f12-81d2-6af4ae24cda6","","null","<div style=""display: flex; justify-content: center; align-items: center;"">
                <img src=""images/causal/causal_series_3/causal_series_3_c.jpg"" style=""width: 300px; height: 300px;"" />
              </div>","null",""
"","","","","","html-keyboard-response","105","914265","0.0-71.0-0.0-2.0","1EA2F7A6ADC046B59A150EF4BC8F6527","9d84cdd4-62a5-45fb-b3da-f8cb68e73d4e","935a6d0c-0ba8-4f12-81d2-6af4ae24cda6","","null","<div style=""display: flex; justify-content: center; align-items: center;"">
                <img src=""images/causal/causal_series_3/causal_series_3_d.jpg"" style=""width: 300px; height: 300px;"" />
              </div>","null",""
"","","","","","html-keyboard-response","106","917275","0.0-72.0","1EA2F7A6ADC046B59A150EF4BC8F6527","9d84cdd4-62a5-45fb-b3da-f8cb68e73d4e","935a6d0c-0ba8-4f12-81d2-6af4ae24cda6","","null","<div style=""display: flex; justify-content: center; align-items: center;"">
                <img src=""images/other/blank.jpg"" style=""width: 300px; height: 300px;"" />
              </div>","null",""
"","","","","","html-keyboard-response","107","920285","0.0-73.0","1EA2F7A6ADC046B59A150EF4BC8F6527","9d84cdd4-62a5-45fb-b3da-f8cb68e73d4e","935a6d0c-0ba8-4f12-81d2-6af4ae24cda6","","null","<div style=""display: flex; justify-content: center; align-items: center;"">
                <img src=""images/causal/causal_series_10/causal_series_10_a.jpg"" style=""width: 300px; height: 300px;"" />
              </div>","null",""
"","","","","","html-button-response","108","921211","0.0-74.0","1EA2F7A6ADC046B59A150EF4BC8F6527","9d84cdd4-62a5-45fb-b3da-f8cb68e73d4e","935a6d0c-0ba8-4f12-81d2-6af4ae24cda6","","925","
    <div style=""display: flex; justify-content: center; align-items: center;"">
      <img src=""images/red_deck_2.png"" style=""width: 300px; height: 300px; margin-right: 10px;"" />
      <img src=""images/blue_deck_1.png"" style=""width: 300px; height: 300px;"" />
    </div>","0","0"
"","","","","","html-keyboard-response","109","924213","0.0-75.0-0.0-0.0","1EA2F7A6ADC046B59A150EF4BC8F6527","9d84cdd4-62a5-45fb-b3da-f8cb68e73d4e","935a6d0c-0ba8-4f12-81d2-6af4ae24cda6","","null","<div style=""display: flex; justify-content: center; align-items: center;"">
                <img src=""images/causal/causal_series_10/causal_series_10_b.jpg"" style=""width: 300px; height: 300px;"" />
              </div>","null",""
"","","","","","html-keyboard-response","110","927222","0.0-75.0-0.0-1.0","1EA2F7A6ADC046B59A150EF4BC8F6527","9d84cdd4-62a5-45fb-b3da-f8cb68e73d4e","935a6d0c-0ba8-4f12-81d2-6af4ae24cda6","","null","<div style=""display: flex; justify-content: center; align-items: center;"">
                <img src=""images/causal/causal_series_10/causal_series_10_c.jpg"" style=""width: 300px; height: 300px;"" />
              </div>","null",""
"","","","","","html-keyboard-response","111","930237","0.0-75.0-0.0-2.0","1EA2F7A6ADC046B59A150EF4BC8F6527","9d84cdd4-62a5-45fb-b3da-f8cb68e73d4e","935a6d0c-0ba8-4f12-81d2-6af4ae24cda6","","null","<div style=""display: flex; justify-content: center; align-items: center;"">
                <img src=""images/causal/causal_series_10/causal_series_10_d.jpg"" style=""width: 300px; height: 300px;"" />
              </div>","null",""
"","","","","","html-keyboard-response","112","933253","0.0-76.0","1EA2F7A6ADC046B59A150EF4BC8F6527","9d84cdd4-62a5-45fb-b3da-f8cb68e73d4e","935a6d0c-0ba8-4f12-81d2-6af4ae24cda6","","null","<div style=""display: flex; justify-content: center; align-items: center;"">
                <img src=""images/other/blank.jpg"" style=""width: 300px; height: 300px;"" />
              </div>","null",""
"","","","","","survey-text","113","942569","0.0-77.0","1EA2F7A6ADC046B59A150EF4BC8F6527","9d84cdd4-62a5-45fb-b3da-f8cb68e73d4e","935a6d0c-0ba8-4f12-81d2-6af4ae24cda6","","9314","","{""Q0"":""colors""}",""
"","","","","","survey-text","114","946008","0.0-78.0","1EA2F7A6ADC046B59A150EF4BC8F6527","9d84cdd4-62a5-45fb-b3da-f8cb68e73d4e","935a6d0c-0ba8-4f12-81d2-6af4ae24cda6","","3438","","{""Q0"":""red""}",""
"","","","","","html-button-response","115","952768","0.0-79.0","1EA2F7A6ADC046B59A150EF4BC8F6527","9d84cdd4-62a5-45fb-b3da-f8cb68e73d4e","935a6d0c-0ba8-4f12-81d2-6af4ae24cda6","","6759","Which color deck does the fourth image continue the story from the series?","1",""
"","","","","","html-button-response","116","955723","0.0-80.0","1EA2F7A6ADC046B59A150EF4BC8F6527","9d84cdd4-62a5-45fb-b3da-f8cb68e73d4e","935a6d0c-0ba8-4f12-81d2-6af4ae24cda6","","2954","Which color deck does the fourth image not follow the story from the series?","0",""
"","","","","","survey-text","117","961965","0.0-81.0","1EA2F7A6ADC046B59A150EF4BC8F6527","9d84cdd4-62a5-45fb-b3da-f8cb68e73d4e","935a6d0c-0ba8-4f12-81d2-6af4ae24cda6","","6238","","{""Q0"":""female"",""Q1"":""36""}",""
"","","","","","instructions","118","964855","0.0-82.0","1EA2F7A6ADC046B59A150EF4BC8F6527","9d84cdd4-62a5-45fb-b3da-f8cb68e73d4e","935a6d0c-0ba8-4f12-81d2-6af4ae24cda6","[{""page_index"":0,""viewing_time"":2889}]","2889","","",""
