"success","timeout","failed_images","failed_audio","failed_video","trial_type","trial_index","time_elapsed","internal_node_id","subject_id","study_id","session_id","view_history","rt","stimulus","response","series","repetition","phase","choice","question_order"
"true","false","[]","[]","[]","preload","0","987","0.0-0.0","E0E9BF22F9994B97A8824499EB82985F","0199dc0a-7c15-78bb-92e7-3f7f9c6305af","0199dbe2-9616-7ebf-8a27-71b11f788553","","","","","","","","",""
"","","","","","instructions","1","4656","0.0-1.0","E0E9BF22F9994B97A8824499EB82985F","0199dc0a-7c15-78bb-92e7-3f7f9c6305af","0199dbe2-9616-7ebf-8a27-71b11f788553","[{""page_index"":0,""viewing_time"":3668}]","3668","","","","","","",""
"","","","","","instructions","2","8300","0.0-2.0","E0E9BF22F9994B97A8824499EB82985F","0199dc0a-7c15-78bb-92e7-3f7f9c6305af","0199dbe2-9616-7ebf-8a27-71b11f788553","[{""page_index"":0,""viewing_time"":3643}]","3644","","","","","","",""
"true","","","","","fullscreen","3","10547","0.0-3.0","E0E9BF22F9994B97A8824499EB82985F","0199dc0a-7c15-78bb-92e7-3f7f9c6305af","0199dbe2-9616-7ebf-8a27-71b11f788553","","1237","","","","","","",""
"","","","","","instructions","4","26941","0.0-4.0","E0E9BF22F9994B97A8824499EB82985F","0199dc0a-7c15-78bb-92e7-3f7f9c6305af","0199dbe2-9616-7ebf-8a27-71b11f788553","[{""page_index"":0,""viewing_time"":16394}]","16394","","","","","","",""
"","","","","","html-keyboard-response","5","32947","0.0-5.0","E0E9BF22F9994B97A8824499EB82985F","0199dc0a-7c15-78bb-92e7-3f7f9c6305af","0199dbe2-9616-7ebf-8a27-71b11f788553","","null","<div style=""display: flex; justify-content: center; align-items: center;"">
                     <img src=""images/causal/causal_series_2/causal_series_2_a.png"" style=""width: 300px; height: 300px;"" />
                   </div>","null","2","1","A","",""
"","","","","","html-keyboard-response","6","38957","0.0-6.0","E0E9BF22F9994B97A8824499EB82985F","0199dc0a-7c15-78bb-92e7-3f7f9c6305af","0199dbe2-9616-7ebf-8a27-71b11f788553","","null","<div style=""display: flex; justify-content: center; align-items: center;"">
                     <img src=""images/causal/causal_series_2/causal_series_2_b.png"" style=""width: 300px; height: 300px;"" />
                   </div>","null","2","1","B","",""
"","","","","","html-keyboard-response","7","44958","0.0-7.0","E0E9BF22F9994B97A8824499EB82985F","0199dc0a-7c15-78bb-92e7-3f7f9c6305af","0199dbe2-9616-7ebf-8a27-71b11f788553","","null","<div style=""display: flex; justify-content: center; align-items: center;"">
                     <img src=""images/causal/causal_series_2/causal_series_2_c.png"" style=""width: 300px; height: 300px;"" />
                   </div>","null","2","1","C","",""
"","","","","","html-button-response","8","46954","0.0-8.0","E0E9BF22F9994B97A8824499EB82985F","0199dc0a-7c15-78bb-92e7-3f7f9c6305af","0199dbe2-9616-7ebf-8a27-71b11f788553","","1995","
        <div style=""display: flex; justify-content: center; align-items: center;"">
          <img src=""images/red_deck_2.png"" style=""width: 300px; height: 300px; margin-right: 10px;"" />
          <img src=""images/blue_deck_1.png"" style=""width: 300px; height: 300px;"" />
        </div>","1","2","1","choice","1",""
"","","","","","html-keyboard-response","9","52959","0.0-9.0-1.0-0.0","E0E9BF22F9994B97A8824499EB82985F","0199dc0a-7c15-78bb-92e7-3f7f9c6305af","0199dbe2-9616-7ebf-8a27-71b11f788553","","null","<div style=""display: flex; justify-content: center; align-items: center;"">
                     <img src=""images/semantic/semantic_series_2/semantic_series_2_d.png"" style=""width: 300px; height: 300px;"" />
                   </div>","null","2","1","D","",""
"","","","","","survey-likert","10","58822","0.0-10.0","E0E9BF22F9994B97A8824499EB82985F","0199dc0a-7c15-78bb-92e7-3f7f9c6305af","0199dbe2-9616-7ebf-8a27-71b11f788553","","5860","","{""Q0"":3}","2","1","surprise_rating","","[0]"
"","","","","","survey-likert","11","62461","0.0-11.0","E0E9BF22F9994B97A8824499EB82985F","0199dc0a-7c15-78bb-92e7-3f7f9c6305af","0199dbe2-9616-7ebf-8a27-71b11f788553","","3637","","{""Q0"":2}","2","1","enjoyment_rating","","[0]"
"","","","","","html-keyboard-response","12","68467","0.0-12.0","E0E9BF22F9994B97A8824499EB82985F","0199dc0a-7c15-78bb-92e7-3f7f9c6305af","0199dbe2-9616-7ebf-8a27-71b11f788553","","null","<div style=""display: flex; justify-content: center; align-items: center;"">
                     <img src=""images/other/blank.png"" style=""width: 300px; height: 300px;"" />
                   </div>","null","0","0","blank","",""
"","","","","","html-keyboard-response","13","74471","0.0-13.0","E0E9BF22F9994B97A8824499EB82985F","0199dc0a-7c15-78bb-92e7-3f7f9c6305af","0199dbe2-9616-7ebf-8a27-71b11f788553","","null","<div style=""display: flex; justify-content: center; align-items: center;"">
                     <img src=""images/causal/causal_series_1/causal_series_1_a.png"" style=""width: 300px; height: 300px;"" />
                   </div>","null","1","1","A","",""
"","","","","","html-keyboard-response","14","80480","0.0-14.0","E0E9BF22F9994B97A8824499EB82985F","0199dc0a-7c15-78bb-92e7-3f7f9c6305af","0199dbe2-9616-7ebf-8a27-71b11f788553","","null","<div style=""display: flex; justify-content: center; align-items: center;"">
                     <img src=""images/causal/causal_series_1/causal_series_1_b.png"" style=""width: 300px; height: 300px;"" />
                   </div>","null","1","1","B","",""
"","","","","","html-keyboard-response","15","86482","0.0-15.0","E0E9BF22F9994B97A8824499EB82985F","0199dc0a-7c15-78bb-92e7-3f7f9c6305af","0199dbe2-9616-7ebf-8a27-71b11f788553","","null","<div style=""display: flex; justify-content: center; align-items: center;"">
                     <img src=""images/causal/causal_series_1/causal_series_1_c.png"" style=""width: 300px; height: 300px;"" />
                   </div>","null","1","1","C","",""
"","","","","","html-button-response","16","89030","0.0-16.0","E0E9BF22F9994B97A8824499EB82985F","0199dc0a-7c15-78bb-92e7-3f7f9c6305af","0199dbe2-9616-7ebf-8a27-71b11f788553","","2546","
        <div style=""display: flex; justify-content: center; align-items: center;"">
          <img src=""images/red_deck_2.png"" style=""width: 300px; height: 300px; margin-right: 10px;"" />
          <img src=""images/blue_deck_1.png"" style=""width: 300px; height: 300px;"" />
        </div>","1","1","1","choice","1",""
"","","","","","html-keyboard-response","17","95034","0.0-17.0-1.0-0.0","E0E9BF22F9994B97A8824499EB82985F","0199dc0a-7c15-78bb-92e7-3f7f9c6305af","0199dbe2-9616-7ebf-8a27-71b11f788553","","null","<div style=""display: flex; justify-content: center; align-items: center;"">
                     <img src=""images/semantic/semantic_series_1/semantic_series_1_d.png"" style=""width: 300px; height: 300px;"" />
                   </div>","null","1","1","D","",""
"","","","","","survey-likert","18","98270","0.0-18.0","E0E9BF22F9994B97A8824499EB82985F","0199dc0a-7c15-78bb-92e7-3f7f9c6305af","0199dbe2-9616-7ebf-8a27-71b11f788553","","3235","","{""Q0"":2}","1","1","surprise_rating","","[0]"
"","","","","","survey-likert","19","100579","0.0-19.0","E0E9BF22F9994B97A8824499EB82985F","0199dc0a-7c15-78bb-92e7-3f7f9c6305af","0199dbe2-9616-7ebf-8a27-71b11f788553","","2307","","{""Q0"":1}","1","1","enjoyment_rating","","[0]"
"","","","","","html-keyboard-response","20","106583","0.0-20.0","E0E9BF22F9994B97A8824499EB82985F","0199dc0a-7c15-78bb-92e7-3f7f9c6305af","0199dbe2-9616-7ebf-8a27-71b11f788553","","null","<div style=""display: flex; justify-content: center; align-items: center;"">
                     <img src=""images/other/blank.png"" style=""width: 300px; height: 300px;"" />
                   </div>","null","0","0","blank","",""
"","","","","","html-keyboard-response","21","112586","0.0-21.0","E0E9BF22F9994B97A8824499EB82985F","0199dc0a-7c15-78bb-92e7-3f7f9c6305af","0199dbe2-9616-7ebf-8a27-71b11f788553","","null","<div style=""display: flex; justify-content: center; align-items: center;"">
                     <img src=""images/causal/causal_series_4/causal_series_4_a.png"" style=""width: 300px; height: 300px;"" />
                   </div>","null","4","1","A","",""
"","","","","","html-keyboard-response","22","118588","0.0-22.0","E0E9BF22F9994B97A8824499EB82985F","0199dc0a-7c15-78bb-92e7-3f7f9c6305af","0199dbe2-9616-7ebf-8a27-71b11f788553","","null","<div style=""display: flex; justify-content: center; align-items: center;"">
                     <img src=""images/causal/causal_series_4/causal_series_4_b.png"" style=""width: 300px; height: 300px;"" />
                   </div>","null","4","1","B","",""
"","","","","","html-keyboard-response","23","124595","0.0-23.0","E0E9BF22F9994B97A8824499EB82985F","0199dc0a-7c15-78bb-92e7-3f7f9c6305af","0199dbe2-9616-7ebf-8a27-71b11f788553","","null","<div style=""display: flex; justify-content: center; align-items: center;"">
                     <img src=""images/causal/causal_series_4/causal_series_4_c.png"" style=""width: 300px; height: 300px;"" />
                   </div>","null","4","1","C","",""
"","","","","","html-button-response","24","125554","0.0-24.0","E0E9BF22F9994B97A8824499EB82985F","0199dc0a-7c15-78bb-92e7-3f7f9c6305af","0199dbe2-9616-7ebf-8a27-71b11f788553","","958","
        <div style=""display: flex; justify-content: center; align-items: center;"">
          <img src=""images/red_deck_2.png"" style=""width: 300px; height: 300px; margin-right: 10px;"" />
          <img src=""images/blue_deck_1.png"" style=""width: 300px; height: 300px;"" />
        </div>","1","4","1","choice","1",""
"","","","","","html-keyboard-response","25","131554","0.0-25.0-1.0-0.0","E0E9BF22F9994B97A8824499EB82985F","0199dc0a-7c15-78bb-92e7-3f7f9c6305af","0199dbe2-9616-7ebf-8a27-71b11f788553","","null","<div style=""display: flex; justify-content: center; align-items: center;"">
                     <img src=""images/semantic/semantic_series_4/semantic_series_4_d.png"" style=""width: 300px; height: 300px;"" />
                   </div>","null","4","1","D","",""
"","","","","","survey-likert","26","136902","0.0-26.0","E0E9BF22F9994B97A8824499EB82985F","0199dc0a-7c15-78bb-92e7-3f7f9c6305af","0199dbe2-9616-7ebf-8a27-71b11f788553","","5346","","{""Q0"":3}","4","1","surprise_rating","","[0]"
"","","","","","survey-likert","27","139386","0.0-27.0","E0E9BF22F9994B97A8824499EB82985F","0199dc0a-7c15-78bb-92e7-3f7f9c6305af","0199dbe2-9616-7ebf-8a27-71b11f788553","","2482","","{""Q0"":1}","4","1","enjoyment_rating","","[0]"
"","","","","","html-keyboard-response","28","145391","0.0-28.0","E0E9BF22F9994B97A8824499EB82985F","0199dc0a-7c15-78bb-92e7-3f7f9c6305af","0199dbe2-9616-7ebf-8a27-71b11f788553","","null","<div style=""display: flex; justify-content: center; align-items: center;"">
                     <img src=""images/other/blank.png"" style=""width: 300px; height: 300px;"" />
                   </div>","null","0","0","blank","",""
"","","","","","html-keyboard-response","29","151395","0.0-29.0","E0E9BF22F9994B97A8824499EB82985F","0199dc0a-7c15-78bb-92e7-3f7f9c6305af","0199dbe2-9616-7ebf-8a27-71b11f788553","","null","<div style=""display: flex; justify-content: center; align-items: center;"">
                     <img src=""images/causal/causal_series_5/causal_series_5_a.png"" style=""width: 300px; height: 300px;"" />
                   </div>","null","5","1","A","",""
"","","","","","html-keyboard-response","30","157398","0.0-30.0","E0E9BF22F9994B97A8824499EB82985F","0199dc0a-7c15-78bb-92e7-3f7f9c6305af","0199dbe2-9616-7ebf-8a27-71b11f788553","","null","<div style=""display: flex; justify-content: center; align-items: center;"">
                     <img src=""images/causal/causal_series_5/causal_series_5_b.png"" style=""width: 300px; height: 300px;"" />
                   </div>","null","5","1","B","",""
"","","","","","html-keyboard-response","31","163407","0.0-31.0","E0E9BF22F9994B97A8824499EB82985F","0199dc0a-7c15-78bb-92e7-3f7f9c6305af","0199dbe2-9616-7ebf-8a27-71b11f788553","","null","<div style=""display: flex; justify-content: center; align-items: center;"">
                     <img src=""images/causal/causal_series_5/causal_series_5_c.png"" style=""width: 300px; height: 300px;"" />
                   </div>","null","5","1","C","",""
"","","","","","html-button-response","32","164282","0.0-32.0","E0E9BF22F9994B97A8824499EB82985F","0199dc0a-7c15-78bb-92e7-3f7f9c6305af","0199dbe2-9616-7ebf-8a27-71b11f788553","","874","
        <div style=""display: flex; justify-content: center; align-items: center;"">
          <img src=""images/red_deck_2.png"" style=""width: 300px; height: 300px; margin-right: 10px;"" />
          <img src=""images/blue_deck_1.png"" style=""width: 300px; height: 300px;"" />
        </div>","1","5","1","choice","1",""
"","","","","","html-keyboard-response","33","170284","0.0-33.0-1.0-0.0","E0E9BF22F9994B97A8824499EB82985F","0199dc0a-7c15-78bb-92e7-3f7f9c6305af","0199dbe2-9616-7ebf-8a27-71b11f788553","","null","<div style=""display: flex; justify-content: center; align-items: center;"">
                     <img src=""images/semantic/semantic_series_5/semantic_series_5_d.png"" style=""width: 300px; height: 300px;"" />
                   </div>","null","5","1","D","",""
"","","","","","survey-likert","34","171985","0.0-34.0","E0E9BF22F9994B97A8824499EB82985F","0199dc0a-7c15-78bb-92e7-3f7f9c6305af","0199dbe2-9616-7ebf-8a27-71b11f788553","","1700","","{""Q0"":2}","5","1","surprise_rating","","[0]"
"","","","","","survey-likert","35","173066","0.0-35.0","E0E9BF22F9994B97A8824499EB82985F","0199dc0a-7c15-78bb-92e7-3f7f9c6305af","0199dbe2-9616-7ebf-8a27-71b11f788553","","1079","","{""Q0"":2}","5","1","enjoyment_rating","","[0]"
"","","","","","html-keyboard-response","36","179069","0.0-36.0","E0E9BF22F9994B97A8824499EB82985F","0199dc0a-7c15-78bb-92e7-3f7f9c6305af","0199dbe2-9616-7ebf-8a27-71b11f788553","","null","<div style=""display: flex; justify-content: center; align-items: center;"">
                     <img src=""images/other/blank.png"" style=""width: 300px; height: 300px;"" />
                   </div>","null","0","0","blank","",""
"","","","","","html-keyboard-response","37","185073","0.0-37.0","E0E9BF22F9994B97A8824499EB82985F","0199dc0a-7c15-78bb-92e7-3f7f9c6305af","0199dbe2-9616-7ebf-8a27-71b11f788553","","null","<div style=""display: flex; justify-content: center; align-items: center;"">
                     <img src=""images/causal/causal_series_9/causal_series_9_a.png"" style=""width: 300px; height: 300px;"" />
                   </div>","null","9","1","A","",""
"","","","","","html-keyboard-response","38","191074","0.0-38.0","E0E9BF22F9994B97A8824499EB82985F","0199dc0a-7c15-78bb-92e7-3f7f9c6305af","0199dbe2-9616-7ebf-8a27-71b11f788553","","null","<div style=""display: flex; justify-content: center; align-items: center;"">
                     <img src=""images/causal/causal_series_9/causal_series_9_b.png"" style=""width: 300px; height: 300px;"" />
                   </div>","null","9","1","B","",""
"","","","","","html-keyboard-response","39","197075","0.0-39.0","E0E9BF22F9994B97A8824499EB82985F","0199dc0a-7c15-78bb-92e7-3f7f9c6305af","0199dbe2-9616-7ebf-8a27-71b11f788553","","null","<div style=""display: flex; justify-content: center; align-items: center;"">
                     <img src=""images/causal/causal_series_9/causal_series_9_c.png"" style=""width: 300px; height: 300px;"" />
                   </div>","null","9","1","C","",""
"","","","","","html-button-response","40","197977","0.0-40.0","E0E9BF22F9994B97A8824499EB82985F","0199dc0a-7c15-78bb-92e7-3f7f9c6305af","0199dbe2-9616-7ebf-8a27-71b11f788553","","901","
        <div style=""display: flex; justify-content: center; align-items: center;"">
          <img src=""images/red_deck_2.png"" style=""width: 300px; height: 300px; margin-right: 10px;"" />
          <img src=""images/blue_deck_1.png"" style=""width: 300px; height: 300px;"" />
        </div>","0","9","1","choice","0",""
"","","","","","html-keyboard-response","41","203986","0.0-41.0-0.0-0.0","E0E9BF22F9994B97A8824499EB82985F","0199dc0a-7c15-78bb-92e7-3f7f9c6305af","0199dbe2-9616-7ebf-8a27-71b11f788553","","null","<div style=""display: flex; justify-content: center; align-items: center;"">
                     <img src=""images/causal/causal_series_9/causal_series_9_d.png"" style=""width: 300px; height: 300px;"" />
                   </div>","null","9","1","D","",""
"","","","","","survey-likert","42","207242","0.0-42.0","E0E9BF22F9994B97A8824499EB82985F","0199dc0a-7c15-78bb-92e7-3f7f9c6305af","0199dbe2-9616-7ebf-8a27-71b11f788553","","3255","","{""Q0"":3}","9","1","surprise_rating","","[0]"
"","","","","","survey-likert","43","210167","0.0-43.0","E0E9BF22F9994B97A8824499EB82985F","0199dc0a-7c15-78bb-92e7-3f7f9c6305af","0199dbe2-9616-7ebf-8a27-71b11f788553","","2923","","{""Q0"":3}","9","1","enjoyment_rating","","[0]"
"","","","","","html-keyboard-response","44","216168","0.0-44.0","E0E9BF22F9994B97A8824499EB82985F","0199dc0a-7c15-78bb-92e7-3f7f9c6305af","0199dbe2-9616-7ebf-8a27-71b11f788553","","null","<div style=""display: flex; justify-content: center; align-items: center;"">
                     <img src=""images/other/blank.png"" style=""width: 300px; height: 300px;"" />
                   </div>","null","0","0","blank","",""
"","","","","","html-keyboard-response","45","222175","0.0-45.0","E0E9BF22F9994B97A8824499EB82985F","0199dc0a-7c15-78bb-92e7-3f7f9c6305af","0199dbe2-9616-7ebf-8a27-71b11f788553","","null","<div style=""display: flex; justify-content: center; align-items: center;"">
                     <img src=""images/causal/causal_series_7/causal_series_7_a.png"" style=""width: 300px; height: 300px;"" />
                   </div>","null","7","1","A","",""
"","","","","","html-keyboard-response","46","228180","0.0-46.0","E0E9BF22F9994B97A8824499EB82985F","0199dc0a-7c15-78bb-92e7-3f7f9c6305af","0199dbe2-9616-7ebf-8a27-71b11f788553","","null","<div style=""display: flex; justify-content: center; align-items: center;"">
                     <img src=""images/causal/causal_series_7/causal_series_7_b.png"" style=""width: 300px; height: 300px;"" />
                   </div>","null","7","1","B","",""
"","","","","","html-keyboard-response","47","234184","0.0-47.0","E0E9BF22F9994B97A8824499EB82985F","0199dc0a-7c15-78bb-92e7-3f7f9c6305af","0199dbe2-9616-7ebf-8a27-71b11f788553","","null","<div style=""display: flex; justify-content: center; align-items: center;"">
                     <img src=""images/causal/causal_series_7/causal_series_7_c.png"" style=""width: 300px; height: 300px;"" />
                   </div>","null","7","1","C","",""
"","","","","","html-button-response","48","235296","0.0-48.0","E0E9BF22F9994B97A8824499EB82985F","0199dc0a-7c15-78bb-92e7-3f7f9c6305af","0199dbe2-9616-7ebf-8a27-71b11f788553","","1111","
        <div style=""display: flex; justify-content: center; align-items: center;"">
          <img src=""images/red_deck_2.png"" style=""width: 300px; height: 300px; margin-right: 10px;"" />
          <img src=""images/blue_deck_1.png"" style=""width: 300px; height: 300px;"" />
        </div>","1","7","1","choice","1",""
"","","","","","html-keyboard-response","49","241298","0.0-49.0-1.0-0.0","E0E9BF22F9994B97A8824499EB82985F","0199dc0a-7c15-78bb-92e7-3f7f9c6305af","0199dbe2-9616-7ebf-8a27-71b11f788553","","null","<div style=""display: flex; justify-content: center; align-items: center;"">
                     <img src=""images/semantic/semantic_series_7/semantic_series_7_d.png"" style=""width: 300px; height: 300px;"" />
                   </div>","null","7","1","D","",""
"","","","","","survey-likert","50","242669","0.0-50.0","E0E9BF22F9994B97A8824499EB82985F","0199dc0a-7c15-78bb-92e7-3f7f9c6305af","0199dbe2-9616-7ebf-8a27-71b11f788553","","1370","","{""Q0"":4}","7","1","surprise_rating","","[0]"
"","","","","","survey-likert","51","243825","0.0-51.0","E0E9BF22F9994B97A8824499EB82985F","0199dc0a-7c15-78bb-92e7-3f7f9c6305af","0199dbe2-9616-7ebf-8a27-71b11f788553","","1154","","{""Q0"":2}","7","1","enjoyment_rating","","[0]"
"","","","","","html-keyboard-response","52","249830","0.0-52.0","E0E9BF22F9994B97A8824499EB82985F","0199dc0a-7c15-78bb-92e7-3f7f9c6305af","0199dbe2-9616-7ebf-8a27-71b11f788553","","null","<div style=""display: flex; justify-content: center; align-items: center;"">
                     <img src=""images/other/blank.png"" style=""width: 300px; height: 300px;"" />
                   </div>","null","0","0","blank","",""
"","","","","","html-keyboard-response","53","255832","0.0-53.0","E0E9BF22F9994B97A8824499EB82985F","0199dc0a-7c15-78bb-92e7-3f7f9c6305af","0199dbe2-9616-7ebf-8a27-71b11f788553","","null","<div style=""display: flex; justify-content: center; align-items: center;"">
                     <img src=""images/causal/causal_series_6/causal_series_6_a.png"" style=""width: 300px; height: 300px;"" />
                   </div>","null","6","1","A","",""
"","","","","","html-keyboard-response","54","261833","0.0-54.0","E0E9BF22F9994B97A8824499EB82985F","0199dc0a-7c15-78bb-92e7-3f7f9c6305af","0199dbe2-9616-7ebf-8a27-71b11f788553","","null","<div style=""display: flex; justify-content: center; align-items: center;"">
                     <img src=""images/causal/causal_series_6/causal_series_6_b.png"" style=""width: 300px; height: 300px;"" />
                   </div>","null","6","1","B","",""
"","","","","","html-keyboard-response","55","267849","0.0-55.0","E0E9BF22F9994B97A8824499EB82985F","0199dc0a-7c15-78bb-92e7-3f7f9c6305af","0199dbe2-9616-7ebf-8a27-71b11f788553","","null","<div style=""display: flex; justify-content: center; align-items: center;"">
                     <img src=""images/causal/causal_series_6/causal_series_6_c.png"" style=""width: 300px; height: 300px;"" />
                   </div>","null","6","1","C","",""
"","","","","","html-button-response","56","268700","0.0-56.0","E0E9BF22F9994B97A8824499EB82985F","0199dc0a-7c15-78bb-92e7-3f7f9c6305af","0199dbe2-9616-7ebf-8a27-71b11f788553","","850","
        <div style=""display: flex; justify-content: center; align-items: center;"">
          <img src=""images/red_deck_2.png"" style=""width: 300px; height: 300px; margin-right: 10px;"" />
          <img src=""images/blue_deck_1.png"" style=""width: 300px; height: 300px;"" />
        </div>","0","6","1","choice","0",""
"","","","","","html-keyboard-response","57","274709","0.0-57.0-0.0-0.0","E0E9BF22F9994B97A8824499EB82985F","0199dc0a-7c15-78bb-92e7-3f7f9c6305af","0199dbe2-9616-7ebf-8a27-71b11f788553","","null","<div style=""display: flex; justify-content: center; align-items: center;"">
                     <img src=""images/causal/causal_series_6/causal_series_6_d.png"" style=""width: 300px; height: 300px;"" />
                   </div>","null","6","1","D","",""
"","","","","","survey-likert","58","276958","0.0-58.0","E0E9BF22F9994B97A8824499EB82985F","0199dc0a-7c15-78bb-92e7-3f7f9c6305af","0199dbe2-9616-7ebf-8a27-71b11f788553","","2248","","{""Q0"":3}","6","1","surprise_rating","","[0]"
"","","","","","survey-likert","59","279171","0.0-59.0","E0E9BF22F9994B97A8824499EB82985F","0199dc0a-7c15-78bb-92e7-3f7f9c6305af","0199dbe2-9616-7ebf-8a27-71b11f788553","","2212","","{""Q0"":2}","6","1","enjoyment_rating","","[0]"
"","","","","","html-keyboard-response","60","285172","0.0-60.0","E0E9BF22F9994B97A8824499EB82985F","0199dc0a-7c15-78bb-92e7-3f7f9c6305af","0199dbe2-9616-7ebf-8a27-71b11f788553","","null","<div style=""display: flex; justify-content: center; align-items: center;"">
                     <img src=""images/other/blank.png"" style=""width: 300px; height: 300px;"" />
                   </div>","null","0","0","blank","",""
"","","","","","html-keyboard-response","61","291174","0.0-61.0","E0E9BF22F9994B97A8824499EB82985F","0199dc0a-7c15-78bb-92e7-3f7f9c6305af","0199dbe2-9616-7ebf-8a27-71b11f788553","","null","<div style=""display: flex; justify-content: center; align-items: center;"">
                     <img src=""images/causal/causal_series_10/causal_series_10_a.png"" style=""width: 300px; height: 300px;"" />
                   </div>","null","10","1","A","",""
"","","","","","html-keyboard-response","62","297178","0.0-62.0","E0E9BF22F9994B97A8824499EB82985F","0199dc0a-7c15-78bb-92e7-3f7f9c6305af","0199dbe2-9616-7ebf-8a27-71b11f788553","","null","<div style=""display: flex; justify-content: center; align-items: center;"">
                     <img src=""images/causal/causal_series_10/causal_series_10_b.png"" style=""width: 300px; height: 300px;"" />
                   </div>","null","10","1","B","",""
"","","","","","html-keyboard-response","63","303180","0.0-63.0","E0E9BF22F9994B97A8824499EB82985F","0199dc0a-7c15-78bb-92e7-3f7f9c6305af","0199dbe2-9616-7ebf-8a27-71b11f788553","","null","<div style=""display: flex; justify-content: center; align-items: center;"">
                     <img src=""images/causal/causal_series_10/causal_series_10_c.png"" style=""width: 300px; height: 300px;"" />
                   </div>","null","10","1","C","",""
"","","","","","html-button-response","64","304067","0.0-64.0","E0E9BF22F9994B97A8824499EB82985F","0199dc0a-7c15-78bb-92e7-3f7f9c6305af","0199dbe2-9616-7ebf-8a27-71b11f788553","","887","
        <div style=""display: flex; justify-content: center; align-items: center;"">
          <img src=""images/red_deck_2.png"" style=""width: 300px; height: 300px; margin-right: 10px;"" />
          <img src=""images/blue_deck_1.png"" style=""width: 300px; height: 300px;"" />
        </div>","1","10","1","choice","1",""
"","","","","","html-keyboard-response","65","310073","0.0-65.0-1.0-0.0","E0E9BF22F9994B97A8824499EB82985F","0199dc0a-7c15-78bb-92e7-3f7f9c6305af","0199dbe2-9616-7ebf-8a27-71b11f788553","","null","<div style=""display: flex; justify-content: center; align-items: center;"">
                     <img src=""images/semantic/semantic_series_10/semantic_series_10_d.png"" style=""width: 300px; height: 300px;"" />
                   </div>","null","10","1","D","",""
"","","","","","survey-likert","66","311696","0.0-66.0","E0E9BF22F9994B97A8824499EB82985F","0199dc0a-7c15-78bb-92e7-3f7f9c6305af","0199dbe2-9616-7ebf-8a27-71b11f788553","","1623","","{""Q0"":3}","10","1","surprise_rating","","[0]"
"","","","","","survey-likert","67","313294","0.0-67.0","E0E9BF22F9994B97A8824499EB82985F","0199dc0a-7c15-78bb-92e7-3f7f9c6305af","0199dbe2-9616-7ebf-8a27-71b11f788553","","1597","","{""Q0"":1}","10","1","enjoyment_rating","","[0]"
"","","","","","html-keyboard-response","68","319300","0.0-68.0","E0E9BF22F9994B97A8824499EB82985F","0199dc0a-7c15-78bb-92e7-3f7f9c6305af","0199dbe2-9616-7ebf-8a27-71b11f788553","","null","<div style=""display: flex; justify-content: center; align-items: center;"">
                     <img src=""images/other/blank.png"" style=""width: 300px; height: 300px;"" />
                   </div>","null","0","0","blank","",""
"","","","","","html-keyboard-response","69","325312","0.0-69.0","E0E9BF22F9994B97A8824499EB82985F","0199dc0a-7c15-78bb-92e7-3f7f9c6305af","0199dbe2-9616-7ebf-8a27-71b11f788553","","null","<div style=""display: flex; justify-content: center; align-items: center;"">
                     <img src=""images/causal/causal_series_8/causal_series_8_a.png"" style=""width: 300px; height: 300px;"" />
                   </div>","null","8","1","A","",""
"","","","","","html-keyboard-response","70","331313","0.0-70.0","E0E9BF22F9994B97A8824499EB82985F","0199dc0a-7c15-78bb-92e7-3f7f9c6305af","0199dbe2-9616-7ebf-8a27-71b11f788553","","null","<div style=""display: flex; justify-content: center; align-items: center;"">
                     <img src=""images/causal/causal_series_8/causal_series_8_b.png"" style=""width: 300px; height: 300px;"" />
                   </div>","null","8","1","B","",""
"","","","","","html-keyboard-response","71","337318","0.0-71.0","E0E9BF22F9994B97A8824499EB82985F","0199dc0a-7c15-78bb-92e7-3f7f9c6305af","0199dbe2-9616-7ebf-8a27-71b11f788553","","null","<div style=""display: flex; justify-content: center; align-items: center;"">
                     <img src=""images/causal/causal_series_8/causal_series_8_c.png"" style=""width: 300px; height: 300px;"" />
                   </div>","null","8","1","C","",""
"","","","","","html-button-response","72","338101","0.0-72.0","E0E9BF22F9994B97A8824499EB82985F","0199dc0a-7c15-78bb-92e7-3f7f9c6305af","0199dbe2-9616-7ebf-8a27-71b11f788553","","781","
        <div style=""display: flex; justify-content: center; align-items: center;"">
          <img src=""images/red_deck_2.png"" style=""width: 300px; height: 300px; margin-right: 10px;"" />
          <img src=""images/blue_deck_1.png"" style=""width: 300px; height: 300px;"" />
        </div>","0","8","1","choice","0",""
"","","","","","html-keyboard-response","73","344109","0.0-73.0-0.0-0.0","E0E9BF22F9994B97A8824499EB82985F","0199dc0a-7c15-78bb-92e7-3f7f9c6305af","0199dbe2-9616-7ebf-8a27-71b11f788553","","null","<div style=""display: flex; justify-content: center; align-items: center;"">
                     <img src=""images/causal/causal_series_8/causal_series_8_d.png"" style=""width: 300px; height: 300px;"" />
                   </div>","null","8","1","D","",""
"","","","","","survey-likert","74","348407","0.0-74.0","E0E9BF22F9994B97A8824499EB82985F","0199dc0a-7c15-78bb-92e7-3f7f9c6305af","0199dbe2-9616-7ebf-8a27-71b11f788553","","4297","","{""Q0"":3}","8","1","surprise_rating","","[0]"
"","","","","","survey-likert","75","350005","0.0-75.0","E0E9BF22F9994B97A8824499EB82985F","0199dc0a-7c15-78bb-92e7-3f7f9c6305af","0199dbe2-9616-7ebf-8a27-71b11f788553","","1597","","{""Q0"":1}","8","1","enjoyment_rating","","[0]"
"","","","","","html-keyboard-response","76","356011","0.0-76.0","E0E9BF22F9994B97A8824499EB82985F","0199dc0a-7c15-78bb-92e7-3f7f9c6305af","0199dbe2-9616-7ebf-8a27-71b11f788553","","null","<div style=""display: flex; justify-content: center; align-items: center;"">
                     <img src=""images/other/blank.png"" style=""width: 300px; height: 300px;"" />
                   </div>","null","0","0","blank","",""
"","","","","","html-keyboard-response","77","362013","0.0-77.0","E0E9BF22F9994B97A8824499EB82985F","0199dc0a-7c15-78bb-92e7-3f7f9c6305af","0199dbe2-9616-7ebf-8a27-71b11f788553","","null","<div style=""display: flex; justify-content: center; align-items: center;"">
                     <img src=""images/causal/causal_series_3/causal_series_3_a.png"" style=""width: 300px; height: 300px;"" />
                   </div>","null","3","1","A","",""
"","","","","","html-keyboard-response","78","368017","0.0-78.0","E0E9BF22F9994B97A8824499EB82985F","0199dc0a-7c15-78bb-92e7-3f7f9c6305af","0199dbe2-9616-7ebf-8a27-71b11f788553","","null","<div style=""display: flex; justify-content: center; align-items: center;"">
                     <img src=""images/causal/causal_series_3/causal_series_3_b.png"" style=""width: 300px; height: 300px;"" />
                   </div>","null","3","1","B","",""
"","","","","","html-keyboard-response","79","374020","0.0-79.0","E0E9BF22F9994B97A8824499EB82985F","0199dc0a-7c15-78bb-92e7-3f7f9c6305af","0199dbe2-9616-7ebf-8a27-71b11f788553","","null","<div style=""display: flex; justify-content: center; align-items: center;"">
                     <img src=""images/causal/causal_series_3/causal_series_3_c.png"" style=""width: 300px; height: 300px;"" />
                   </div>","null","3","1","C","",""
"","","","","","html-button-response","80","374827","0.0-80.0","E0E9BF22F9994B97A8824499EB82985F","0199dc0a-7c15-78bb-92e7-3f7f9c6305af","0199dbe2-9616-7ebf-8a27-71b11f788553","","805","
        <div style=""display: flex; justify-content: center; align-items: center;"">
          <img src=""images/red_deck_2.png"" style=""width: 300px; height: 300px; margin-right: 10px;"" />
          <img src=""images/blue_deck_1.png"" style=""width: 300px; height: 300px;"" />
        </div>","0","3","1","choice","0",""
"","","","","","html-keyboard-response","81","380836","0.0-81.0-0.0-0.0","E0E9BF22F9994B97A8824499EB82985F","0199dc0a-7c15-78bb-92e7-3f7f9c6305af","0199dbe2-9616-7ebf-8a27-71b11f788553","","null","<div style=""display: flex; justify-content: center; align-items: center;"">
                     <img src=""images/causal/causal_series_3/causal_series_3_d.png"" style=""width: 300px; height: 300px;"" />
                   </div>","null","3","1","D","",""
"","","","","","survey-likert","82","382426","0.0-82.0","E0E9BF22F9994B97A8824499EB82985F","0199dc0a-7c15-78bb-92e7-3f7f9c6305af","0199dbe2-9616-7ebf-8a27-71b11f788553","","1589","","{""Q0"":3}","3","1","surprise_rating","","[0]"
"","","","","","survey-likert","83","383493","0.0-83.0","E0E9BF22F9994B97A8824499EB82985F","0199dc0a-7c15-78bb-92e7-3f7f9c6305af","0199dbe2-9616-7ebf-8a27-71b11f788553","","1065","","{""Q0"":3}","3","1","enjoyment_rating","","[0]"
"","","","","","html-keyboard-response","84","389503","0.0-84.0","E0E9BF22F9994B97A8824499EB82985F","0199dc0a-7c15-78bb-92e7-3f7f9c6305af","0199dbe2-9616-7ebf-8a27-71b11f788553","","null","<div style=""display: flex; justify-content: center; align-items: center;"">
                     <img src=""images/other/blank.png"" style=""width: 300px; height: 300px;"" />
                   </div>","null","0","0","blank","",""
"","","","","","survey-text","85","425538","0.0-85.0","E0E9BF22F9994B97A8824499EB82985F","0199dc0a-7c15-78bb-92e7-3f7f9c6305af","0199dbe2-9616-7ebf-8a27-71b11f788553","","36031","","{""Q0"":""the left deck are things that are related to the story, but are unlikely to occur, while the right deck is more non-sequiturs""}","","","","",""
"","","","","","html-button-response","86","428327","0.0-86.0","E0E9BF22F9994B97A8824499EB82985F","0199dc0a-7c15-78bb-92e7-3f7f9c6305af","0199dbe2-9616-7ebf-8a27-71b11f788553","","2788","Which color deck do the following sentences continue the story from?","0","","","","",""
"","","","","","html-button-response","87","429865","0.0-87.0","E0E9BF22F9994B97A8824499EB82985F","0199dc0a-7c15-78bb-92e7-3f7f9c6305af","0199dbe2-9616-7ebf-8a27-71b11f788553","","1537","Which color deck do the following sentences NOT follow the story from?","1","","","","",""
"","","","","","html-button-response","88","437891","0.0-88.0","E0E9BF22F9994B97A8824499EB82985F","0199dc0a-7c15-78bb-92e7-3f7f9c6305af","0199dbe2-9616-7ebf-8a27-71b11f788553","","8024","Which type of deck did you prefer overall?","0","","","","",""
"","","","","","survey-text","89","442797","0.0-89.0","E0E9BF22F9994B97A8824499EB82985F","0199dc0a-7c15-78bb-92e7-3f7f9c6305af","0199dbe2-9616-7ebf-8a27-71b11f788553","","4903","","{""Q0"":""male"",""Q1"":""24""}","","","","",""
"","","","","","instructions","90","445932","0.0-90.0","E0E9BF22F9994B97A8824499EB82985F","0199dc0a-7c15-78bb-92e7-3f7f9c6305af","0199dbe2-9616-7ebf-8a27-71b11f788553","[{""page_index"":0,""viewing_time"":3134}]","3134","","","","","","",""
