"success","timeout","failed_images","failed_audio","failed_video","trial_type","trial_index","time_elapsed","internal_node_id","subject_id","study_id","session_id","view_history","rt","stimulus","response","choice"
"true","false","[]","[]","[]","preload","0","2456","0.0-0.0","DB500201701B429AA08CAE64378B09D9","baffe828-dfe5-43c7-83bf-d5fb2df1b0b0","61e1ec61-13c7-4a8f-bf47-a91ec9909364","","","","",""
"","","","","","instructions","1","16792","0.0-1.0","DB500201701B429AA08CAE64378B09D9","baffe828-dfe5-43c7-83bf-d5fb2df1b0b0","61e1ec61-13c7-4a8f-bf47-a91ec9909364","[{""page_index"":0,""viewing_time"":14336}]","14336","","",""
"","","","","","instructions","2","27267","0.0-2.0","DB500201701B429AA08CAE64378B09D9","baffe828-dfe5-43c7-83bf-d5fb2df1b0b0","61e1ec61-13c7-4a8f-bf47-a91ec9909364","[{""page_index"":0,""viewing_time"":10474}]","10474","","",""
"true","","","","","fullscreen","3","31106","0.0-3.0","DB500201701B429AA08CAE64378B09D9","baffe828-dfe5-43c7-83bf-d5fb2df1b0b0","61e1ec61-13c7-4a8f-bf47-a91ec9909364","","2835","","",""
"","","","","","instructions","4","52301","0.0-4.0","DB500201701B429AA08CAE64378B09D9","baffe828-dfe5-43c7-83bf-d5fb2df1b0b0","61e1ec61-13c7-4a8f-bf47-a91ec9909364","[{""page_index"":0,""viewing_time"":21194}]","21194","","",""
"","","","","","html-keyboard-response","5","55316","0.0-5.0","DB500201701B429AA08CAE64378B09D9","baffe828-dfe5-43c7-83bf-d5fb2df1b0b0","61e1ec61-13c7-4a8f-bf47-a91ec9909364","","null","<div style=""display: flex; justify-content: center; align-items: center;"">
                <img src=""images/causal/causal_series_8/causal_series_8_a.jpg"" style=""width: 300px; height: 300px;"" />
              </div>","null",""
"","","","","","html-keyboard-response","6","58319","0.0-6.0","DB500201701B429AA08CAE64378B09D9","baffe828-dfe5-43c7-83bf-d5fb2df1b0b0","61e1ec61-13c7-4a8f-bf47-a91ec9909364","","null","<div style=""display: flex; justify-content: center; align-items: center;"">
                <img src=""images/causal/causal_series_8/causal_series_8_b.jpg"" style=""width: 300px; height: 300px;"" />
              </div>","null",""
"","","","","","html-keyboard-response","7","61326","0.0-7.0","DB500201701B429AA08CAE64378B09D9","baffe828-dfe5-43c7-83bf-d5fb2df1b0b0","61e1ec61-13c7-4a8f-bf47-a91ec9909364","","null","<div style=""display: flex; justify-content: center; align-items: center;"">
                <img src=""images/causal/causal_series_8/causal_series_8_c.jpg"" style=""width: 300px; height: 300px;"" />
              </div>","null",""
"","","","","","html-button-response","8","63508","0.0-8.0","DB500201701B429AA08CAE64378B09D9","baffe828-dfe5-43c7-83bf-d5fb2df1b0b0","61e1ec61-13c7-4a8f-bf47-a91ec9909364","","2181","
    <div style=""display: flex; justify-content: center; align-items: center;"">
      <img src=""images/red_deck_2.png"" style=""width: 300px; height: 300px; margin-right: 10px;"" />
      <img src=""images/blue_deck_1.png"" style=""width: 300px; height: 300px;"" />
    </div>","1","1"
"","","","","","html-keyboard-response","9","66513","0.0-9.0-1.0-0.0","DB500201701B429AA08CAE64378B09D9","baffe828-dfe5-43c7-83bf-d5fb2df1b0b0","61e1ec61-13c7-4a8f-bf47-a91ec9909364","","null","<div style=""display: flex; justify-content: center; align-items: center;"">
                <img src=""images/semantic/semantic_series_7/semantic_series_7_d.jpg"" style=""width: 300px; height: 300px;"" />
              </div>","null",""
"","","","","","html-keyboard-response","10","69518","0.0-10.0","DB500201701B429AA08CAE64378B09D9","baffe828-dfe5-43c7-83bf-d5fb2df1b0b0","61e1ec61-13c7-4a8f-bf47-a91ec9909364","","null","<div style=""display: flex; justify-content: center; align-items: center;"">
                <img src=""images/other/blank.jpg"" style=""width: 300px; height: 300px;"" />
              </div>","null",""
"","","","","","html-keyboard-response","11","72528","0.0-11.0","DB500201701B429AA08CAE64378B09D9","baffe828-dfe5-43c7-83bf-d5fb2df1b0b0","61e1ec61-13c7-4a8f-bf47-a91ec9909364","","null","<div style=""display: flex; justify-content: center; align-items: center;"">
                <img src=""images/causal/causal_series_11/causal_series_11_a.jpg"" style=""width: 300px; height: 300px;"" />
              </div>","null",""
"","","","","","html-keyboard-response","12","75542","0.0-12.0","DB500201701B429AA08CAE64378B09D9","baffe828-dfe5-43c7-83bf-d5fb2df1b0b0","61e1ec61-13c7-4a8f-bf47-a91ec9909364","","null","<div style=""display: flex; justify-content: center; align-items: center;"">
                <img src=""images/causal/causal_series_11/causal_series_11_b.jpg"" style=""width: 300px; height: 300px;"" />
              </div>","null",""
"","","","","","html-keyboard-response","13","78551","0.0-13.0","DB500201701B429AA08CAE64378B09D9","baffe828-dfe5-43c7-83bf-d5fb2df1b0b0","61e1ec61-13c7-4a8f-bf47-a91ec9909364","","null","<div style=""display: flex; justify-content: center; align-items: center;"">
                <img src=""images/causal/causal_series_11/causal_series_11_c.jpg"" style=""width: 300px; height: 300px;"" />
              </div>","null",""
"","","","","","html-button-response","14","79957","0.0-14.0","DB500201701B429AA08CAE64378B09D9","baffe828-dfe5-43c7-83bf-d5fb2df1b0b0","61e1ec61-13c7-4a8f-bf47-a91ec9909364","","1405","
    <div style=""display: flex; justify-content: center; align-items: center;"">
      <img src=""images/red_deck_2.png"" style=""width: 300px; height: 300px; margin-right: 10px;"" />
      <img src=""images/blue_deck_1.png"" style=""width: 300px; height: 300px;"" />
    </div>","0","0"
"","","","","","html-keyboard-response","15","82975","0.0-15.0-0.0-0.0","DB500201701B429AA08CAE64378B09D9","baffe828-dfe5-43c7-83bf-d5fb2df1b0b0","61e1ec61-13c7-4a8f-bf47-a91ec9909364","","null","<div style=""display: flex; justify-content: center; align-items: center;"">
                <img src=""images/causal/causal_series_11/causal_series_11_d.jpg"" style=""width: 300px; height: 300px;"" />
              </div>","null",""
"","","","","","html-keyboard-response","16","85986","0.0-16.0","DB500201701B429AA08CAE64378B09D9","baffe828-dfe5-43c7-83bf-d5fb2df1b0b0","61e1ec61-13c7-4a8f-bf47-a91ec9909364","","null","<div style=""display: flex; justify-content: center; align-items: center;"">
                <img src=""images/other/blank.jpg"" style=""width: 300px; height: 300px;"" />
              </div>","null",""
"","","","","","html-keyboard-response","17","88994","0.0-17.0","DB500201701B429AA08CAE64378B09D9","baffe828-dfe5-43c7-83bf-d5fb2df1b0b0","61e1ec61-13c7-4a8f-bf47-a91ec9909364","","null","<div style=""display: flex; justify-content: center; align-items: center;"">
                <img src=""images/causal/causal_series_14/causal_series_14_a.jpg"" style=""width: 300px; height: 300px;"" />
              </div>","null",""
"","","","","","html-keyboard-response","18","91996","0.0-18.0","DB500201701B429AA08CAE64378B09D9","baffe828-dfe5-43c7-83bf-d5fb2df1b0b0","61e1ec61-13c7-4a8f-bf47-a91ec9909364","","null","<div style=""display: flex; justify-content: center; align-items: center;"">
                <img src=""images/causal/causal_series_14/causal_series_14_b.jpg"" style=""width: 300px; height: 300px;"" />
              </div>","null",""
"","","","","","html-keyboard-response","19","94998","0.0-19.0","DB500201701B429AA08CAE64378B09D9","baffe828-dfe5-43c7-83bf-d5fb2df1b0b0","61e1ec61-13c7-4a8f-bf47-a91ec9909364","","null","<div style=""display: flex; justify-content: center; align-items: center;"">
                <img src=""images/causal/causal_series_14/causal_series_14_c.jpg"" style=""width: 300px; height: 300px;"" />
              </div>","null",""
"","","","","","html-button-response","20","95764","0.0-20.0","DB500201701B429AA08CAE64378B09D9","baffe828-dfe5-43c7-83bf-d5fb2df1b0b0","61e1ec61-13c7-4a8f-bf47-a91ec9909364","","765","
    <div style=""display: flex; justify-content: center; align-items: center;"">
      <img src=""images/red_deck_2.png"" style=""width: 300px; height: 300px; margin-right: 10px;"" />
      <img src=""images/blue_deck_1.png"" style=""width: 300px; height: 300px;"" />
    </div>","0","0"
"","","","","","html-keyboard-response","21","98767","0.0-21.0-0.0-0.0","DB500201701B429AA08CAE64378B09D9","baffe828-dfe5-43c7-83bf-d5fb2df1b0b0","61e1ec61-13c7-4a8f-bf47-a91ec9909364","","null","<div style=""display: flex; justify-content: center; align-items: center;"">
                <img src=""images/causal/causal_series_14/causal_series_14_d.jpg"" style=""width: 300px; height: 300px;"" />
              </div>","null",""
"","","","","","html-keyboard-response","22","101782","0.0-22.0","DB500201701B429AA08CAE64378B09D9","baffe828-dfe5-43c7-83bf-d5fb2df1b0b0","61e1ec61-13c7-4a8f-bf47-a91ec9909364","","null","<div style=""display: flex; justify-content: center; align-items: center;"">
                <img src=""images/other/blank.jpg"" style=""width: 300px; height: 300px;"" />
              </div>","null",""
"","","","","","html-keyboard-response","23","104784","0.0-23.0","DB500201701B429AA08CAE64378B09D9","baffe828-dfe5-43c7-83bf-d5fb2df1b0b0","61e1ec61-13c7-4a8f-bf47-a91ec9909364","","null","<div style=""display: flex; justify-content: center; align-items: center;"">
                <img src=""images/causal/causal_series_4/causal_series_4_a.jpg"" style=""width: 300px; height: 300px;"" />
              </div>","null",""
"","","","","","html-keyboard-response","24","107791","0.0-24.0","DB500201701B429AA08CAE64378B09D9","baffe828-dfe5-43c7-83bf-d5fb2df1b0b0","61e1ec61-13c7-4a8f-bf47-a91ec9909364","","null","<div style=""display: flex; justify-content: center; align-items: center;"">
                <img src=""images/causal/causal_series_4/causal_series_4_b.jpg"" style=""width: 300px; height: 300px;"" />
              </div>","null",""
"","","","","","html-keyboard-response","25","110804","0.0-25.0","DB500201701B429AA08CAE64378B09D9","baffe828-dfe5-43c7-83bf-d5fb2df1b0b0","61e1ec61-13c7-4a8f-bf47-a91ec9909364","","null","<div style=""display: flex; justify-content: center; align-items: center;"">
                <img src=""images/causal/causal_series_4/causal_series_4_c.jpg"" style=""width: 300px; height: 300px;"" />
              </div>","null",""
"","","","","","html-button-response","26","112325","0.0-26.0","DB500201701B429AA08CAE64378B09D9","baffe828-dfe5-43c7-83bf-d5fb2df1b0b0","61e1ec61-13c7-4a8f-bf47-a91ec9909364","","1519","
    <div style=""display: flex; justify-content: center; align-items: center;"">
      <img src=""images/red_deck_2.png"" style=""width: 300px; height: 300px; margin-right: 10px;"" />
      <img src=""images/blue_deck_1.png"" style=""width: 300px; height: 300px;"" />
    </div>","0","0"
"","","","","","html-keyboard-response","27","115341","0.0-27.0-0.0-0.0","DB500201701B429AA08CAE64378B09D9","baffe828-dfe5-43c7-83bf-d5fb2df1b0b0","61e1ec61-13c7-4a8f-bf47-a91ec9909364","","null","<div style=""display: flex; justify-content: center; align-items: center;"">
                <img src=""images/causal/causal_series_4/causal_series_4_d.jpg"" style=""width: 300px; height: 300px;"" />
              </div>","null",""
"","","","","","html-keyboard-response","28","118356","0.0-28.0","DB500201701B429AA08CAE64378B09D9","baffe828-dfe5-43c7-83bf-d5fb2df1b0b0","61e1ec61-13c7-4a8f-bf47-a91ec9909364","","null","<div style=""display: flex; justify-content: center; align-items: center;"">
                <img src=""images/other/blank.jpg"" style=""width: 300px; height: 300px;"" />
              </div>","null",""
"","","","","","html-keyboard-response","29","121360","0.0-29.0","DB500201701B429AA08CAE64378B09D9","baffe828-dfe5-43c7-83bf-d5fb2df1b0b0","61e1ec61-13c7-4a8f-bf47-a91ec9909364","","null","<div style=""display: flex; justify-content: center; align-items: center;"">
                <img src=""images/causal/causal_series_9/causal_series_9_a.jpg"" style=""width: 300px; height: 300px;"" />
              </div>","null",""
"","","","","","html-keyboard-response","30","124373","0.0-30.0","DB500201701B429AA08CAE64378B09D9","baffe828-dfe5-43c7-83bf-d5fb2df1b0b0","61e1ec61-13c7-4a8f-bf47-a91ec9909364","","null","<div style=""display: flex; justify-content: center; align-items: center;"">
                <img src=""images/causal/causal_series_9/causal_series_9_b.jpg"" style=""width: 300px; height: 300px;"" />
              </div>","null",""
"","","","","","html-keyboard-response","31","127377","0.0-31.0","DB500201701B429AA08CAE64378B09D9","baffe828-dfe5-43c7-83bf-d5fb2df1b0b0","61e1ec61-13c7-4a8f-bf47-a91ec9909364","","null","<div style=""display: flex; justify-content: center; align-items: center;"">
                <img src=""images/causal/causal_series_9/causal_series_9_c.jpg"" style=""width: 300px; height: 300px;"" />
              </div>","null",""
"","","","","","html-button-response","32","128240","0.0-32.0","DB500201701B429AA08CAE64378B09D9","baffe828-dfe5-43c7-83bf-d5fb2df1b0b0","61e1ec61-13c7-4a8f-bf47-a91ec9909364","","861","
    <div style=""display: flex; justify-content: center; align-items: center;"">
      <img src=""images/red_deck_2.png"" style=""width: 300px; height: 300px; margin-right: 10px;"" />
      <img src=""images/blue_deck_1.png"" style=""width: 300px; height: 300px;"" />
    </div>","1","1"
"","","","","","html-keyboard-response","33","131249","0.0-33.0-1.0-0.0","DB500201701B429AA08CAE64378B09D9","baffe828-dfe5-43c7-83bf-d5fb2df1b0b0","61e1ec61-13c7-4a8f-bf47-a91ec9909364","","null","<div style=""display: flex; justify-content: center; align-items: center;"">
                <img src=""images/semantic/semantic_series_8/semantic_series_8_d.jpg"" style=""width: 300px; height: 300px;"" />
              </div>","null",""
"","","","","","html-keyboard-response","34","134258","0.0-34.0","DB500201701B429AA08CAE64378B09D9","baffe828-dfe5-43c7-83bf-d5fb2df1b0b0","61e1ec61-13c7-4a8f-bf47-a91ec9909364","","null","<div style=""display: flex; justify-content: center; align-items: center;"">
                <img src=""images/other/blank.jpg"" style=""width: 300px; height: 300px;"" />
              </div>","null",""
"","","","","","html-keyboard-response","35","137276","0.0-35.0","DB500201701B429AA08CAE64378B09D9","baffe828-dfe5-43c7-83bf-d5fb2df1b0b0","61e1ec61-13c7-4a8f-bf47-a91ec9909364","","null","<div style=""display: flex; justify-content: center; align-items: center;"">
                <img src=""images/causal/causal_series_17/causal_series_17_a.jpg"" style=""width: 300px; height: 300px;"" />
              </div>","null",""
"","","","","","html-keyboard-response","36","140289","0.0-36.0","DB500201701B429AA08CAE64378B09D9","baffe828-dfe5-43c7-83bf-d5fb2df1b0b0","61e1ec61-13c7-4a8f-bf47-a91ec9909364","","null","<div style=""display: flex; justify-content: center; align-items: center;"">
                <img src=""images/causal/causal_series_17/causal_series_17_b.jpg"" style=""width: 300px; height: 300px;"" />
              </div>","null",""
"","","","","","html-keyboard-response","37","143303","0.0-37.0","DB500201701B429AA08CAE64378B09D9","baffe828-dfe5-43c7-83bf-d5fb2df1b0b0","61e1ec61-13c7-4a8f-bf47-a91ec9909364","","null","<div style=""display: flex; justify-content: center; align-items: center;"">
                <img src=""images/causal/causal_series_17/causal_series_17_c.jpg"" style=""width: 300px; height: 300px;"" />
              </div>","null",""
"","","","","","html-button-response","38","144378","0.0-38.0","DB500201701B429AA08CAE64378B09D9","baffe828-dfe5-43c7-83bf-d5fb2df1b0b0","61e1ec61-13c7-4a8f-bf47-a91ec9909364","","1074","
    <div style=""display: flex; justify-content: center; align-items: center;"">
      <img src=""images/red_deck_2.png"" style=""width: 300px; height: 300px; margin-right: 10px;"" />
      <img src=""images/blue_deck_1.png"" style=""width: 300px; height: 300px;"" />
    </div>","0","0"
"","","","","","html-keyboard-response","39","147389","0.0-39.0-0.0-0.0","DB500201701B429AA08CAE64378B09D9","baffe828-dfe5-43c7-83bf-d5fb2df1b0b0","61e1ec61-13c7-4a8f-bf47-a91ec9909364","","null","<div style=""display: flex; justify-content: center; align-items: center;"">
                <img src=""images/causal/causal_series_17/causal_series_17_d.jpg"" style=""width: 300px; height: 300px;"" />
              </div>","null",""
"","","","","","html-keyboard-response","40","150406","0.0-40.0","DB500201701B429AA08CAE64378B09D9","baffe828-dfe5-43c7-83bf-d5fb2df1b0b0","61e1ec61-13c7-4a8f-bf47-a91ec9909364","","null","<div style=""display: flex; justify-content: center; align-items: center;"">
                <img src=""images/other/blank.jpg"" style=""width: 300px; height: 300px;"" />
              </div>","null",""
"","","","","","html-keyboard-response","41","153408","0.0-41.0","DB500201701B429AA08CAE64378B09D9","baffe828-dfe5-43c7-83bf-d5fb2df1b0b0","61e1ec61-13c7-4a8f-bf47-a91ec9909364","","null","<div style=""display: flex; justify-content: center; align-items: center;"">
                <img src=""images/causal/causal_series_13/causal_series_13_a.jpg"" style=""width: 300px; height: 300px;"" />
              </div>","null",""
"","","","","","html-keyboard-response","42","156416","0.0-42.0","DB500201701B429AA08CAE64378B09D9","baffe828-dfe5-43c7-83bf-d5fb2df1b0b0","61e1ec61-13c7-4a8f-bf47-a91ec9909364","","null","<div style=""display: flex; justify-content: center; align-items: center;"">
                <img src=""images/causal/causal_series_13/causal_series_13_b.jpg"" style=""width: 300px; height: 300px;"" />
              </div>","null",""
"","","","","","html-keyboard-response","43","159428","0.0-43.0","DB500201701B429AA08CAE64378B09D9","baffe828-dfe5-43c7-83bf-d5fb2df1b0b0","61e1ec61-13c7-4a8f-bf47-a91ec9909364","","null","<div style=""display: flex; justify-content: center; align-items: center;"">
                <img src=""images/causal/causal_series_13/causal_series_13_c.jpg"" style=""width: 300px; height: 300px;"" />
              </div>","null",""
"","","","","","html-button-response","44","160517","0.0-44.0","DB500201701B429AA08CAE64378B09D9","baffe828-dfe5-43c7-83bf-d5fb2df1b0b0","61e1ec61-13c7-4a8f-bf47-a91ec9909364","","1087","
    <div style=""display: flex; justify-content: center; align-items: center;"">
      <img src=""images/red_deck_2.png"" style=""width: 300px; height: 300px; margin-right: 10px;"" />
      <img src=""images/blue_deck_1.png"" style=""width: 300px; height: 300px;"" />
    </div>","1","1"
"","","","","","html-keyboard-response","45","163528","0.0-45.0-1.0-0.0","DB500201701B429AA08CAE64378B09D9","baffe828-dfe5-43c7-83bf-d5fb2df1b0b0","61e1ec61-13c7-4a8f-bf47-a91ec9909364","","null","<div style=""display: flex; justify-content: center; align-items: center;"">
                <img src=""images/semantic/semantic_series_12/semantic_series_12_d.jpg"" style=""width: 300px; height: 300px;"" />
              </div>","null",""
"","","","","","html-keyboard-response","46","166543","0.0-46.0","DB500201701B429AA08CAE64378B09D9","baffe828-dfe5-43c7-83bf-d5fb2df1b0b0","61e1ec61-13c7-4a8f-bf47-a91ec9909364","","null","<div style=""display: flex; justify-content: center; align-items: center;"">
                <img src=""images/other/blank.jpg"" style=""width: 300px; height: 300px;"" />
              </div>","null",""
"","","","","","html-keyboard-response","47","169545","0.0-47.0","DB500201701B429AA08CAE64378B09D9","baffe828-dfe5-43c7-83bf-d5fb2df1b0b0","61e1ec61-13c7-4a8f-bf47-a91ec9909364","","null","<div style=""display: flex; justify-content: center; align-items: center;"">
                <img src=""images/causal/causal_series_2/causal_series_2_a.jpg"" style=""width: 300px; height: 300px;"" />
              </div>","null",""
"","","","","","html-keyboard-response","48","172549","0.0-48.0","DB500201701B429AA08CAE64378B09D9","baffe828-dfe5-43c7-83bf-d5fb2df1b0b0","61e1ec61-13c7-4a8f-bf47-a91ec9909364","","null","<div style=""display: flex; justify-content: center; align-items: center;"">
                <img src=""images/causal/causal_series_2/causal_series_2_b.jpg"" style=""width: 300px; height: 300px;"" />
              </div>","null",""
"","","","","","html-keyboard-response","49","175555","0.0-49.0","DB500201701B429AA08CAE64378B09D9","baffe828-dfe5-43c7-83bf-d5fb2df1b0b0","61e1ec61-13c7-4a8f-bf47-a91ec9909364","","null","<div style=""display: flex; justify-content: center; align-items: center;"">
                <img src=""images/causal/causal_series_2/causal_series_2_c.jpg"" style=""width: 300px; height: 300px;"" />
              </div>","null",""
"","","","","","html-button-response","50","176058","0.0-50.0","DB500201701B429AA08CAE64378B09D9","baffe828-dfe5-43c7-83bf-d5fb2df1b0b0","61e1ec61-13c7-4a8f-bf47-a91ec9909364","","501","
    <div style=""display: flex; justify-content: center; align-items: center;"">
      <img src=""images/red_deck_2.png"" style=""width: 300px; height: 300px; margin-right: 10px;"" />
      <img src=""images/blue_deck_1.png"" style=""width: 300px; height: 300px;"" />
    </div>","0","0"
"","","","","","html-keyboard-response","51","179064","0.0-51.0-0.0-0.0","DB500201701B429AA08CAE64378B09D9","baffe828-dfe5-43c7-83bf-d5fb2df1b0b0","61e1ec61-13c7-4a8f-bf47-a91ec9909364","","null","<div style=""display: flex; justify-content: center; align-items: center;"">
                <img src=""images/causal/causal_series_2/causal_series_2_d.jpg"" style=""width: 300px; height: 300px;"" />
              </div>","null",""
"","","","","","html-keyboard-response","52","182072","0.0-52.0","DB500201701B429AA08CAE64378B09D9","baffe828-dfe5-43c7-83bf-d5fb2df1b0b0","61e1ec61-13c7-4a8f-bf47-a91ec9909364","","null","<div style=""display: flex; justify-content: center; align-items: center;"">
                <img src=""images/other/blank.jpg"" style=""width: 300px; height: 300px;"" />
              </div>","null",""
"","","","","","html-keyboard-response","53","185074","0.0-53.0","DB500201701B429AA08CAE64378B09D9","baffe828-dfe5-43c7-83bf-d5fb2df1b0b0","61e1ec61-13c7-4a8f-bf47-a91ec9909364","","null","<div style=""display: flex; justify-content: center; align-items: center;"">
                <img src=""images/causal/causal_series_16/causal_series_16_a.jpg"" style=""width: 300px; height: 300px;"" />
              </div>","null",""
"","","","","","html-keyboard-response","54","188076","0.0-54.0","DB500201701B429AA08CAE64378B09D9","baffe828-dfe5-43c7-83bf-d5fb2df1b0b0","61e1ec61-13c7-4a8f-bf47-a91ec9909364","","null","<div style=""display: flex; justify-content: center; align-items: center;"">
                <img src=""images/causal/causal_series_16/causal_series_16_b.jpg"" style=""width: 300px; height: 300px;"" />
              </div>","null",""
"","","","","","html-keyboard-response","55","191078","0.0-55.0","DB500201701B429AA08CAE64378B09D9","baffe828-dfe5-43c7-83bf-d5fb2df1b0b0","61e1ec61-13c7-4a8f-bf47-a91ec9909364","","null","<div style=""display: flex; justify-content: center; align-items: center;"">
                <img src=""images/causal/causal_series_16/causal_series_16_c.jpg"" style=""width: 300px; height: 300px;"" />
              </div>","null",""
"","","","","","html-button-response","56","191622","0.0-56.0","DB500201701B429AA08CAE64378B09D9","baffe828-dfe5-43c7-83bf-d5fb2df1b0b0","61e1ec61-13c7-4a8f-bf47-a91ec9909364","","543","
    <div style=""display: flex; justify-content: center; align-items: center;"">
      <img src=""images/red_deck_2.png"" style=""width: 300px; height: 300px; margin-right: 10px;"" />
      <img src=""images/blue_deck_1.png"" style=""width: 300px; height: 300px;"" />
    </div>","0","0"
"","","","","","html-keyboard-response","57","194628","0.0-57.0-0.0-0.0","DB500201701B429AA08CAE64378B09D9","baffe828-dfe5-43c7-83bf-d5fb2df1b0b0","61e1ec61-13c7-4a8f-bf47-a91ec9909364","","null","<div style=""display: flex; justify-content: center; align-items: center;"">
                <img src=""images/causal/causal_series_16/causal_series_16_d.jpg"" style=""width: 300px; height: 300px;"" />
              </div>","null",""
"","","","","","html-keyboard-response","58","197633","0.0-58.0","DB500201701B429AA08CAE64378B09D9","baffe828-dfe5-43c7-83bf-d5fb2df1b0b0","61e1ec61-13c7-4a8f-bf47-a91ec9909364","","null","<div style=""display: flex; justify-content: center; align-items: center;"">
                <img src=""images/other/blank.jpg"" style=""width: 300px; height: 300px;"" />
              </div>","null",""
"","","","","","html-keyboard-response","59","200635","0.0-59.0","DB500201701B429AA08CAE64378B09D9","baffe828-dfe5-43c7-83bf-d5fb2df1b0b0","61e1ec61-13c7-4a8f-bf47-a91ec9909364","","null","<div style=""display: flex; justify-content: center; align-items: center;"">
                <img src=""images/causal/causal_series_15/causal_series_15_a.jpg"" style=""width: 300px; height: 300px;"" />
              </div>","null",""
"","","","","","html-keyboard-response","60","203638","0.0-60.0","DB500201701B429AA08CAE64378B09D9","baffe828-dfe5-43c7-83bf-d5fb2df1b0b0","61e1ec61-13c7-4a8f-bf47-a91ec9909364","","null","<div style=""display: flex; justify-content: center; align-items: center;"">
                <img src=""images/causal/causal_series_15/causal_series_15_b.jpg"" style=""width: 300px; height: 300px;"" />
              </div>","null",""
"","","","","","html-keyboard-response","61","206648","0.0-61.0","DB500201701B429AA08CAE64378B09D9","baffe828-dfe5-43c7-83bf-d5fb2df1b0b0","61e1ec61-13c7-4a8f-bf47-a91ec9909364","","null","<div style=""display: flex; justify-content: center; align-items: center;"">
                <img src=""images/causal/causal_series_15/causal_series_15_c.jpg"" style=""width: 300px; height: 300px;"" />
              </div>","null",""
"","","","","","html-button-response","62","207552","0.0-62.0","DB500201701B429AA08CAE64378B09D9","baffe828-dfe5-43c7-83bf-d5fb2df1b0b0","61e1ec61-13c7-4a8f-bf47-a91ec9909364","","902","
    <div style=""display: flex; justify-content: center; align-items: center;"">
      <img src=""images/red_deck_2.png"" style=""width: 300px; height: 300px; margin-right: 10px;"" />
      <img src=""images/blue_deck_1.png"" style=""width: 300px; height: 300px;"" />
    </div>","1","1"
"","","","","","html-keyboard-response","63","210554","0.0-63.0-1.0-0.0","DB500201701B429AA08CAE64378B09D9","baffe828-dfe5-43c7-83bf-d5fb2df1b0b0","61e1ec61-13c7-4a8f-bf47-a91ec9909364","","null","<div style=""display: flex; justify-content: center; align-items: center;"">
                <img src=""images/semantic/semantic_series_14/semantic_series_14_d.jpg"" style=""width: 300px; height: 300px;"" />
              </div>","null",""
"","","","","","html-keyboard-response","64","213561","0.0-64.0","DB500201701B429AA08CAE64378B09D9","baffe828-dfe5-43c7-83bf-d5fb2df1b0b0","61e1ec61-13c7-4a8f-bf47-a91ec9909364","","null","<div style=""display: flex; justify-content: center; align-items: center;"">
                <img src=""images/other/blank.jpg"" style=""width: 300px; height: 300px;"" />
              </div>","null",""
"","","","","","html-keyboard-response","65","216576","0.0-65.0","DB500201701B429AA08CAE64378B09D9","baffe828-dfe5-43c7-83bf-d5fb2df1b0b0","61e1ec61-13c7-4a8f-bf47-a91ec9909364","","null","<div style=""display: flex; justify-content: center; align-items: center;"">
                <img src=""images/causal/causal_series_7/causal_series_7_a.jpg"" style=""width: 300px; height: 300px;"" />
              </div>","null",""
"","","","","","html-keyboard-response","66","219587","0.0-66.0","DB500201701B429AA08CAE64378B09D9","baffe828-dfe5-43c7-83bf-d5fb2df1b0b0","61e1ec61-13c7-4a8f-bf47-a91ec9909364","","null","<div style=""display: flex; justify-content: center; align-items: center;"">
                <img src=""images/causal/causal_series_7/causal_series_7_b.jpg"" style=""width: 300px; height: 300px;"" />
              </div>","null",""
"","","","","","html-keyboard-response","67","222592","0.0-67.0","DB500201701B429AA08CAE64378B09D9","baffe828-dfe5-43c7-83bf-d5fb2df1b0b0","61e1ec61-13c7-4a8f-bf47-a91ec9909364","","null","<div style=""display: flex; justify-content: center; align-items: center;"">
                <img src=""images/causal/causal_series_7/causal_series_7_c.jpg"" style=""width: 300px; height: 300px;"" />
              </div>","null",""
"","","","","","html-button-response","68","223421","0.0-68.0","DB500201701B429AA08CAE64378B09D9","baffe828-dfe5-43c7-83bf-d5fb2df1b0b0","61e1ec61-13c7-4a8f-bf47-a91ec9909364","","827","
    <div style=""display: flex; justify-content: center; align-items: center;"">
      <img src=""images/red_deck_2.png"" style=""width: 300px; height: 300px; margin-right: 10px;"" />
      <img src=""images/blue_deck_1.png"" style=""width: 300px; height: 300px;"" />
    </div>","0","0"
"","","","","","html-keyboard-response","69","226424","0.0-69.0-0.0-0.0","DB500201701B429AA08CAE64378B09D9","baffe828-dfe5-43c7-83bf-d5fb2df1b0b0","61e1ec61-13c7-4a8f-bf47-a91ec9909364","","null","<div style=""display: flex; justify-content: center; align-items: center;"">
                <img src=""images/causal/causal_series_7/causal_series_7_d.jpg"" style=""width: 300px; height: 300px;"" />
              </div>","null",""
"","","","","","html-keyboard-response","70","229430","0.0-70.0","DB500201701B429AA08CAE64378B09D9","baffe828-dfe5-43c7-83bf-d5fb2df1b0b0","61e1ec61-13c7-4a8f-bf47-a91ec9909364","","null","<div style=""display: flex; justify-content: center; align-items: center;"">
                <img src=""images/other/blank.jpg"" style=""width: 300px; height: 300px;"" />
              </div>","null",""
"","","","","","html-keyboard-response","71","232447","0.0-71.0","DB500201701B429AA08CAE64378B09D9","baffe828-dfe5-43c7-83bf-d5fb2df1b0b0","61e1ec61-13c7-4a8f-bf47-a91ec9909364","","null","<div style=""display: flex; justify-content: center; align-items: center;"">
                <img src=""images/causal/causal_series_18/causal_series_18_a.jpg"" style=""width: 300px; height: 300px;"" />
              </div>","null",""
"","","","","","html-keyboard-response","72","235453","0.0-72.0","DB500201701B429AA08CAE64378B09D9","baffe828-dfe5-43c7-83bf-d5fb2df1b0b0","61e1ec61-13c7-4a8f-bf47-a91ec9909364","","null","<div style=""display: flex; justify-content: center; align-items: center;"">
                <img src=""images/causal/causal_series_18/causal_series_18_b.jpg"" style=""width: 300px; height: 300px;"" />
              </div>","null",""
"","","","","","html-keyboard-response","73","238463","0.0-73.0","DB500201701B429AA08CAE64378B09D9","baffe828-dfe5-43c7-83bf-d5fb2df1b0b0","61e1ec61-13c7-4a8f-bf47-a91ec9909364","","null","<div style=""display: flex; justify-content: center; align-items: center;"">
                <img src=""images/causal/causal_series_18/causal_series_18_c.jpg"" style=""width: 300px; height: 300px;"" />
              </div>","null",""
"","","","","","html-button-response","74","239788","0.0-74.0","DB500201701B429AA08CAE64378B09D9","baffe828-dfe5-43c7-83bf-d5fb2df1b0b0","61e1ec61-13c7-4a8f-bf47-a91ec9909364","","1324","
    <div style=""display: flex; justify-content: center; align-items: center;"">
      <img src=""images/red_deck_2.png"" style=""width: 300px; height: 300px; margin-right: 10px;"" />
      <img src=""images/blue_deck_1.png"" style=""width: 300px; height: 300px;"" />
    </div>","1","1"
"","","","","","html-keyboard-response","75","242804","0.0-75.0-1.0-0.0","DB500201701B429AA08CAE64378B09D9","baffe828-dfe5-43c7-83bf-d5fb2df1b0b0","61e1ec61-13c7-4a8f-bf47-a91ec9909364","","null","<div style=""display: flex; justify-content: center; align-items: center;"">
                <img src=""images/semantic/semantic_series_17/semantic_series_17_d.jpg"" style=""width: 300px; height: 300px;"" />
              </div>","null",""
"","","","","","html-keyboard-response","76","245815","0.0-76.0","DB500201701B429AA08CAE64378B09D9","baffe828-dfe5-43c7-83bf-d5fb2df1b0b0","61e1ec61-13c7-4a8f-bf47-a91ec9909364","","null","<div style=""display: flex; justify-content: center; align-items: center;"">
                <img src=""images/other/blank.jpg"" style=""width: 300px; height: 300px;"" />
              </div>","null",""
"","","","","","html-keyboard-response","77","248832","0.0-77.0","DB500201701B429AA08CAE64378B09D9","baffe828-dfe5-43c7-83bf-d5fb2df1b0b0","61e1ec61-13c7-4a8f-bf47-a91ec9909364","","null","<div style=""display: flex; justify-content: center; align-items: center;"">
                <img src=""images/causal/causal_series_12/causal_series_12_a.jpg"" style=""width: 300px; height: 300px;"" />
              </div>","null",""
"","","","","","html-keyboard-response","78","251842","0.0-78.0","DB500201701B429AA08CAE64378B09D9","baffe828-dfe5-43c7-83bf-d5fb2df1b0b0","61e1ec61-13c7-4a8f-bf47-a91ec9909364","","null","<div style=""display: flex; justify-content: center; align-items: center;"">
                <img src=""images/causal/causal_series_12/causal_series_12_b.jpg"" style=""width: 300px; height: 300px;"" />
              </div>","null",""
"","","","","","html-keyboard-response","79","254855","0.0-79.0","DB500201701B429AA08CAE64378B09D9","baffe828-dfe5-43c7-83bf-d5fb2df1b0b0","61e1ec61-13c7-4a8f-bf47-a91ec9909364","","null","<div style=""display: flex; justify-content: center; align-items: center;"">
                <img src=""images/causal/causal_series_12/causal_series_12_c.jpg"" style=""width: 300px; height: 300px;"" />
              </div>","null",""
"","","","","","html-button-response","80","256876","0.0-80.0","DB500201701B429AA08CAE64378B09D9","baffe828-dfe5-43c7-83bf-d5fb2df1b0b0","61e1ec61-13c7-4a8f-bf47-a91ec9909364","","2020","
    <div style=""display: flex; justify-content: center; align-items: center;"">
      <img src=""images/red_deck_2.png"" style=""width: 300px; height: 300px; margin-right: 10px;"" />
      <img src=""images/blue_deck_1.png"" style=""width: 300px; height: 300px;"" />
    </div>","1","1"
"","","","","","html-keyboard-response","81","259879","0.0-81.0-1.0-0.0","DB500201701B429AA08CAE64378B09D9","baffe828-dfe5-43c7-83bf-d5fb2df1b0b0","61e1ec61-13c7-4a8f-bf47-a91ec9909364","","null","<div style=""display: flex; justify-content: center; align-items: center;"">
                <img src=""images/semantic/semantic_series_11/semantic_series_11_d.jpg"" style=""width: 300px; height: 300px;"" />
              </div>","null",""
"","","","","","html-keyboard-response","82","262892","0.0-82.0","DB500201701B429AA08CAE64378B09D9","baffe828-dfe5-43c7-83bf-d5fb2df1b0b0","61e1ec61-13c7-4a8f-bf47-a91ec9909364","","null","<div style=""display: flex; justify-content: center; align-items: center;"">
                <img src=""images/other/blank.jpg"" style=""width: 300px; height: 300px;"" />
              </div>","null",""
"","","","","","html-keyboard-response","83","265901","0.0-83.0","DB500201701B429AA08CAE64378B09D9","baffe828-dfe5-43c7-83bf-d5fb2df1b0b0","61e1ec61-13c7-4a8f-bf47-a91ec9909364","","null","<div style=""display: flex; justify-content: center; align-items: center;"">
                <img src=""images/causal/causal_series_1/causal_series_1_a.jpg"" style=""width: 300px; height: 300px;"" />
              </div>","null",""
"","","","","","html-keyboard-response","84","268908","0.0-84.0","DB500201701B429AA08CAE64378B09D9","baffe828-dfe5-43c7-83bf-d5fb2df1b0b0","61e1ec61-13c7-4a8f-bf47-a91ec9909364","","null","<div style=""display: flex; justify-content: center; align-items: center;"">
                <img src=""images/causal/causal_series_1/causal_series_1_b.jpg"" style=""width: 300px; height: 300px;"" />
              </div>","null",""
"","","","","","html-keyboard-response","85","271914","0.0-85.0","DB500201701B429AA08CAE64378B09D9","baffe828-dfe5-43c7-83bf-d5fb2df1b0b0","61e1ec61-13c7-4a8f-bf47-a91ec9909364","","null","<div style=""display: flex; justify-content: center; align-items: center;"">
                <img src=""images/causal/causal_series_1/causal_series_1_c.jpg"" style=""width: 300px; height: 300px;"" />
              </div>","null",""
"","","","","","html-button-response","86","272423","0.0-86.0","DB500201701B429AA08CAE64378B09D9","baffe828-dfe5-43c7-83bf-d5fb2df1b0b0","61e1ec61-13c7-4a8f-bf47-a91ec9909364","","507","
    <div style=""display: flex; justify-content: center; align-items: center;"">
      <img src=""images/red_deck_2.png"" style=""width: 300px; height: 300px; margin-right: 10px;"" />
      <img src=""images/blue_deck_1.png"" style=""width: 300px; height: 300px;"" />
    </div>","1","1"
"","","","","","html-keyboard-response","87","275426","0.0-87.0-1.0-0.0","DB500201701B429AA08CAE64378B09D9","baffe828-dfe5-43c7-83bf-d5fb2df1b0b0","61e1ec61-13c7-4a8f-bf47-a91ec9909364","","null","<div style=""display: flex; justify-content: center; align-items: center;"">
                <img src=""images/semantic/semantic_series_18/semantic_series_18_d.jpg"" style=""width: 300px; height: 300px;"" />
              </div>","null",""
"","","","","","html-keyboard-response","88","278430","0.0-88.0","DB500201701B429AA08CAE64378B09D9","baffe828-dfe5-43c7-83bf-d5fb2df1b0b0","61e1ec61-13c7-4a8f-bf47-a91ec9909364","","null","<div style=""display: flex; justify-content: center; align-items: center;"">
                <img src=""images/other/blank.jpg"" style=""width: 300px; height: 300px;"" />
              </div>","null",""
"","","","","","html-keyboard-response","89","281432","0.0-89.0","DB500201701B429AA08CAE64378B09D9","baffe828-dfe5-43c7-83bf-d5fb2df1b0b0","61e1ec61-13c7-4a8f-bf47-a91ec9909364","","null","<div style=""display: flex; justify-content: center; align-items: center;"">
                <img src=""images/causal/causal_series_6/causal_series_6_a.jpg"" style=""width: 300px; height: 300px;"" />
              </div>","null",""
"","","","","","html-keyboard-response","90","284437","0.0-90.0","DB500201701B429AA08CAE64378B09D9","baffe828-dfe5-43c7-83bf-d5fb2df1b0b0","61e1ec61-13c7-4a8f-bf47-a91ec9909364","","null","<div style=""display: flex; justify-content: center; align-items: center;"">
                <img src=""images/causal/causal_series_6/causal_series_6_b.jpg"" style=""width: 300px; height: 300px;"" />
              </div>","null",""
"","","","","","html-keyboard-response","91","287440","0.0-91.0","DB500201701B429AA08CAE64378B09D9","baffe828-dfe5-43c7-83bf-d5fb2df1b0b0","61e1ec61-13c7-4a8f-bf47-a91ec9909364","","null","<div style=""display: flex; justify-content: center; align-items: center;"">
                <img src=""images/causal/causal_series_6/causal_series_6_c.jpg"" style=""width: 300px; height: 300px;"" />
              </div>","null",""
"","","","","","html-button-response","92","287841","0.0-92.0","DB500201701B429AA08CAE64378B09D9","baffe828-dfe5-43c7-83bf-d5fb2df1b0b0","61e1ec61-13c7-4a8f-bf47-a91ec9909364","","400","
    <div style=""display: flex; justify-content: center; align-items: center;"">
      <img src=""images/red_deck_2.png"" style=""width: 300px; height: 300px; margin-right: 10px;"" />
      <img src=""images/blue_deck_1.png"" style=""width: 300px; height: 300px;"" />
    </div>","0","0"
"","","","","","html-keyboard-response","93","290844","0.0-93.0-0.0-0.0","DB500201701B429AA08CAE64378B09D9","baffe828-dfe5-43c7-83bf-d5fb2df1b0b0","61e1ec61-13c7-4a8f-bf47-a91ec9909364","","null","<div style=""display: flex; justify-content: center; align-items: center;"">
                <img src=""images/causal/causal_series_6/causal_series_6_d.jpg"" style=""width: 300px; height: 300px;"" />
              </div>","null",""
"","","","","","html-keyboard-response","94","293860","0.0-94.0","DB500201701B429AA08CAE64378B09D9","baffe828-dfe5-43c7-83bf-d5fb2df1b0b0","61e1ec61-13c7-4a8f-bf47-a91ec9909364","","null","<div style=""display: flex; justify-content: center; align-items: center;"">
                <img src=""images/other/blank.jpg"" style=""width: 300px; height: 300px;"" />
              </div>","null",""
"","","","","","html-keyboard-response","95","296861","0.0-95.0","DB500201701B429AA08CAE64378B09D9","baffe828-dfe5-43c7-83bf-d5fb2df1b0b0","61e1ec61-13c7-4a8f-bf47-a91ec9909364","","null","<div style=""display: flex; justify-content: center; align-items: center;"">
                <img src=""images/causal/causal_series_5/causal_series_5_a.jpg"" style=""width: 300px; height: 300px;"" />
              </div>","null",""
"","","","","","html-keyboard-response","96","299866","0.0-96.0","DB500201701B429AA08CAE64378B09D9","baffe828-dfe5-43c7-83bf-d5fb2df1b0b0","61e1ec61-13c7-4a8f-bf47-a91ec9909364","","null","<div style=""display: flex; justify-content: center; align-items: center;"">
                <img src=""images/causal/causal_series_5/causal_series_5_b.jpg"" style=""width: 300px; height: 300px;"" />
              </div>","null",""
"","","","","","html-keyboard-response","97","302873","0.0-97.0","DB500201701B429AA08CAE64378B09D9","baffe828-dfe5-43c7-83bf-d5fb2df1b0b0","61e1ec61-13c7-4a8f-bf47-a91ec9909364","","null","<div style=""display: flex; justify-content: center; align-items: center;"">
                <img src=""images/causal/causal_series_5/causal_series_5_c.jpg"" style=""width: 300px; height: 300px;"" />
              </div>","null",""
"","","","","","html-button-response","98","303810","0.0-98.0","DB500201701B429AA08CAE64378B09D9","baffe828-dfe5-43c7-83bf-d5fb2df1b0b0","61e1ec61-13c7-4a8f-bf47-a91ec9909364","","936","
    <div style=""display: flex; justify-content: center; align-items: center;"">
      <img src=""images/red_deck_2.png"" style=""width: 300px; height: 300px; margin-right: 10px;"" />
      <img src=""images/blue_deck_1.png"" style=""width: 300px; height: 300px;"" />
    </div>","1","1"
"","","","","","html-keyboard-response","99","306813","0.0-99.0-1.0-0.0","DB500201701B429AA08CAE64378B09D9","baffe828-dfe5-43c7-83bf-d5fb2df1b0b0","61e1ec61-13c7-4a8f-bf47-a91ec9909364","","null","<div style=""display: flex; justify-content: center; align-items: center;"">
                <img src=""images/semantic/semantic_series_4/semantic_series_4_d.jpg"" style=""width: 300px; height: 300px;"" />
              </div>","null",""
"","","","","","html-keyboard-response","100","309823","0.0-100.0","DB500201701B429AA08CAE64378B09D9","baffe828-dfe5-43c7-83bf-d5fb2df1b0b0","61e1ec61-13c7-4a8f-bf47-a91ec9909364","","null","<div style=""display: flex; justify-content: center; align-items: center;"">
                <img src=""images/other/blank.jpg"" style=""width: 300px; height: 300px;"" />
              </div>","null",""
"","","","","","html-keyboard-response","101","312831","0.0-101.0","DB500201701B429AA08CAE64378B09D9","baffe828-dfe5-43c7-83bf-d5fb2df1b0b0","61e1ec61-13c7-4a8f-bf47-a91ec9909364","","null","<div style=""display: flex; justify-content: center; align-items: center;"">
                <img src=""images/causal/causal_series_10/causal_series_10_a.jpg"" style=""width: 300px; height: 300px;"" />
              </div>","null",""
"","","","","","html-keyboard-response","102","315838","0.0-102.0","DB500201701B429AA08CAE64378B09D9","baffe828-dfe5-43c7-83bf-d5fb2df1b0b0","61e1ec61-13c7-4a8f-bf47-a91ec9909364","","null","<div style=""display: flex; justify-content: center; align-items: center;"">
                <img src=""images/causal/causal_series_10/causal_series_10_b.jpg"" style=""width: 300px; height: 300px;"" />
              </div>","null",""
"","","","","","html-keyboard-response","103","318854","0.0-103.0","DB500201701B429AA08CAE64378B09D9","baffe828-dfe5-43c7-83bf-d5fb2df1b0b0","61e1ec61-13c7-4a8f-bf47-a91ec9909364","","null","<div style=""display: flex; justify-content: center; align-items: center;"">
                <img src=""images/causal/causal_series_10/causal_series_10_c.jpg"" style=""width: 300px; height: 300px;"" />
              </div>","null",""
"","","","","","html-button-response","104","319639","0.0-104.0","DB500201701B429AA08CAE64378B09D9","baffe828-dfe5-43c7-83bf-d5fb2df1b0b0","61e1ec61-13c7-4a8f-bf47-a91ec9909364","","783","
    <div style=""display: flex; justify-content: center; align-items: center;"">
      <img src=""images/red_deck_2.png"" style=""width: 300px; height: 300px; margin-right: 10px;"" />
      <img src=""images/blue_deck_1.png"" style=""width: 300px; height: 300px;"" />
    </div>","0","0"
"","","","","","html-keyboard-response","105","322641","0.0-105.0-0.0-0.0","DB500201701B429AA08CAE64378B09D9","baffe828-dfe5-43c7-83bf-d5fb2df1b0b0","61e1ec61-13c7-4a8f-bf47-a91ec9909364","","null","<div style=""display: flex; justify-content: center; align-items: center;"">
                <img src=""images/causal/causal_series_10/causal_series_10_d.jpg"" style=""width: 300px; height: 300px;"" />
              </div>","null",""
"","","","","","html-keyboard-response","106","325648","0.0-106.0","DB500201701B429AA08CAE64378B09D9","baffe828-dfe5-43c7-83bf-d5fb2df1b0b0","61e1ec61-13c7-4a8f-bf47-a91ec9909364","","null","<div style=""display: flex; justify-content: center; align-items: center;"">
                <img src=""images/other/blank.jpg"" style=""width: 300px; height: 300px;"" />
              </div>","null",""
"","","","","","html-keyboard-response","107","328663","0.0-107.0","DB500201701B429AA08CAE64378B09D9","baffe828-dfe5-43c7-83bf-d5fb2df1b0b0","61e1ec61-13c7-4a8f-bf47-a91ec9909364","","null","<div style=""display: flex; justify-content: center; align-items: center;"">
                <img src=""images/causal/causal_series_3/causal_series_3_a.jpg"" style=""width: 300px; height: 300px;"" />
              </div>","null",""
"","","","","","html-keyboard-response","108","331678","0.0-108.0","DB500201701B429AA08CAE64378B09D9","baffe828-dfe5-43c7-83bf-d5fb2df1b0b0","61e1ec61-13c7-4a8f-bf47-a91ec9909364","","null","<div style=""display: flex; justify-content: center; align-items: center;"">
                <img src=""images/causal/causal_series_3/causal_series_3_b.jpg"" style=""width: 300px; height: 300px;"" />
              </div>","null",""
"","","","","","html-keyboard-response","109","334693","0.0-109.0","DB500201701B429AA08CAE64378B09D9","baffe828-dfe5-43c7-83bf-d5fb2df1b0b0","61e1ec61-13c7-4a8f-bf47-a91ec9909364","","null","<div style=""display: flex; justify-content: center; align-items: center;"">
                <img src=""images/causal/causal_series_3/causal_series_3_c.jpg"" style=""width: 300px; height: 300px;"" />
              </div>","null",""
"","","","","","html-button-response","110","335216","0.0-110.0","DB500201701B429AA08CAE64378B09D9","baffe828-dfe5-43c7-83bf-d5fb2df1b0b0","61e1ec61-13c7-4a8f-bf47-a91ec9909364","","521","
    <div style=""display: flex; justify-content: center; align-items: center;"">
      <img src=""images/red_deck_2.png"" style=""width: 300px; height: 300px; margin-right: 10px;"" />
      <img src=""images/blue_deck_1.png"" style=""width: 300px; height: 300px;"" />
    </div>","0","0"
"","","","","","html-keyboard-response","111","338222","0.0-111.0-0.0-0.0","DB500201701B429AA08CAE64378B09D9","baffe828-dfe5-43c7-83bf-d5fb2df1b0b0","61e1ec61-13c7-4a8f-bf47-a91ec9909364","","null","<div style=""display: flex; justify-content: center; align-items: center;"">
                <img src=""images/causal/causal_series_3/causal_series_3_d.jpg"" style=""width: 300px; height: 300px;"" />
              </div>","null",""
"","","","","","html-keyboard-response","112","341227","0.0-112.0","DB500201701B429AA08CAE64378B09D9","baffe828-dfe5-43c7-83bf-d5fb2df1b0b0","61e1ec61-13c7-4a8f-bf47-a91ec9909364","","null","<div style=""display: flex; justify-content: center; align-items: center;"">
                <img src=""images/other/blank.jpg"" style=""width: 300px; height: 300px;"" />
              </div>","null",""
"","","","","","survey-text","113","351638","0.0-113.0","DB500201701B429AA08CAE64378B09D9","baffe828-dfe5-43c7-83bf-d5fb2df1b0b0","61e1ec61-13c7-4a8f-bf47-a91ec9909364","","10405","","{""Q0"":""One was red and one was blue ""}",""
"","","","","","survey-text","114","368511","0.0-114.0","DB500201701B429AA08CAE64378B09D9","baffe828-dfe5-43c7-83bf-d5fb2df1b0b0","61e1ec61-13c7-4a8f-bf47-a91ec9909364","","16856","","{""Q0"":""The blue one was more unusual looking ""}",""
"","","","","","html-button-response","115","380895","0.0-115.0","DB500201701B429AA08CAE64378B09D9","baffe828-dfe5-43c7-83bf-d5fb2df1b0b0","61e1ec61-13c7-4a8f-bf47-a91ec9909364","","12383","Which color deck does the fourth image continue the story from the series?","0",""
"","","","","","html-button-response","116","383538","0.0-116.0","DB500201701B429AA08CAE64378B09D9","baffe828-dfe5-43c7-83bf-d5fb2df1b0b0","61e1ec61-13c7-4a8f-bf47-a91ec9909364","","2641","Which color deck does the fourth image not follow the story from the series?","1",""
"","","","","","survey-text","117","390929","0.0-117.0","DB500201701B429AA08CAE64378B09D9","baffe828-dfe5-43c7-83bf-d5fb2df1b0b0","61e1ec61-13c7-4a8f-bf47-a91ec9909364","","7386","","{""Q0"":""MALE"",""Q1"":""20""}",""
"","","","","","instructions","118","397109","0.0-118.0","DB500201701B429AA08CAE64378B09D9","baffe828-dfe5-43c7-83bf-d5fb2df1b0b0","61e1ec61-13c7-4a8f-bf47-a91ec9909364","[{""page_index"":0,""viewing_time"":6179}]","6179","","",""
