"success","timeout","failed_images","failed_audio","failed_video","trial_type","trial_index","time_elapsed","internal_node_id","subject_id","study_id","session_id","offered_color","wait_time","view_history","rt","stimulus","response","phase","decision"
"true","false","[]","[]","[]","preload","0","443","0.0-0.0","8DFA07C880FC4350BCAE8401C5098747","019a7198-2f1d-7a8e-94db-1000e38b9d4a","019a7188-a63e-702f-9719-a711ecbd4f52","red","12000","","","","","",""
"","","","","","instructions","1","3659","0.0-1.0","8DFA07C880FC4350BCAE8401C5098747","019a7198-2f1d-7a8e-94db-1000e38b9d4a","019a7188-a63e-702f-9719-a711ecbd4f52","red","12000","[{""page_index"":0,""viewing_time"":3215}]","3216","","","",""
"","","","","","instructions","2","5718","0.0-2.0","8DFA07C880FC4350BCAE8401C5098747","019a7198-2f1d-7a8e-94db-1000e38b9d4a","019a7188-a63e-702f-9719-a711ecbd4f52","red","12000","[{""page_index"":0,""viewing_time"":2059}]","2059","","","",""
"true","","","","","fullscreen","3","7902","0.0-3.0","8DFA07C880FC4350BCAE8401C5098747","019a7198-2f1d-7a8e-94db-1000e38b9d4a","019a7188-a63e-702f-9719-a711ecbd4f52","red","12000","","1176","","","",""
"","","","","","instructions","4","11672","0.0-4.0","8DFA07C880FC4350BCAE8401C5098747","019a7198-2f1d-7a8e-94db-1000e38b9d4a","019a7188-a63e-702f-9719-a711ecbd4f52","red","12000","[{""page_index"":0,""viewing_time"":3769}]","3770","","","",""
"","","","","","instructions","5","18921","0.0-5.0","8DFA07C880FC4350BCAE8401C5098747","019a7198-2f1d-7a8e-94db-1000e38b9d4a","019a7188-a63e-702f-9719-a711ecbd4f52","red","12000","[{""page_index"":0,""viewing_time"":7248}]","7248","","","",""
"","","","","","html-keyboard-response","6","24928","0.0-6.0-0.0-0.0","8DFA07C880FC4350BCAE8401C5098747","019a7198-2f1d-7a8e-94db-1000e38b9d4a","019a7188-a63e-702f-9719-a711ecbd4f52","red","12000","","null","<div style=""display:flex;justify-content:center;align-items:center;"">
                     <img src=""images/causal/causal_series_5/causal_series_5_a.png"" style=""width:300px;height:300px;"">
                   </div>","null","start",""
"","","","","","html-button-response","7","31275","0.0-6.0-0.0-1.0","8DFA07C880FC4350BCAE8401C5098747","019a7198-2f1d-7a8e-94db-1000e38b9d4a","019a7188-a63e-702f-9719-a711ecbd4f52","red","12000","","6345","<p style=""font-size:22px;"">The next series offered is 
                        <span style=""color:blue; font-weight:bold;"">BLUE</span>.</p>
                      <p>The blue series shows a sequence of events with a cause-and-effect relationship.</p>
                      <p>If you choose to view, you will need to wait <b>8 seconds</b> before seeing the next images.</p>
                      <p>Would you like to view or skip?</p>","1","offer_choice","skip"
"","","","","","html-keyboard-response","8","33275","0.0-6.0-0.0-5.0-0.0","8DFA07C880FC4350BCAE8401C5098747","019a7198-2f1d-7a8e-94db-1000e38b9d4a","019a7188-a63e-702f-9719-a711ecbd4f52","red","12000","","null","<p style=""font-size:22px;"">Skipping to the next round...</p>","null","skip_screen",""
"","","","","","html-keyboard-response","9","39286","0.0-6.0-1.0-0.0","8DFA07C880FC4350BCAE8401C5098747","019a7198-2f1d-7a8e-94db-1000e38b9d4a","019a7188-a63e-702f-9719-a711ecbd4f52","red","12000","","null","<div style=""display:flex;justify-content:center;align-items:center;"">
                     <img src=""images/causal/causal_series_3/causal_series_3_a.png"" style=""width:300px;height:300px;"">
                   </div>","null","start",""
"","","","","","html-button-response","10","41192","0.0-6.0-1.0-1.0","8DFA07C880FC4350BCAE8401C5098747","019a7198-2f1d-7a8e-94db-1000e38b9d4a","019a7188-a63e-702f-9719-a711ecbd4f52","red","12000","","1905","<p style=""font-size:22px;"">The next series offered is 
                        <span style=""color:red; font-weight:bold;"">RED</span>.</p>
                      <p>The red series shows a sequence of unrelated events with no causal link.</p>
                      <p>If you choose to view, you will need to wait <b>6 seconds</b> before seeing the next images.</p>
                      <p>Would you like to view or skip?</p>","1","offer_choice","skip"
"","","","","","html-keyboard-response","11","43206","0.0-6.0-1.0-5.0-0.0","8DFA07C880FC4350BCAE8401C5098747","019a7198-2f1d-7a8e-94db-1000e38b9d4a","019a7188-a63e-702f-9719-a711ecbd4f52","red","12000","","null","<p style=""font-size:22px;"">Skipping to the next round...</p>","null","skip_screen",""
"","","","","","html-keyboard-response","12","49207","0.0-6.0-2.0-0.0","8DFA07C880FC4350BCAE8401C5098747","019a7198-2f1d-7a8e-94db-1000e38b9d4a","019a7188-a63e-702f-9719-a711ecbd4f52","red","12000","","null","<div style=""display:flex;justify-content:center;align-items:center;"">
                     <img src=""images/causal/causal_series_1/causal_series_1_a.png"" style=""width:300px;height:300px;"">
                   </div>","null","start",""
"","","","","","html-button-response","13","50604","0.0-6.0-2.0-1.0","8DFA07C880FC4350BCAE8401C5098747","019a7198-2f1d-7a8e-94db-1000e38b9d4a","019a7188-a63e-702f-9719-a711ecbd4f52","red","12000","","1396","<p style=""font-size:22px;"">The next series offered is 
                        <span style=""color:red; font-weight:bold;"">RED</span>.</p>
                      <p>The red series shows a sequence of unrelated events with no causal link.</p>
                      <p>If you choose to view, you will need to wait <b>6 seconds</b> before seeing the next images.</p>
                      <p>Would you like to view or skip?</p>","1","offer_choice","skip"
"","","","","","html-keyboard-response","14","52606","0.0-6.0-2.0-5.0-0.0","8DFA07C880FC4350BCAE8401C5098747","019a7198-2f1d-7a8e-94db-1000e38b9d4a","019a7188-a63e-702f-9719-a711ecbd4f52","red","12000","","null","<p style=""font-size:22px;"">Skipping to the next round...</p>","null","skip_screen",""
"","","","","","html-keyboard-response","15","58611","0.0-6.0-3.0-0.0","8DFA07C880FC4350BCAE8401C5098747","019a7198-2f1d-7a8e-94db-1000e38b9d4a","019a7188-a63e-702f-9719-a711ecbd4f52","red","12000","","null","<div style=""display:flex;justify-content:center;align-items:center;"">
                     <img src=""images/causal/causal_series_6/causal_series_6_a.png"" style=""width:300px;height:300px;"">
                   </div>","null","start",""
"","","","","","html-button-response","16","60344","0.0-6.0-3.0-1.0","8DFA07C880FC4350BCAE8401C5098747","019a7198-2f1d-7a8e-94db-1000e38b9d4a","019a7188-a63e-702f-9719-a711ecbd4f52","red","12000","","1732","<p style=""font-size:22px;"">The next series offered is 
                        <span style=""color:red; font-weight:bold;"">RED</span>.</p>
                      <p>The red series shows a sequence of unrelated events with no causal link.</p>
                      <p>If you choose to view, you will need to wait <b>12 seconds</b> before seeing the next images.</p>
                      <p>Would you like to view or skip?</p>","1","offer_choice","skip"
"","","","","","html-keyboard-response","17","62356","0.0-6.0-3.0-5.0-0.0","8DFA07C880FC4350BCAE8401C5098747","019a7198-2f1d-7a8e-94db-1000e38b9d4a","019a7188-a63e-702f-9719-a711ecbd4f52","red","12000","","null","<p style=""font-size:22px;"">Skipping to the next round...</p>","null","skip_screen",""
"","","","","","html-keyboard-response","18","68358","0.0-6.0-4.0-0.0","8DFA07C880FC4350BCAE8401C5098747","019a7198-2f1d-7a8e-94db-1000e38b9d4a","019a7188-a63e-702f-9719-a711ecbd4f52","red","12000","","null","<div style=""display:flex;justify-content:center;align-items:center;"">
                     <img src=""images/causal/causal_series_7/causal_series_7_a.png"" style=""width:300px;height:300px;"">
                   </div>","null","start",""
"","","","","","html-button-response","19","69769","0.0-6.0-4.0-1.0","8DFA07C880FC4350BCAE8401C5098747","019a7198-2f1d-7a8e-94db-1000e38b9d4a","019a7188-a63e-702f-9719-a711ecbd4f52","red","12000","","1411","<p style=""font-size:22px;"">The next series offered is 
                        <span style=""color:blue; font-weight:bold;"">BLUE</span>.</p>
                      <p>The blue series shows a sequence of events with a cause-and-effect relationship.</p>
                      <p>If you choose to view, you will need to wait <b>12 seconds</b> before seeing the next images.</p>
                      <p>Would you like to view or skip?</p>","1","offer_choice","skip"
"","","","","","html-keyboard-response","20","71770","0.0-6.0-4.0-5.0-0.0","8DFA07C880FC4350BCAE8401C5098747","019a7198-2f1d-7a8e-94db-1000e38b9d4a","019a7188-a63e-702f-9719-a711ecbd4f52","red","12000","","null","<p style=""font-size:22px;"">Skipping to the next round...</p>","null","skip_screen",""
"","","","","","html-keyboard-response","21","77786","0.0-6.0-5.0-0.0","8DFA07C880FC4350BCAE8401C5098747","019a7198-2f1d-7a8e-94db-1000e38b9d4a","019a7188-a63e-702f-9719-a711ecbd4f52","red","12000","","null","<div style=""display:flex;justify-content:center;align-items:center;"">
                     <img src=""images/causal/causal_series_2/causal_series_2_a.png"" style=""width:300px;height:300px;"">
                   </div>","null","start",""
"","","","","","html-button-response","22","78927","0.0-6.0-5.0-1.0","8DFA07C880FC4350BCAE8401C5098747","019a7198-2f1d-7a8e-94db-1000e38b9d4a","019a7188-a63e-702f-9719-a711ecbd4f52","red","12000","","1141","<p style=""font-size:22px;"">The next series offered is 
                        <span style=""color:red; font-weight:bold;"">RED</span>.</p>
                      <p>The red series shows a sequence of unrelated events with no causal link.</p>
                      <p>If you choose to view, you will need to wait <b>6 seconds</b> before seeing the next images.</p>
                      <p>Would you like to view or skip?</p>","1","offer_choice","skip"
"","","","","","html-keyboard-response","23","80934","0.0-6.0-5.0-5.0-0.0","8DFA07C880FC4350BCAE8401C5098747","019a7198-2f1d-7a8e-94db-1000e38b9d4a","019a7188-a63e-702f-9719-a711ecbd4f52","red","12000","","null","<p style=""font-size:22px;"">Skipping to the next round...</p>","null","skip_screen",""
"","","","","","html-keyboard-response","24","86936","0.0-6.0-6.0-0.0","8DFA07C880FC4350BCAE8401C5098747","019a7198-2f1d-7a8e-94db-1000e38b9d4a","019a7188-a63e-702f-9719-a711ecbd4f52","red","12000","","null","<div style=""display:flex;justify-content:center;align-items:center;"">
                     <img src=""images/causal/causal_series_9/causal_series_9_a.png"" style=""width:300px;height:300px;"">
                   </div>","null","start",""
"","","","","","html-button-response","25","87998","0.0-6.0-6.0-1.0","8DFA07C880FC4350BCAE8401C5098747","019a7198-2f1d-7a8e-94db-1000e38b9d4a","019a7188-a63e-702f-9719-a711ecbd4f52","red","12000","","1062","<p style=""font-size:22px;"">The next series offered is 
                        <span style=""color:blue; font-weight:bold;"">BLUE</span>.</p>
                      <p>The blue series shows a sequence of events with a cause-and-effect relationship.</p>
                      <p>If you choose to view, you will need to wait <b>6 seconds</b> before seeing the next images.</p>
                      <p>Would you like to view or skip?</p>","1","offer_choice","skip"
"","","","","","html-keyboard-response","26","89999","0.0-6.0-6.0-5.0-0.0","8DFA07C880FC4350BCAE8401C5098747","019a7198-2f1d-7a8e-94db-1000e38b9d4a","019a7188-a63e-702f-9719-a711ecbd4f52","red","12000","","null","<p style=""font-size:22px;"">Skipping to the next round...</p>","null","skip_screen",""
"","","","","","html-keyboard-response","27","96005","0.0-6.0-7.0-0.0","8DFA07C880FC4350BCAE8401C5098747","019a7198-2f1d-7a8e-94db-1000e38b9d4a","019a7188-a63e-702f-9719-a711ecbd4f52","red","12000","","null","<div style=""display:flex;justify-content:center;align-items:center;"">
                     <img src=""images/causal/causal_series_4/causal_series_4_a.png"" style=""width:300px;height:300px;"">
                   </div>","null","start",""
"","","","","","html-button-response","28","96982","0.0-6.0-7.0-1.0","8DFA07C880FC4350BCAE8401C5098747","019a7198-2f1d-7a8e-94db-1000e38b9d4a","019a7188-a63e-702f-9719-a711ecbd4f52","red","12000","","977","<p style=""font-size:22px;"">The next series offered is 
                        <span style=""color:blue; font-weight:bold;"">BLUE</span>.</p>
                      <p>The blue series shows a sequence of events with a cause-and-effect relationship.</p>
                      <p>If you choose to view, you will need to wait <b>6 seconds</b> before seeing the next images.</p>
                      <p>Would you like to view or skip?</p>","1","offer_choice","skip"
"","","","","","html-keyboard-response","29","98993","0.0-6.0-7.0-5.0-0.0","8DFA07C880FC4350BCAE8401C5098747","019a7198-2f1d-7a8e-94db-1000e38b9d4a","019a7188-a63e-702f-9719-a711ecbd4f52","red","12000","","null","<p style=""font-size:22px;"">Skipping to the next round...</p>","null","skip_screen",""
"","","","","","html-keyboard-response","30","105006","0.0-6.0-8.0-0.0","8DFA07C880FC4350BCAE8401C5098747","019a7198-2f1d-7a8e-94db-1000e38b9d4a","019a7188-a63e-702f-9719-a711ecbd4f52","red","12000","","null","<div style=""display:flex;justify-content:center;align-items:center;"">
                     <img src=""images/causal/causal_series_8/causal_series_8_a.png"" style=""width:300px;height:300px;"">
                   </div>","null","start",""
"","","","","","html-button-response","31","106351","0.0-6.0-8.0-1.0","8DFA07C880FC4350BCAE8401C5098747","019a7198-2f1d-7a8e-94db-1000e38b9d4a","019a7188-a63e-702f-9719-a711ecbd4f52","red","12000","","1345","<p style=""font-size:22px;"">The next series offered is 
                        <span style=""color:red; font-weight:bold;"">RED</span>.</p>
                      <p>The red series shows a sequence of unrelated events with no causal link.</p>
                      <p>If you choose to view, you will need to wait <b>8 seconds</b> before seeing the next images.</p>
                      <p>Would you like to view or skip?</p>","1","offer_choice","skip"
"","","","","","html-keyboard-response","32","108353","0.0-6.0-8.0-5.0-0.0","8DFA07C880FC4350BCAE8401C5098747","019a7198-2f1d-7a8e-94db-1000e38b9d4a","019a7188-a63e-702f-9719-a711ecbd4f52","red","12000","","null","<p style=""font-size:22px;"">Skipping to the next round...</p>","null","skip_screen",""
"","","","","","html-keyboard-response","33","114357","0.0-6.0-9.0-0.0","8DFA07C880FC4350BCAE8401C5098747","019a7198-2f1d-7a8e-94db-1000e38b9d4a","019a7188-a63e-702f-9719-a711ecbd4f52","red","12000","","null","<div style=""display:flex;justify-content:center;align-items:center;"">
                     <img src=""images/causal/causal_series_10/causal_series_10_a.png"" style=""width:300px;height:300px;"">
                   </div>","null","start",""
"","","","","","html-button-response","34","115655","0.0-6.0-9.0-1.0","8DFA07C880FC4350BCAE8401C5098747","019a7198-2f1d-7a8e-94db-1000e38b9d4a","019a7188-a63e-702f-9719-a711ecbd4f52","red","12000","","1298","<p style=""font-size:22px;"">The next series offered is 
                        <span style=""color:blue; font-weight:bold;"">BLUE</span>.</p>
                      <p>The blue series shows a sequence of events with a cause-and-effect relationship.</p>
                      <p>If you choose to view, you will need to wait <b>12 seconds</b> before seeing the next images.</p>
                      <p>Would you like to view or skip?</p>","1","offer_choice","skip"
"","","","","","html-keyboard-response","35","117668","0.0-6.0-9.0-5.0-0.0","8DFA07C880FC4350BCAE8401C5098747","019a7198-2f1d-7a8e-94db-1000e38b9d4a","019a7188-a63e-702f-9719-a711ecbd4f52","red","12000","","null","<p style=""font-size:22px;"">Skipping to the next round...</p>","null","skip_screen",""
"","","","","","html-keyboard-response","36","123677","0.0-6.1-0.1-0.1","8DFA07C880FC4350BCAE8401C5098747","019a7198-2f1d-7a8e-94db-1000e38b9d4a","019a7188-a63e-702f-9719-a711ecbd4f52","red","12000","","null","<div style=""display:flex;justify-content:center;align-items:center;"">
                     <img src=""images/causal/causal_series_5/causal_series_5_a.png"" style=""width:300px;height:300px;"">
                   </div>","null","start",""
"","","","","","html-button-response","37","124960","0.0-6.1-0.1-1.1","8DFA07C880FC4350BCAE8401C5098747","019a7198-2f1d-7a8e-94db-1000e38b9d4a","019a7188-a63e-702f-9719-a711ecbd4f52","red","12000","","1282","<p style=""font-size:22px;"">The next series offered is 
                        <span style=""color:blue; font-weight:bold;"">BLUE</span>.</p>
                      <p>The blue series shows a sequence of events with a cause-and-effect relationship.</p>
                      <p>If you choose to view, you will need to wait <b>6 seconds</b> before seeing the next images.</p>
                      <p>Would you like to view or skip?</p>","1","offer_choice","skip"
"","","","","","html-keyboard-response","38","126969","0.0-6.1-0.1-5.1-0.1","8DFA07C880FC4350BCAE8401C5098747","019a7198-2f1d-7a8e-94db-1000e38b9d4a","019a7188-a63e-702f-9719-a711ecbd4f52","red","12000","","null","<p style=""font-size:22px;"">Skipping to the next round...</p>","null","skip_screen",""
"","","","","","html-keyboard-response","39","132980","0.0-6.1-1.1-0.1","8DFA07C880FC4350BCAE8401C5098747","019a7198-2f1d-7a8e-94db-1000e38b9d4a","019a7188-a63e-702f-9719-a711ecbd4f52","red","12000","","null","<div style=""display:flex;justify-content:center;align-items:center;"">
                     <img src=""images/causal/causal_series_3/causal_series_3_a.png"" style=""width:300px;height:300px;"">
                   </div>","null","start",""
"","","","","","html-button-response","40","134087","0.0-6.1-1.1-1.1","8DFA07C880FC4350BCAE8401C5098747","019a7198-2f1d-7a8e-94db-1000e38b9d4a","019a7188-a63e-702f-9719-a711ecbd4f52","red","12000","","1106","<p style=""font-size:22px;"">The next series offered is 
                        <span style=""color:blue; font-weight:bold;"">BLUE</span>.</p>
                      <p>The blue series shows a sequence of events with a cause-and-effect relationship.</p>
                      <p>If you choose to view, you will need to wait <b>6 seconds</b> before seeing the next images.</p>
                      <p>Would you like to view or skip?</p>","1","offer_choice","skip"
"","","","","","html-keyboard-response","41","136088","0.0-6.1-1.1-5.1-0.1","8DFA07C880FC4350BCAE8401C5098747","019a7198-2f1d-7a8e-94db-1000e38b9d4a","019a7188-a63e-702f-9719-a711ecbd4f52","red","12000","","null","<p style=""font-size:22px;"">Skipping to the next round...</p>","null","skip_screen",""
"","","","","","html-keyboard-response","42","142091","0.0-6.1-2.1-0.1","8DFA07C880FC4350BCAE8401C5098747","019a7198-2f1d-7a8e-94db-1000e38b9d4a","019a7188-a63e-702f-9719-a711ecbd4f52","red","12000","","null","<div style=""display:flex;justify-content:center;align-items:center;"">
                     <img src=""images/causal/causal_series_1/causal_series_1_a.png"" style=""width:300px;height:300px;"">
                   </div>","null","start",""
"","","","","","html-button-response","43","143179","0.0-6.1-2.1-1.1","8DFA07C880FC4350BCAE8401C5098747","019a7198-2f1d-7a8e-94db-1000e38b9d4a","019a7188-a63e-702f-9719-a711ecbd4f52","red","12000","","1087","<p style=""font-size:22px;"">The next series offered is 
                        <span style=""color:blue; font-weight:bold;"">BLUE</span>.</p>
                      <p>The blue series shows a sequence of events with a cause-and-effect relationship.</p>
                      <p>If you choose to view, you will need to wait <b>12 seconds</b> before seeing the next images.</p>
                      <p>Would you like to view or skip?</p>","1","offer_choice","skip"
"","","","","","html-keyboard-response","44","145186","0.0-6.1-2.1-5.1-0.1","8DFA07C880FC4350BCAE8401C5098747","019a7198-2f1d-7a8e-94db-1000e38b9d4a","019a7188-a63e-702f-9719-a711ecbd4f52","red","12000","","null","<p style=""font-size:22px;"">Skipping to the next round...</p>","null","skip_screen",""
"","","","","","html-keyboard-response","45","151191","0.0-6.1-3.1-0.1","8DFA07C880FC4350BCAE8401C5098747","019a7198-2f1d-7a8e-94db-1000e38b9d4a","019a7188-a63e-702f-9719-a711ecbd4f52","red","12000","","null","<div style=""display:flex;justify-content:center;align-items:center;"">
                     <img src=""images/causal/causal_series_6/causal_series_6_a.png"" style=""width:300px;height:300px;"">
                   </div>","null","start",""
"","","","","","html-button-response","46","151797","0.0-6.1-3.1-1.1","8DFA07C880FC4350BCAE8401C5098747","019a7198-2f1d-7a8e-94db-1000e38b9d4a","019a7188-a63e-702f-9719-a711ecbd4f52","red","12000","","605","<p style=""font-size:22px;"">The next series offered is 
                        <span style=""color:red; font-weight:bold;"">RED</span>.</p>
                      <p>The red series shows a sequence of unrelated events with no causal link.</p>
                      <p>If you choose to view, you will need to wait <b>8 seconds</b> before seeing the next images.</p>
                      <p>Would you like to view or skip?</p>","1","offer_choice","skip"
"","","","","","html-keyboard-response","47","153803","0.0-6.1-3.1-5.1-0.1","8DFA07C880FC4350BCAE8401C5098747","019a7198-2f1d-7a8e-94db-1000e38b9d4a","019a7188-a63e-702f-9719-a711ecbd4f52","red","12000","","null","<p style=""font-size:22px;"">Skipping to the next round...</p>","null","skip_screen",""
"","","","","","html-keyboard-response","48","159808","0.0-6.1-4.1-0.1","8DFA07C880FC4350BCAE8401C5098747","019a7198-2f1d-7a8e-94db-1000e38b9d4a","019a7188-a63e-702f-9719-a711ecbd4f52","red","12000","","null","<div style=""display:flex;justify-content:center;align-items:center;"">
                     <img src=""images/causal/causal_series_7/causal_series_7_a.png"" style=""width:300px;height:300px;"">
                   </div>","null","start",""
"","","","","","html-button-response","49","160238","0.0-6.1-4.1-1.1","8DFA07C880FC4350BCAE8401C5098747","019a7198-2f1d-7a8e-94db-1000e38b9d4a","019a7188-a63e-702f-9719-a711ecbd4f52","red","12000","","430","<p style=""font-size:22px;"">The next series offered is 
                        <span style=""color:blue; font-weight:bold;"">BLUE</span>.</p>
                      <p>The blue series shows a sequence of events with a cause-and-effect relationship.</p>
                      <p>If you choose to view, you will need to wait <b>8 seconds</b> before seeing the next images.</p>
                      <p>Would you like to view or skip?</p>","1","offer_choice","skip"
"","","","","","html-keyboard-response","50","162253","0.0-6.1-4.1-5.1-0.1","8DFA07C880FC4350BCAE8401C5098747","019a7198-2f1d-7a8e-94db-1000e38b9d4a","019a7188-a63e-702f-9719-a711ecbd4f52","red","12000","","null","<p style=""font-size:22px;"">Skipping to the next round...</p>","null","skip_screen",""
"","","","","","html-keyboard-response","51","168269","0.0-6.1-5.1-0.1","8DFA07C880FC4350BCAE8401C5098747","019a7198-2f1d-7a8e-94db-1000e38b9d4a","019a7188-a63e-702f-9719-a711ecbd4f52","red","12000","","null","<div style=""display:flex;justify-content:center;align-items:center;"">
                     <img src=""images/causal/causal_series_2/causal_series_2_a.png"" style=""width:300px;height:300px;"">
                   </div>","null","start",""
"","","","","","html-button-response","52","168769","0.0-6.1-5.1-1.1","8DFA07C880FC4350BCAE8401C5098747","019a7198-2f1d-7a8e-94db-1000e38b9d4a","019a7188-a63e-702f-9719-a711ecbd4f52","red","12000","","499","<p style=""font-size:22px;"">The next series offered is 
                        <span style=""color:blue; font-weight:bold;"">BLUE</span>.</p>
                      <p>The blue series shows a sequence of events with a cause-and-effect relationship.</p>
                      <p>If you choose to view, you will need to wait <b>8 seconds</b> before seeing the next images.</p>
                      <p>Would you like to view or skip?</p>","1","offer_choice","skip"
"","","","","","html-keyboard-response","53","170772","0.0-6.1-5.1-5.1-0.1","8DFA07C880FC4350BCAE8401C5098747","019a7198-2f1d-7a8e-94db-1000e38b9d4a","019a7188-a63e-702f-9719-a711ecbd4f52","red","12000","","null","<p style=""font-size:22px;"">Skipping to the next round...</p>","null","skip_screen",""
"","","","","","html-keyboard-response","54","176778","0.0-6.1-6.1-0.1","8DFA07C880FC4350BCAE8401C5098747","019a7198-2f1d-7a8e-94db-1000e38b9d4a","019a7188-a63e-702f-9719-a711ecbd4f52","red","12000","","null","<div style=""display:flex;justify-content:center;align-items:center;"">
                     <img src=""images/causal/causal_series_9/causal_series_9_a.png"" style=""width:300px;height:300px;"">
                   </div>","null","start",""
"","","","","","html-button-response","55","177321","0.0-6.1-6.1-1.1","8DFA07C880FC4350BCAE8401C5098747","019a7198-2f1d-7a8e-94db-1000e38b9d4a","019a7188-a63e-702f-9719-a711ecbd4f52","red","12000","","542","<p style=""font-size:22px;"">The next series offered is 
                        <span style=""color:red; font-weight:bold;"">RED</span>.</p>
                      <p>The red series shows a sequence of unrelated events with no causal link.</p>
                      <p>If you choose to view, you will need to wait <b>12 seconds</b> before seeing the next images.</p>
                      <p>Would you like to view or skip?</p>","1","offer_choice","skip"
"","","","","","html-keyboard-response","56","179323","0.0-6.1-6.1-5.1-0.1","8DFA07C880FC4350BCAE8401C5098747","019a7198-2f1d-7a8e-94db-1000e38b9d4a","019a7188-a63e-702f-9719-a711ecbd4f52","red","12000","","null","<p style=""font-size:22px;"">Skipping to the next round...</p>","null","skip_screen",""
"","","","","","html-keyboard-response","57","185339","0.0-6.1-7.1-0.1","8DFA07C880FC4350BCAE8401C5098747","019a7198-2f1d-7a8e-94db-1000e38b9d4a","019a7188-a63e-702f-9719-a711ecbd4f52","red","12000","","null","<div style=""display:flex;justify-content:center;align-items:center;"">
                     <img src=""images/causal/causal_series_4/causal_series_4_a.png"" style=""width:300px;height:300px;"">
                   </div>","null","start",""
"","","","","","html-button-response","58","186043","0.0-6.1-7.1-1.1","8DFA07C880FC4350BCAE8401C5098747","019a7198-2f1d-7a8e-94db-1000e38b9d4a","019a7188-a63e-702f-9719-a711ecbd4f52","red","12000","","704","<p style=""font-size:22px;"">The next series offered is 
                        <span style=""color:red; font-weight:bold;"">RED</span>.</p>
                      <p>The red series shows a sequence of unrelated events with no causal link.</p>
                      <p>If you choose to view, you will need to wait <b>12 seconds</b> before seeing the next images.</p>
                      <p>Would you like to view or skip?</p>","1","offer_choice","skip"
"","","","","","html-keyboard-response","59","188047","0.0-6.1-7.1-5.1-0.1","8DFA07C880FC4350BCAE8401C5098747","019a7198-2f1d-7a8e-94db-1000e38b9d4a","019a7188-a63e-702f-9719-a711ecbd4f52","red","12000","","null","<p style=""font-size:22px;"">Skipping to the next round...</p>","null","skip_screen",""
"","","","","","html-keyboard-response","60","194050","0.0-6.1-8.1-0.1","8DFA07C880FC4350BCAE8401C5098747","019a7198-2f1d-7a8e-94db-1000e38b9d4a","019a7188-a63e-702f-9719-a711ecbd4f52","red","12000","","null","<div style=""display:flex;justify-content:center;align-items:center;"">
                     <img src=""images/causal/causal_series_8/causal_series_8_a.png"" style=""width:300px;height:300px;"">
                   </div>","null","start",""
"","","","","","html-button-response","61","194945","0.0-6.1-8.1-1.1","8DFA07C880FC4350BCAE8401C5098747","019a7198-2f1d-7a8e-94db-1000e38b9d4a","019a7188-a63e-702f-9719-a711ecbd4f52","red","12000","","894","<p style=""font-size:22px;"">The next series offered is 
                        <span style=""color:red; font-weight:bold;"">RED</span>.</p>
                      <p>The red series shows a sequence of unrelated events with no causal link.</p>
                      <p>If you choose to view, you will need to wait <b>12 seconds</b> before seeing the next images.</p>
                      <p>Would you like to view or skip?</p>","1","offer_choice","skip"
"","","","","","html-keyboard-response","62","196951","0.0-6.1-8.1-5.1-0.1","8DFA07C880FC4350BCAE8401C5098747","019a7198-2f1d-7a8e-94db-1000e38b9d4a","019a7188-a63e-702f-9719-a711ecbd4f52","red","12000","","null","<p style=""font-size:22px;"">Skipping to the next round...</p>","null","skip_screen",""
"","","","","","html-keyboard-response","63","202953","0.0-6.1-9.1-0.1","8DFA07C880FC4350BCAE8401C5098747","019a7198-2f1d-7a8e-94db-1000e38b9d4a","019a7188-a63e-702f-9719-a711ecbd4f52","red","12000","","null","<div style=""display:flex;justify-content:center;align-items:center;"">
                     <img src=""images/causal/causal_series_10/causal_series_10_a.png"" style=""width:300px;height:300px;"">
                   </div>","null","start",""
"","","","","","html-button-response","64","203456","0.0-6.1-9.1-1.1","8DFA07C880FC4350BCAE8401C5098747","019a7198-2f1d-7a8e-94db-1000e38b9d4a","019a7188-a63e-702f-9719-a711ecbd4f52","red","12000","","502","<p style=""font-size:22px;"">The next series offered is 
                        <span style=""color:red; font-weight:bold;"">RED</span>.</p>
                      <p>The red series shows a sequence of unrelated events with no causal link.</p>
                      <p>If you choose to view, you will need to wait <b>12 seconds</b> before seeing the next images.</p>
                      <p>Would you like to view or skip?</p>","1","offer_choice","skip"
"","","","","","html-keyboard-response","65","205470","0.0-6.1-9.1-5.1-0.1","8DFA07C880FC4350BCAE8401C5098747","019a7198-2f1d-7a8e-94db-1000e38b9d4a","019a7188-a63e-702f-9719-a711ecbd4f52","red","12000","","null","<p style=""font-size:22px;"">Skipping to the next round...</p>","null","skip_screen",""
"","","","","","survey-text","66","211052","0.0-7.0","8DFA07C880FC4350BCAE8401C5098747","019a7198-2f1d-7a8e-94db-1000e38b9d4a","019a7188-a63e-702f-9719-a711ecbd4f52","red","12000","","5579","","{""Q0"":""No.""}","",""
"","","","","","html-button-response","67","215838","0.0-8.0","8DFA07C880FC4350BCAE8401C5098747","019a7198-2f1d-7a8e-94db-1000e38b9d4a","019a7188-a63e-702f-9719-a711ecbd4f52","red","12000","","4785","Which color deck showed facts that built on each other?","0","",""
"","","","","","html-button-response","68","216781","0.0-9.0","8DFA07C880FC4350BCAE8401C5098747","019a7198-2f1d-7a8e-94db-1000e38b9d4a","019a7188-a63e-702f-9719-a711ecbd4f52","red","12000","","943","Which color deck showed unrelated facts?","1","",""
"","","","","","html-button-response","69","219891","0.0-10.0","8DFA07C880FC4350BCAE8401C5098747","019a7198-2f1d-7a8e-94db-1000e38b9d4a","019a7188-a63e-702f-9719-a711ecbd4f52","red","12000","","3110","Which type of deck did you prefer overall?","1","",""
"","","","","","survey-text","70","227132","0.0-11.0","8DFA07C880FC4350BCAE8401C5098747","019a7198-2f1d-7a8e-94db-1000e38b9d4a","019a7188-a63e-702f-9719-a711ecbd4f52","red","12000","","7240","","{""Q0"":""It builds upon the fact.""}","",""
"","","","","","survey-text","71","231729","0.0-12.0","8DFA07C880FC4350BCAE8401C5098747","019a7198-2f1d-7a8e-94db-1000e38b9d4a","019a7188-a63e-702f-9719-a711ecbd4f52","red","12000","","4594","","{""Q0"":""Male"",""Q1"":""27""}","",""
"","","","","","instructions","72","234811","0.0-13.0","8DFA07C880FC4350BCAE8401C5098747","019a7198-2f1d-7a8e-94db-1000e38b9d4a","019a7188-a63e-702f-9719-a711ecbd4f52","red","12000","[{""page_index"":0,""viewing_time"":3081}]","3082","","","",""
