"success","timeout","failed_images","failed_audio","failed_video","trial_type","trial_index","time_elapsed","internal_node_id","subject_id","study_id","session_id","view_history","rt","stimulus","response","choice"
"true","false","[]","[]","[]","preload","0","4319","0.0-0.0","8BA11DD0CBCB40758AFC1B6D41753F67","5499e89f-ee24-435b-a4a0-c1b383cfdff0","61e1ec61-13c7-4a8f-bf47-a91ec9909364","","","","",""
"","","","","","instructions","1","6935","0.0-1.0","8BA11DD0CBCB40758AFC1B6D41753F67","5499e89f-ee24-435b-a4a0-c1b383cfdff0","61e1ec61-13c7-4a8f-bf47-a91ec9909364","[{""page_index"":0,""viewing_time"":2615}]","2616","","",""
"","","","","","instructions","2","46127","0.0-2.0","8BA11DD0CBCB40758AFC1B6D41753F67","5499e89f-ee24-435b-a4a0-c1b383cfdff0","61e1ec61-13c7-4a8f-bf47-a91ec9909364","[{""page_index"":0,""viewing_time"":39192}]","39192","","",""
"true","","","","","fullscreen","3","51114","0.0-3.0","8BA11DD0CBCB40758AFC1B6D41753F67","5499e89f-ee24-435b-a4a0-c1b383cfdff0","61e1ec61-13c7-4a8f-bf47-a91ec9909364","","3971","","",""
"","","","","","instructions","4","63762","0.0-4.0","8BA11DD0CBCB40758AFC1B6D41753F67","5499e89f-ee24-435b-a4a0-c1b383cfdff0","61e1ec61-13c7-4a8f-bf47-a91ec9909364","[{""page_index"":0,""viewing_time"":12647}]","12647","","",""
"","","","","","html-keyboard-response","5","66774","0.0-5.0","8BA11DD0CBCB40758AFC1B6D41753F67","5499e89f-ee24-435b-a4a0-c1b383cfdff0","61e1ec61-13c7-4a8f-bf47-a91ec9909364","","null","<div style=""display: flex; justify-content: center; align-items: center;"">
                <img src=""images/causal/causal_series_1/causal_series_1_a.jpg"" style=""width: 300px; height: 300px;"" />
              </div>","null",""
"","","","","","html-keyboard-response","6","69789","0.0-6.0","8BA11DD0CBCB40758AFC1B6D41753F67","5499e89f-ee24-435b-a4a0-c1b383cfdff0","61e1ec61-13c7-4a8f-bf47-a91ec9909364","","null","<div style=""display: flex; justify-content: center; align-items: center;"">
                <img src=""images/causal/causal_series_1/causal_series_1_b.jpg"" style=""width: 300px; height: 300px;"" />
              </div>","null",""
"","","","","","html-keyboard-response","7","72795","0.0-7.0","8BA11DD0CBCB40758AFC1B6D41753F67","5499e89f-ee24-435b-a4a0-c1b383cfdff0","61e1ec61-13c7-4a8f-bf47-a91ec9909364","","null","<div style=""display: flex; justify-content: center; align-items: center;"">
                <img src=""images/causal/causal_series_1/causal_series_1_c.jpg"" style=""width: 300px; height: 300px;"" />
              </div>","null",""
"","","","","","html-button-response","8","76365","0.0-8.0","8BA11DD0CBCB40758AFC1B6D41753F67","5499e89f-ee24-435b-a4a0-c1b383cfdff0","61e1ec61-13c7-4a8f-bf47-a91ec9909364","","3568","
    <div style=""display: flex; justify-content: center; align-items: center;"">
      <img src=""images/red_deck_2.png"" style=""width: 300px; height: 300px; margin-right: 10px;"" />
      <img src=""images/blue_deck_1.png"" style=""width: 300px; height: 300px;"" />
    </div>","1","1"
"","","","","","html-keyboard-response","9","79370","0.0-9.0-1.0-0.0","8BA11DD0CBCB40758AFC1B6D41753F67","5499e89f-ee24-435b-a4a0-c1b383cfdff0","61e1ec61-13c7-4a8f-bf47-a91ec9909364","","null","<div style=""display: flex; justify-content: center; align-items: center;"">
                <img src=""images/semantic/semantic_series_18/semantic_series_18_d.jpg"" style=""width: 300px; height: 300px;"" />
              </div>","null",""
"","","","","","html-keyboard-response","10","82375","0.0-10.0","8BA11DD0CBCB40758AFC1B6D41753F67","5499e89f-ee24-435b-a4a0-c1b383cfdff0","61e1ec61-13c7-4a8f-bf47-a91ec9909364","","null","<div style=""display: flex; justify-content: center; align-items: center;"">
                <img src=""images/other/blank.jpg"" style=""width: 300px; height: 300px;"" />
              </div>","null",""
"","","","","","html-keyboard-response","11","85390","0.0-11.0","8BA11DD0CBCB40758AFC1B6D41753F67","5499e89f-ee24-435b-a4a0-c1b383cfdff0","61e1ec61-13c7-4a8f-bf47-a91ec9909364","","null","<div style=""display: flex; justify-content: center; align-items: center;"">
                <img src=""images/causal/causal_series_9/causal_series_9_a.jpg"" style=""width: 300px; height: 300px;"" />
              </div>","null",""
"","","","","","html-keyboard-response","12","88404","0.0-12.0","8BA11DD0CBCB40758AFC1B6D41753F67","5499e89f-ee24-435b-a4a0-c1b383cfdff0","61e1ec61-13c7-4a8f-bf47-a91ec9909364","","null","<div style=""display: flex; justify-content: center; align-items: center;"">
                <img src=""images/causal/causal_series_9/causal_series_9_b.jpg"" style=""width: 300px; height: 300px;"" />
              </div>","null",""
"","","","","","html-keyboard-response","13","91414","0.0-13.0","8BA11DD0CBCB40758AFC1B6D41753F67","5499e89f-ee24-435b-a4a0-c1b383cfdff0","61e1ec61-13c7-4a8f-bf47-a91ec9909364","","null","<div style=""display: flex; justify-content: center; align-items: center;"">
                <img src=""images/causal/causal_series_9/causal_series_9_c.jpg"" style=""width: 300px; height: 300px;"" />
              </div>","null",""
"","","","","","html-button-response","14","93970","0.0-14.0","8BA11DD0CBCB40758AFC1B6D41753F67","5499e89f-ee24-435b-a4a0-c1b383cfdff0","61e1ec61-13c7-4a8f-bf47-a91ec9909364","","2555","
    <div style=""display: flex; justify-content: center; align-items: center;"">
      <img src=""images/red_deck_2.png"" style=""width: 300px; height: 300px; margin-right: 10px;"" />
      <img src=""images/blue_deck_1.png"" style=""width: 300px; height: 300px;"" />
    </div>","1","1"
"","","","","","html-keyboard-response","15","96980","0.0-15.0-1.0-0.0","8BA11DD0CBCB40758AFC1B6D41753F67","5499e89f-ee24-435b-a4a0-c1b383cfdff0","61e1ec61-13c7-4a8f-bf47-a91ec9909364","","null","<div style=""display: flex; justify-content: center; align-items: center;"">
                <img src=""images/semantic/semantic_series_8/semantic_series_8_d.jpg"" style=""width: 300px; height: 300px;"" />
              </div>","null",""
"","","","","","html-keyboard-response","16","99985","0.0-16.0","8BA11DD0CBCB40758AFC1B6D41753F67","5499e89f-ee24-435b-a4a0-c1b383cfdff0","61e1ec61-13c7-4a8f-bf47-a91ec9909364","","null","<div style=""display: flex; justify-content: center; align-items: center;"">
                <img src=""images/other/blank.jpg"" style=""width: 300px; height: 300px;"" />
              </div>","null",""
"","","","","","html-keyboard-response","17","102987","0.0-17.0","8BA11DD0CBCB40758AFC1B6D41753F67","5499e89f-ee24-435b-a4a0-c1b383cfdff0","61e1ec61-13c7-4a8f-bf47-a91ec9909364","","null","<div style=""display: flex; justify-content: center; align-items: center;"">
                <img src=""images/causal/causal_series_10/causal_series_10_a.jpg"" style=""width: 300px; height: 300px;"" />
              </div>","null",""
"","","","","","html-keyboard-response","18","105996","0.0-18.0","8BA11DD0CBCB40758AFC1B6D41753F67","5499e89f-ee24-435b-a4a0-c1b383cfdff0","61e1ec61-13c7-4a8f-bf47-a91ec9909364","","null","<div style=""display: flex; justify-content: center; align-items: center;"">
                <img src=""images/causal/causal_series_10/causal_series_10_b.jpg"" style=""width: 300px; height: 300px;"" />
              </div>","null",""
"","","","","","html-keyboard-response","19","109005","0.0-19.0","8BA11DD0CBCB40758AFC1B6D41753F67","5499e89f-ee24-435b-a4a0-c1b383cfdff0","61e1ec61-13c7-4a8f-bf47-a91ec9909364","","null","<div style=""display: flex; justify-content: center; align-items: center;"">
                <img src=""images/causal/causal_series_10/causal_series_10_c.jpg"" style=""width: 300px; height: 300px;"" />
              </div>","null",""
"","","","","","html-button-response","20","110179","0.0-20.0","8BA11DD0CBCB40758AFC1B6D41753F67","5499e89f-ee24-435b-a4a0-c1b383cfdff0","61e1ec61-13c7-4a8f-bf47-a91ec9909364","","1172","
    <div style=""display: flex; justify-content: center; align-items: center;"">
      <img src=""images/red_deck_2.png"" style=""width: 300px; height: 300px; margin-right: 10px;"" />
      <img src=""images/blue_deck_1.png"" style=""width: 300px; height: 300px;"" />
    </div>","0","0"
"","","","","","html-keyboard-response","21","113189","0.0-21.0-0.0-0.0","8BA11DD0CBCB40758AFC1B6D41753F67","5499e89f-ee24-435b-a4a0-c1b383cfdff0","61e1ec61-13c7-4a8f-bf47-a91ec9909364","","null","<div style=""display: flex; justify-content: center; align-items: center;"">
                <img src=""images/causal/causal_series_10/causal_series_10_d.jpg"" style=""width: 300px; height: 300px;"" />
              </div>","null",""
"","","","","","html-keyboard-response","22","116204","0.0-22.0","8BA11DD0CBCB40758AFC1B6D41753F67","5499e89f-ee24-435b-a4a0-c1b383cfdff0","61e1ec61-13c7-4a8f-bf47-a91ec9909364","","null","<div style=""display: flex; justify-content: center; align-items: center;"">
                <img src=""images/other/blank.jpg"" style=""width: 300px; height: 300px;"" />
              </div>","null",""
"","","","","","html-keyboard-response","23","119206","0.0-23.0","8BA11DD0CBCB40758AFC1B6D41753F67","5499e89f-ee24-435b-a4a0-c1b383cfdff0","61e1ec61-13c7-4a8f-bf47-a91ec9909364","","null","<div style=""display: flex; justify-content: center; align-items: center;"">
                <img src=""images/causal/causal_series_7/causal_series_7_a.jpg"" style=""width: 300px; height: 300px;"" />
              </div>","null",""
"","","","","","html-keyboard-response","24","122207","0.0-24.0","8BA11DD0CBCB40758AFC1B6D41753F67","5499e89f-ee24-435b-a4a0-c1b383cfdff0","61e1ec61-13c7-4a8f-bf47-a91ec9909364","","null","<div style=""display: flex; justify-content: center; align-items: center;"">
                <img src=""images/causal/causal_series_7/causal_series_7_b.jpg"" style=""width: 300px; height: 300px;"" />
              </div>","null",""
"","","","","","html-keyboard-response","25","125215","0.0-25.0","8BA11DD0CBCB40758AFC1B6D41753F67","5499e89f-ee24-435b-a4a0-c1b383cfdff0","61e1ec61-13c7-4a8f-bf47-a91ec9909364","","null","<div style=""display: flex; justify-content: center; align-items: center;"">
                <img src=""images/causal/causal_series_7/causal_series_7_c.jpg"" style=""width: 300px; height: 300px;"" />
              </div>","null",""
"","","","","","html-button-response","26","126153","0.0-26.0","8BA11DD0CBCB40758AFC1B6D41753F67","5499e89f-ee24-435b-a4a0-c1b383cfdff0","61e1ec61-13c7-4a8f-bf47-a91ec9909364","","936","
    <div style=""display: flex; justify-content: center; align-items: center;"">
      <img src=""images/red_deck_2.png"" style=""width: 300px; height: 300px; margin-right: 10px;"" />
      <img src=""images/blue_deck_1.png"" style=""width: 300px; height: 300px;"" />
    </div>","0","0"
"","","","","","html-keyboard-response","27","129156","0.0-27.0-0.0-0.0","8BA11DD0CBCB40758AFC1B6D41753F67","5499e89f-ee24-435b-a4a0-c1b383cfdff0","61e1ec61-13c7-4a8f-bf47-a91ec9909364","","null","<div style=""display: flex; justify-content: center; align-items: center;"">
                <img src=""images/causal/causal_series_7/causal_series_7_d.jpg"" style=""width: 300px; height: 300px;"" />
              </div>","null",""
"","","","","","html-keyboard-response","28","132162","0.0-28.0","8BA11DD0CBCB40758AFC1B6D41753F67","5499e89f-ee24-435b-a4a0-c1b383cfdff0","61e1ec61-13c7-4a8f-bf47-a91ec9909364","","null","<div style=""display: flex; justify-content: center; align-items: center;"">
                <img src=""images/other/blank.jpg"" style=""width: 300px; height: 300px;"" />
              </div>","null",""
"","","","","","html-keyboard-response","29","135171","0.0-29.0","8BA11DD0CBCB40758AFC1B6D41753F67","5499e89f-ee24-435b-a4a0-c1b383cfdff0","61e1ec61-13c7-4a8f-bf47-a91ec9909364","","null","<div style=""display: flex; justify-content: center; align-items: center;"">
                <img src=""images/causal/causal_series_13/causal_series_13_a.jpg"" style=""width: 300px; height: 300px;"" />
              </div>","null",""
"","","","","","html-keyboard-response","30","138178","0.0-30.0","8BA11DD0CBCB40758AFC1B6D41753F67","5499e89f-ee24-435b-a4a0-c1b383cfdff0","61e1ec61-13c7-4a8f-bf47-a91ec9909364","","null","<div style=""display: flex; justify-content: center; align-items: center;"">
                <img src=""images/causal/causal_series_13/causal_series_13_b.jpg"" style=""width: 300px; height: 300px;"" />
              </div>","null",""
"","","","","","html-keyboard-response","31","141191","0.0-31.0","8BA11DD0CBCB40758AFC1B6D41753F67","5499e89f-ee24-435b-a4a0-c1b383cfdff0","61e1ec61-13c7-4a8f-bf47-a91ec9909364","","null","<div style=""display: flex; justify-content: center; align-items: center;"">
                <img src=""images/causal/causal_series_13/causal_series_13_c.jpg"" style=""width: 300px; height: 300px;"" />
              </div>","null",""
"","","","","","html-button-response","32","142752","0.0-32.0","8BA11DD0CBCB40758AFC1B6D41753F67","5499e89f-ee24-435b-a4a0-c1b383cfdff0","61e1ec61-13c7-4a8f-bf47-a91ec9909364","","1560","
    <div style=""display: flex; justify-content: center; align-items: center;"">
      <img src=""images/red_deck_2.png"" style=""width: 300px; height: 300px; margin-right: 10px;"" />
      <img src=""images/blue_deck_1.png"" style=""width: 300px; height: 300px;"" />
    </div>","1","1"
"","","","","","html-keyboard-response","33","145760","0.0-33.0-1.0-0.0","8BA11DD0CBCB40758AFC1B6D41753F67","5499e89f-ee24-435b-a4a0-c1b383cfdff0","61e1ec61-13c7-4a8f-bf47-a91ec9909364","","null","<div style=""display: flex; justify-content: center; align-items: center;"">
                <img src=""images/semantic/semantic_series_12/semantic_series_12_d.jpg"" style=""width: 300px; height: 300px;"" />
              </div>","null",""
"","","","","","html-keyboard-response","34","148762","0.0-34.0","8BA11DD0CBCB40758AFC1B6D41753F67","5499e89f-ee24-435b-a4a0-c1b383cfdff0","61e1ec61-13c7-4a8f-bf47-a91ec9909364","","null","<div style=""display: flex; justify-content: center; align-items: center;"">
                <img src=""images/other/blank.jpg"" style=""width: 300px; height: 300px;"" />
              </div>","null",""
"","","","","","html-keyboard-response","35","151771","0.0-35.0","8BA11DD0CBCB40758AFC1B6D41753F67","5499e89f-ee24-435b-a4a0-c1b383cfdff0","61e1ec61-13c7-4a8f-bf47-a91ec9909364","","null","<div style=""display: flex; justify-content: center; align-items: center;"">
                <img src=""images/causal/causal_series_2/causal_series_2_a.jpg"" style=""width: 300px; height: 300px;"" />
              </div>","null",""
"","","","","","html-keyboard-response","36","154774","0.0-36.0","8BA11DD0CBCB40758AFC1B6D41753F67","5499e89f-ee24-435b-a4a0-c1b383cfdff0","61e1ec61-13c7-4a8f-bf47-a91ec9909364","","null","<div style=""display: flex; justify-content: center; align-items: center;"">
                <img src=""images/causal/causal_series_2/causal_series_2_b.jpg"" style=""width: 300px; height: 300px;"" />
              </div>","null",""
"","","","","","html-keyboard-response","37","157787","0.0-37.0","8BA11DD0CBCB40758AFC1B6D41753F67","5499e89f-ee24-435b-a4a0-c1b383cfdff0","61e1ec61-13c7-4a8f-bf47-a91ec9909364","","null","<div style=""display: flex; justify-content: center; align-items: center;"">
                <img src=""images/causal/causal_series_2/causal_series_2_c.jpg"" style=""width: 300px; height: 300px;"" />
              </div>","null",""
"","","","","","html-button-response","38","160167","0.0-38.0","8BA11DD0CBCB40758AFC1B6D41753F67","5499e89f-ee24-435b-a4a0-c1b383cfdff0","61e1ec61-13c7-4a8f-bf47-a91ec9909364","","2378","
    <div style=""display: flex; justify-content: center; align-items: center;"">
      <img src=""images/red_deck_2.png"" style=""width: 300px; height: 300px; margin-right: 10px;"" />
      <img src=""images/blue_deck_1.png"" style=""width: 300px; height: 300px;"" />
    </div>","0","0"
"","","","","","html-keyboard-response","39","163180","0.0-39.0-0.0-0.0","8BA11DD0CBCB40758AFC1B6D41753F67","5499e89f-ee24-435b-a4a0-c1b383cfdff0","61e1ec61-13c7-4a8f-bf47-a91ec9909364","","null","<div style=""display: flex; justify-content: center; align-items: center;"">
                <img src=""images/causal/causal_series_2/causal_series_2_d.jpg"" style=""width: 300px; height: 300px;"" />
              </div>","null",""
"","","","","","html-keyboard-response","40","166190","0.0-40.0","8BA11DD0CBCB40758AFC1B6D41753F67","5499e89f-ee24-435b-a4a0-c1b383cfdff0","61e1ec61-13c7-4a8f-bf47-a91ec9909364","","null","<div style=""display: flex; justify-content: center; align-items: center;"">
                <img src=""images/other/blank.jpg"" style=""width: 300px; height: 300px;"" />
              </div>","null",""
"","","","","","html-keyboard-response","41","169203","0.0-41.0","8BA11DD0CBCB40758AFC1B6D41753F67","5499e89f-ee24-435b-a4a0-c1b383cfdff0","61e1ec61-13c7-4a8f-bf47-a91ec9909364","","null","<div style=""display: flex; justify-content: center; align-items: center;"">
                <img src=""images/causal/causal_series_16/causal_series_16_a.jpg"" style=""width: 300px; height: 300px;"" />
              </div>","null",""
"","","","","","html-keyboard-response","42","172206","0.0-42.0","8BA11DD0CBCB40758AFC1B6D41753F67","5499e89f-ee24-435b-a4a0-c1b383cfdff0","61e1ec61-13c7-4a8f-bf47-a91ec9909364","","null","<div style=""display: flex; justify-content: center; align-items: center;"">
                <img src=""images/causal/causal_series_16/causal_series_16_b.jpg"" style=""width: 300px; height: 300px;"" />
              </div>","null",""
"","","","","","html-keyboard-response","43","175214","0.0-43.0","8BA11DD0CBCB40758AFC1B6D41753F67","5499e89f-ee24-435b-a4a0-c1b383cfdff0","61e1ec61-13c7-4a8f-bf47-a91ec9909364","","null","<div style=""display: flex; justify-content: center; align-items: center;"">
                <img src=""images/causal/causal_series_16/causal_series_16_c.jpg"" style=""width: 300px; height: 300px;"" />
              </div>","null",""
"","","","","","html-button-response","44","176547","0.0-44.0","8BA11DD0CBCB40758AFC1B6D41753F67","5499e89f-ee24-435b-a4a0-c1b383cfdff0","61e1ec61-13c7-4a8f-bf47-a91ec9909364","","1332","
    <div style=""display: flex; justify-content: center; align-items: center;"">
      <img src=""images/red_deck_2.png"" style=""width: 300px; height: 300px; margin-right: 10px;"" />
      <img src=""images/blue_deck_1.png"" style=""width: 300px; height: 300px;"" />
    </div>","1","1"
"","","","","","html-keyboard-response","45","179554","0.0-45.0-1.0-0.0","8BA11DD0CBCB40758AFC1B6D41753F67","5499e89f-ee24-435b-a4a0-c1b383cfdff0","61e1ec61-13c7-4a8f-bf47-a91ec9909364","","null","<div style=""display: flex; justify-content: center; align-items: center;"">
                <img src=""images/semantic/semantic_series_15/semantic_series_15_d.jpg"" style=""width: 300px; height: 300px;"" />
              </div>","null",""
"","","","","","html-keyboard-response","46","182557","0.0-46.0","8BA11DD0CBCB40758AFC1B6D41753F67","5499e89f-ee24-435b-a4a0-c1b383cfdff0","61e1ec61-13c7-4a8f-bf47-a91ec9909364","","null","<div style=""display: flex; justify-content: center; align-items: center;"">
                <img src=""images/other/blank.jpg"" style=""width: 300px; height: 300px;"" />
              </div>","null",""
"","","","","","html-keyboard-response","47","185563","0.0-47.0","8BA11DD0CBCB40758AFC1B6D41753F67","5499e89f-ee24-435b-a4a0-c1b383cfdff0","61e1ec61-13c7-4a8f-bf47-a91ec9909364","","null","<div style=""display: flex; justify-content: center; align-items: center;"">
                <img src=""images/causal/causal_series_3/causal_series_3_a.jpg"" style=""width: 300px; height: 300px;"" />
              </div>","null",""
"","","","","","html-keyboard-response","48","188575","0.0-48.0","8BA11DD0CBCB40758AFC1B6D41753F67","5499e89f-ee24-435b-a4a0-c1b383cfdff0","61e1ec61-13c7-4a8f-bf47-a91ec9909364","","null","<div style=""display: flex; justify-content: center; align-items: center;"">
                <img src=""images/causal/causal_series_3/causal_series_3_b.jpg"" style=""width: 300px; height: 300px;"" />
              </div>","null",""
"","","","","","html-keyboard-response","49","191578","0.0-49.0","8BA11DD0CBCB40758AFC1B6D41753F67","5499e89f-ee24-435b-a4a0-c1b383cfdff0","61e1ec61-13c7-4a8f-bf47-a91ec9909364","","null","<div style=""display: flex; justify-content: center; align-items: center;"">
                <img src=""images/causal/causal_series_3/causal_series_3_c.jpg"" style=""width: 300px; height: 300px;"" />
              </div>","null",""
"","","","","","html-button-response","50","193352","0.0-50.0","8BA11DD0CBCB40758AFC1B6D41753F67","5499e89f-ee24-435b-a4a0-c1b383cfdff0","61e1ec61-13c7-4a8f-bf47-a91ec9909364","","1772","
    <div style=""display: flex; justify-content: center; align-items: center;"">
      <img src=""images/red_deck_2.png"" style=""width: 300px; height: 300px; margin-right: 10px;"" />
      <img src=""images/blue_deck_1.png"" style=""width: 300px; height: 300px;"" />
    </div>","0","0"
"","","","","","html-keyboard-response","51","196360","0.0-51.0-0.0-0.0","8BA11DD0CBCB40758AFC1B6D41753F67","5499e89f-ee24-435b-a4a0-c1b383cfdff0","61e1ec61-13c7-4a8f-bf47-a91ec9909364","","null","<div style=""display: flex; justify-content: center; align-items: center;"">
                <img src=""images/causal/causal_series_3/causal_series_3_d.jpg"" style=""width: 300px; height: 300px;"" />
              </div>","null",""
"","","","","","html-keyboard-response","52","199373","0.0-52.0","8BA11DD0CBCB40758AFC1B6D41753F67","5499e89f-ee24-435b-a4a0-c1b383cfdff0","61e1ec61-13c7-4a8f-bf47-a91ec9909364","","null","<div style=""display: flex; justify-content: center; align-items: center;"">
                <img src=""images/other/blank.jpg"" style=""width: 300px; height: 300px;"" />
              </div>","null",""
"","","","","","html-keyboard-response","53","202390","0.0-53.0","8BA11DD0CBCB40758AFC1B6D41753F67","5499e89f-ee24-435b-a4a0-c1b383cfdff0","61e1ec61-13c7-4a8f-bf47-a91ec9909364","","null","<div style=""display: flex; justify-content: center; align-items: center;"">
                <img src=""images/causal/causal_series_18/causal_series_18_a.jpg"" style=""width: 300px; height: 300px;"" />
              </div>","null",""
"","","","","","html-keyboard-response","54","205407","0.0-54.0","8BA11DD0CBCB40758AFC1B6D41753F67","5499e89f-ee24-435b-a4a0-c1b383cfdff0","61e1ec61-13c7-4a8f-bf47-a91ec9909364","","null","<div style=""display: flex; justify-content: center; align-items: center;"">
                <img src=""images/causal/causal_series_18/causal_series_18_b.jpg"" style=""width: 300px; height: 300px;"" />
              </div>","null",""
"","","","","","html-keyboard-response","55","208412","0.0-55.0","8BA11DD0CBCB40758AFC1B6D41753F67","5499e89f-ee24-435b-a4a0-c1b383cfdff0","61e1ec61-13c7-4a8f-bf47-a91ec9909364","","null","<div style=""display: flex; justify-content: center; align-items: center;"">
                <img src=""images/causal/causal_series_18/causal_series_18_c.jpg"" style=""width: 300px; height: 300px;"" />
              </div>","null",""
"","","","","","html-button-response","56","209353","0.0-56.0","8BA11DD0CBCB40758AFC1B6D41753F67","5499e89f-ee24-435b-a4a0-c1b383cfdff0","61e1ec61-13c7-4a8f-bf47-a91ec9909364","","939","
    <div style=""display: flex; justify-content: center; align-items: center;"">
      <img src=""images/red_deck_2.png"" style=""width: 300px; height: 300px; margin-right: 10px;"" />
      <img src=""images/blue_deck_1.png"" style=""width: 300px; height: 300px;"" />
    </div>","1","1"
"","","","","","html-keyboard-response","57","212357","0.0-57.0-1.0-0.0","8BA11DD0CBCB40758AFC1B6D41753F67","5499e89f-ee24-435b-a4a0-c1b383cfdff0","61e1ec61-13c7-4a8f-bf47-a91ec9909364","","null","<div style=""display: flex; justify-content: center; align-items: center;"">
                <img src=""images/semantic/semantic_series_17/semantic_series_17_d.jpg"" style=""width: 300px; height: 300px;"" />
              </div>","null",""
"","","","","","html-keyboard-response","58","215369","0.0-58.0","8BA11DD0CBCB40758AFC1B6D41753F67","5499e89f-ee24-435b-a4a0-c1b383cfdff0","61e1ec61-13c7-4a8f-bf47-a91ec9909364","","null","<div style=""display: flex; justify-content: center; align-items: center;"">
                <img src=""images/other/blank.jpg"" style=""width: 300px; height: 300px;"" />
              </div>","null",""
"","","","","","html-keyboard-response","59","218379","0.0-59.0","8BA11DD0CBCB40758AFC1B6D41753F67","5499e89f-ee24-435b-a4a0-c1b383cfdff0","61e1ec61-13c7-4a8f-bf47-a91ec9909364","","null","<div style=""display: flex; justify-content: center; align-items: center;"">
                <img src=""images/causal/causal_series_11/causal_series_11_a.jpg"" style=""width: 300px; height: 300px;"" />
              </div>","null",""
"","","","","","html-keyboard-response","60","221389","0.0-60.0","8BA11DD0CBCB40758AFC1B6D41753F67","5499e89f-ee24-435b-a4a0-c1b383cfdff0","61e1ec61-13c7-4a8f-bf47-a91ec9909364","","null","<div style=""display: flex; justify-content: center; align-items: center;"">
                <img src=""images/causal/causal_series_11/causal_series_11_b.jpg"" style=""width: 300px; height: 300px;"" />
              </div>","null",""
"","","","","","html-keyboard-response","61","224405","0.0-61.0","8BA11DD0CBCB40758AFC1B6D41753F67","5499e89f-ee24-435b-a4a0-c1b383cfdff0","61e1ec61-13c7-4a8f-bf47-a91ec9909364","","null","<div style=""display: flex; justify-content: center; align-items: center;"">
                <img src=""images/causal/causal_series_11/causal_series_11_c.jpg"" style=""width: 300px; height: 300px;"" />
              </div>","null",""
"","","","","","html-button-response","62","226009","0.0-62.0","8BA11DD0CBCB40758AFC1B6D41753F67","5499e89f-ee24-435b-a4a0-c1b383cfdff0","61e1ec61-13c7-4a8f-bf47-a91ec9909364","","1603","
    <div style=""display: flex; justify-content: center; align-items: center;"">
      <img src=""images/red_deck_2.png"" style=""width: 300px; height: 300px; margin-right: 10px;"" />
      <img src=""images/blue_deck_1.png"" style=""width: 300px; height: 300px;"" />
    </div>","1","1"
"","","","","","html-keyboard-response","63","229011","0.0-63.0-1.0-0.0","8BA11DD0CBCB40758AFC1B6D41753F67","5499e89f-ee24-435b-a4a0-c1b383cfdff0","61e1ec61-13c7-4a8f-bf47-a91ec9909364","","null","<div style=""display: flex; justify-content: center; align-items: center;"">
                <img src=""images/semantic/semantic_series_10/semantic_series_10_d.jpg"" style=""width: 300px; height: 300px;"" />
              </div>","null",""
"","","","","","html-keyboard-response","64","232019","0.0-64.0","8BA11DD0CBCB40758AFC1B6D41753F67","5499e89f-ee24-435b-a4a0-c1b383cfdff0","61e1ec61-13c7-4a8f-bf47-a91ec9909364","","null","<div style=""display: flex; justify-content: center; align-items: center;"">
                <img src=""images/other/blank.jpg"" style=""width: 300px; height: 300px;"" />
              </div>","null",""
"","","","","","html-keyboard-response","65","235035","0.0-65.0","8BA11DD0CBCB40758AFC1B6D41753F67","5499e89f-ee24-435b-a4a0-c1b383cfdff0","61e1ec61-13c7-4a8f-bf47-a91ec9909364","","null","<div style=""display: flex; justify-content: center; align-items: center;"">
                <img src=""images/causal/causal_series_8/causal_series_8_a.jpg"" style=""width: 300px; height: 300px;"" />
              </div>","null",""
"","","","","","html-keyboard-response","66","238048","0.0-66.0","8BA11DD0CBCB40758AFC1B6D41753F67","5499e89f-ee24-435b-a4a0-c1b383cfdff0","61e1ec61-13c7-4a8f-bf47-a91ec9909364","","null","<div style=""display: flex; justify-content: center; align-items: center;"">
                <img src=""images/causal/causal_series_8/causal_series_8_b.jpg"" style=""width: 300px; height: 300px;"" />
              </div>","null",""
"","","","","","html-keyboard-response","67","241051","0.0-67.0","8BA11DD0CBCB40758AFC1B6D41753F67","5499e89f-ee24-435b-a4a0-c1b383cfdff0","61e1ec61-13c7-4a8f-bf47-a91ec9909364","","null","<div style=""display: flex; justify-content: center; align-items: center;"">
                <img src=""images/causal/causal_series_8/causal_series_8_c.jpg"" style=""width: 300px; height: 300px;"" />
              </div>","null",""
"","","","","","html-button-response","68","241824","0.0-68.0","8BA11DD0CBCB40758AFC1B6D41753F67","5499e89f-ee24-435b-a4a0-c1b383cfdff0","61e1ec61-13c7-4a8f-bf47-a91ec9909364","","771","
    <div style=""display: flex; justify-content: center; align-items: center;"">
      <img src=""images/red_deck_2.png"" style=""width: 300px; height: 300px; margin-right: 10px;"" />
      <img src=""images/blue_deck_1.png"" style=""width: 300px; height: 300px;"" />
    </div>","1","1"
"","","","","","html-keyboard-response","69","244839","0.0-69.0-1.0-0.0","8BA11DD0CBCB40758AFC1B6D41753F67","5499e89f-ee24-435b-a4a0-c1b383cfdff0","61e1ec61-13c7-4a8f-bf47-a91ec9909364","","null","<div style=""display: flex; justify-content: center; align-items: center;"">
                <img src=""images/semantic/semantic_series_7/semantic_series_7_d.jpg"" style=""width: 300px; height: 300px;"" />
              </div>","null",""
"","","","","","html-keyboard-response","70","247843","0.0-70.0","8BA11DD0CBCB40758AFC1B6D41753F67","5499e89f-ee24-435b-a4a0-c1b383cfdff0","61e1ec61-13c7-4a8f-bf47-a91ec9909364","","null","<div style=""display: flex; justify-content: center; align-items: center;"">
                <img src=""images/other/blank.jpg"" style=""width: 300px; height: 300px;"" />
              </div>","null",""
"","","","","","html-keyboard-response","71","250847","0.0-71.0","8BA11DD0CBCB40758AFC1B6D41753F67","5499e89f-ee24-435b-a4a0-c1b383cfdff0","61e1ec61-13c7-4a8f-bf47-a91ec9909364","","null","<div style=""display: flex; justify-content: center; align-items: center;"">
                <img src=""images/causal/causal_series_17/causal_series_17_a.jpg"" style=""width: 300px; height: 300px;"" />
              </div>","null",""
"","","","","","html-keyboard-response","72","253856","0.0-72.0","8BA11DD0CBCB40758AFC1B6D41753F67","5499e89f-ee24-435b-a4a0-c1b383cfdff0","61e1ec61-13c7-4a8f-bf47-a91ec9909364","","null","<div style=""display: flex; justify-content: center; align-items: center;"">
                <img src=""images/causal/causal_series_17/causal_series_17_b.jpg"" style=""width: 300px; height: 300px;"" />
              </div>","null",""
"","","","","","html-keyboard-response","73","256861","0.0-73.0","8BA11DD0CBCB40758AFC1B6D41753F67","5499e89f-ee24-435b-a4a0-c1b383cfdff0","61e1ec61-13c7-4a8f-bf47-a91ec9909364","","null","<div style=""display: flex; justify-content: center; align-items: center;"">
                <img src=""images/causal/causal_series_17/causal_series_17_c.jpg"" style=""width: 300px; height: 300px;"" />
              </div>","null",""
"","","","","","html-button-response","74","257861","0.0-74.0","8BA11DD0CBCB40758AFC1B6D41753F67","5499e89f-ee24-435b-a4a0-c1b383cfdff0","61e1ec61-13c7-4a8f-bf47-a91ec9909364","","1000","
    <div style=""display: flex; justify-content: center; align-items: center;"">
      <img src=""images/red_deck_2.png"" style=""width: 300px; height: 300px; margin-right: 10px;"" />
      <img src=""images/blue_deck_1.png"" style=""width: 300px; height: 300px;"" />
    </div>","1","1"
"","","","","","html-keyboard-response","75","260878","0.0-75.0-1.0-0.0","8BA11DD0CBCB40758AFC1B6D41753F67","5499e89f-ee24-435b-a4a0-c1b383cfdff0","61e1ec61-13c7-4a8f-bf47-a91ec9909364","","null","<div style=""display: flex; justify-content: center; align-items: center;"">
                <img src=""images/semantic/semantic_series_16/semantic_series_16_d.jpg"" style=""width: 300px; height: 300px;"" />
              </div>","null",""
"","","","","","html-keyboard-response","76","263891","0.0-76.0","8BA11DD0CBCB40758AFC1B6D41753F67","5499e89f-ee24-435b-a4a0-c1b383cfdff0","61e1ec61-13c7-4a8f-bf47-a91ec9909364","","null","<div style=""display: flex; justify-content: center; align-items: center;"">
                <img src=""images/other/blank.jpg"" style=""width: 300px; height: 300px;"" />
              </div>","null",""
"","","","","","html-keyboard-response","77","266902","0.0-77.0","8BA11DD0CBCB40758AFC1B6D41753F67","5499e89f-ee24-435b-a4a0-c1b383cfdff0","61e1ec61-13c7-4a8f-bf47-a91ec9909364","","null","<div style=""display: flex; justify-content: center; align-items: center;"">
                <img src=""images/causal/causal_series_4/causal_series_4_a.jpg"" style=""width: 300px; height: 300px;"" />
              </div>","null",""
"","","","","","html-keyboard-response","78","269903","0.0-78.0","8BA11DD0CBCB40758AFC1B6D41753F67","5499e89f-ee24-435b-a4a0-c1b383cfdff0","61e1ec61-13c7-4a8f-bf47-a91ec9909364","","null","<div style=""display: flex; justify-content: center; align-items: center;"">
                <img src=""images/causal/causal_series_4/causal_series_4_b.jpg"" style=""width: 300px; height: 300px;"" />
              </div>","null",""
"","","","","","html-keyboard-response","79","272904","0.0-79.0","8BA11DD0CBCB40758AFC1B6D41753F67","5499e89f-ee24-435b-a4a0-c1b383cfdff0","61e1ec61-13c7-4a8f-bf47-a91ec9909364","","null","<div style=""display: flex; justify-content: center; align-items: center;"">
                <img src=""images/causal/causal_series_4/causal_series_4_c.jpg"" style=""width: 300px; height: 300px;"" />
              </div>","null",""
"","","","","","html-button-response","80","274990","0.0-80.0","8BA11DD0CBCB40758AFC1B6D41753F67","5499e89f-ee24-435b-a4a0-c1b383cfdff0","61e1ec61-13c7-4a8f-bf47-a91ec9909364","","2086","
    <div style=""display: flex; justify-content: center; align-items: center;"">
      <img src=""images/red_deck_2.png"" style=""width: 300px; height: 300px; margin-right: 10px;"" />
      <img src=""images/blue_deck_1.png"" style=""width: 300px; height: 300px;"" />
    </div>","0","0"
"","","","","","html-keyboard-response","81","278002","0.0-81.0-0.0-0.0","8BA11DD0CBCB40758AFC1B6D41753F67","5499e89f-ee24-435b-a4a0-c1b383cfdff0","61e1ec61-13c7-4a8f-bf47-a91ec9909364","","null","<div style=""display: flex; justify-content: center; align-items: center;"">
                <img src=""images/causal/causal_series_4/causal_series_4_d.jpg"" style=""width: 300px; height: 300px;"" />
              </div>","null",""
"","","","","","html-keyboard-response","82","281013","0.0-82.0","8BA11DD0CBCB40758AFC1B6D41753F67","5499e89f-ee24-435b-a4a0-c1b383cfdff0","61e1ec61-13c7-4a8f-bf47-a91ec9909364","","null","<div style=""display: flex; justify-content: center; align-items: center;"">
                <img src=""images/other/blank.jpg"" style=""width: 300px; height: 300px;"" />
              </div>","null",""
"","","","","","html-keyboard-response","83","284023","0.0-83.0","8BA11DD0CBCB40758AFC1B6D41753F67","5499e89f-ee24-435b-a4a0-c1b383cfdff0","61e1ec61-13c7-4a8f-bf47-a91ec9909364","","null","<div style=""display: flex; justify-content: center; align-items: center;"">
                <img src=""images/causal/causal_series_6/causal_series_6_a.jpg"" style=""width: 300px; height: 300px;"" />
              </div>","null",""
"","","","","","html-keyboard-response","84","287031","0.0-84.0","8BA11DD0CBCB40758AFC1B6D41753F67","5499e89f-ee24-435b-a4a0-c1b383cfdff0","61e1ec61-13c7-4a8f-bf47-a91ec9909364","","null","<div style=""display: flex; justify-content: center; align-items: center;"">
                <img src=""images/causal/causal_series_6/causal_series_6_b.jpg"" style=""width: 300px; height: 300px;"" />
              </div>","null",""
"","","","","","html-keyboard-response","85","290032","0.0-85.0","8BA11DD0CBCB40758AFC1B6D41753F67","5499e89f-ee24-435b-a4a0-c1b383cfdff0","61e1ec61-13c7-4a8f-bf47-a91ec9909364","","null","<div style=""display: flex; justify-content: center; align-items: center;"">
                <img src=""images/causal/causal_series_6/causal_series_6_c.jpg"" style=""width: 300px; height: 300px;"" />
              </div>","null",""
"","","","","","html-button-response","86","290975","0.0-86.0","8BA11DD0CBCB40758AFC1B6D41753F67","5499e89f-ee24-435b-a4a0-c1b383cfdff0","61e1ec61-13c7-4a8f-bf47-a91ec9909364","","942","
    <div style=""display: flex; justify-content: center; align-items: center;"">
      <img src=""images/red_deck_2.png"" style=""width: 300px; height: 300px; margin-right: 10px;"" />
      <img src=""images/blue_deck_1.png"" style=""width: 300px; height: 300px;"" />
    </div>","0","0"
"","","","","","html-keyboard-response","87","293982","0.0-87.0-0.0-0.0","8BA11DD0CBCB40758AFC1B6D41753F67","5499e89f-ee24-435b-a4a0-c1b383cfdff0","61e1ec61-13c7-4a8f-bf47-a91ec9909364","","null","<div style=""display: flex; justify-content: center; align-items: center;"">
                <img src=""images/causal/causal_series_6/causal_series_6_d.jpg"" style=""width: 300px; height: 300px;"" />
              </div>","null",""
"","","","","","html-keyboard-response","88","296996","0.0-88.0","8BA11DD0CBCB40758AFC1B6D41753F67","5499e89f-ee24-435b-a4a0-c1b383cfdff0","61e1ec61-13c7-4a8f-bf47-a91ec9909364","","null","<div style=""display: flex; justify-content: center; align-items: center;"">
                <img src=""images/other/blank.jpg"" style=""width: 300px; height: 300px;"" />
              </div>","null",""
"","","","","","html-keyboard-response","89","299998","0.0-89.0","8BA11DD0CBCB40758AFC1B6D41753F67","5499e89f-ee24-435b-a4a0-c1b383cfdff0","61e1ec61-13c7-4a8f-bf47-a91ec9909364","","null","<div style=""display: flex; justify-content: center; align-items: center;"">
                <img src=""images/causal/causal_series_5/causal_series_5_a.jpg"" style=""width: 300px; height: 300px;"" />
              </div>","null",""
"","","","","","html-keyboard-response","90","303000","0.0-90.0","8BA11DD0CBCB40758AFC1B6D41753F67","5499e89f-ee24-435b-a4a0-c1b383cfdff0","61e1ec61-13c7-4a8f-bf47-a91ec9909364","","null","<div style=""display: flex; justify-content: center; align-items: center;"">
                <img src=""images/causal/causal_series_5/causal_series_5_b.jpg"" style=""width: 300px; height: 300px;"" />
              </div>","null",""
"","","","","","html-keyboard-response","91","306017","0.0-91.0","8BA11DD0CBCB40758AFC1B6D41753F67","5499e89f-ee24-435b-a4a0-c1b383cfdff0","61e1ec61-13c7-4a8f-bf47-a91ec9909364","","null","<div style=""display: flex; justify-content: center; align-items: center;"">
                <img src=""images/causal/causal_series_5/causal_series_5_c.jpg"" style=""width: 300px; height: 300px;"" />
              </div>","null",""
"","","","","","html-button-response","92","310317","0.0-92.0","8BA11DD0CBCB40758AFC1B6D41753F67","5499e89f-ee24-435b-a4a0-c1b383cfdff0","61e1ec61-13c7-4a8f-bf47-a91ec9909364","","4298","
    <div style=""display: flex; justify-content: center; align-items: center;"">
      <img src=""images/red_deck_2.png"" style=""width: 300px; height: 300px; margin-right: 10px;"" />
      <img src=""images/blue_deck_1.png"" style=""width: 300px; height: 300px;"" />
    </div>","1","1"
"","","","","","html-keyboard-response","93","313325","0.0-93.0-1.0-0.0","8BA11DD0CBCB40758AFC1B6D41753F67","5499e89f-ee24-435b-a4a0-c1b383cfdff0","61e1ec61-13c7-4a8f-bf47-a91ec9909364","","null","<div style=""display: flex; justify-content: center; align-items: center;"">
                <img src=""images/semantic/semantic_series_4/semantic_series_4_d.jpg"" style=""width: 300px; height: 300px;"" />
              </div>","null",""
"","","","","","html-keyboard-response","94","316335","0.0-94.0","8BA11DD0CBCB40758AFC1B6D41753F67","5499e89f-ee24-435b-a4a0-c1b383cfdff0","61e1ec61-13c7-4a8f-bf47-a91ec9909364","","null","<div style=""display: flex; justify-content: center; align-items: center;"">
                <img src=""images/other/blank.jpg"" style=""width: 300px; height: 300px;"" />
              </div>","null",""
"","","","","","html-keyboard-response","95","319350","0.0-95.0","8BA11DD0CBCB40758AFC1B6D41753F67","5499e89f-ee24-435b-a4a0-c1b383cfdff0","61e1ec61-13c7-4a8f-bf47-a91ec9909364","","null","<div style=""display: flex; justify-content: center; align-items: center;"">
                <img src=""images/causal/causal_series_15/causal_series_15_a.jpg"" style=""width: 300px; height: 300px;"" />
              </div>","null",""
"","","","","","html-keyboard-response","96","322352","0.0-96.0","8BA11DD0CBCB40758AFC1B6D41753F67","5499e89f-ee24-435b-a4a0-c1b383cfdff0","61e1ec61-13c7-4a8f-bf47-a91ec9909364","","null","<div style=""display: flex; justify-content: center; align-items: center;"">
                <img src=""images/causal/causal_series_15/causal_series_15_b.jpg"" style=""width: 300px; height: 300px;"" />
              </div>","null",""
"","","","","","html-keyboard-response","97","325354","0.0-97.0","8BA11DD0CBCB40758AFC1B6D41753F67","5499e89f-ee24-435b-a4a0-c1b383cfdff0","61e1ec61-13c7-4a8f-bf47-a91ec9909364","","null","<div style=""display: flex; justify-content: center; align-items: center;"">
                <img src=""images/causal/causal_series_15/causal_series_15_c.jpg"" style=""width: 300px; height: 300px;"" />
              </div>","null",""
"","","","","","html-button-response","98","326670","0.0-98.0","8BA11DD0CBCB40758AFC1B6D41753F67","5499e89f-ee24-435b-a4a0-c1b383cfdff0","61e1ec61-13c7-4a8f-bf47-a91ec9909364","","1315","
    <div style=""display: flex; justify-content: center; align-items: center;"">
      <img src=""images/red_deck_2.png"" style=""width: 300px; height: 300px; margin-right: 10px;"" />
      <img src=""images/blue_deck_1.png"" style=""width: 300px; height: 300px;"" />
    </div>","1","1"
"","","","","","html-keyboard-response","99","329681","0.0-99.0-1.0-0.0","8BA11DD0CBCB40758AFC1B6D41753F67","5499e89f-ee24-435b-a4a0-c1b383cfdff0","61e1ec61-13c7-4a8f-bf47-a91ec9909364","","null","<div style=""display: flex; justify-content: center; align-items: center;"">
                <img src=""images/semantic/semantic_series_14/semantic_series_14_d.jpg"" style=""width: 300px; height: 300px;"" />
              </div>","null",""
"","","","","","html-keyboard-response","100","332686","0.0-100.0","8BA11DD0CBCB40758AFC1B6D41753F67","5499e89f-ee24-435b-a4a0-c1b383cfdff0","61e1ec61-13c7-4a8f-bf47-a91ec9909364","","null","<div style=""display: flex; justify-content: center; align-items: center;"">
                <img src=""images/other/blank.jpg"" style=""width: 300px; height: 300px;"" />
              </div>","null",""
"","","","","","html-keyboard-response","101","335691","0.0-101.0","8BA11DD0CBCB40758AFC1B6D41753F67","5499e89f-ee24-435b-a4a0-c1b383cfdff0","61e1ec61-13c7-4a8f-bf47-a91ec9909364","","null","<div style=""display: flex; justify-content: center; align-items: center;"">
                <img src=""images/causal/causal_series_14/causal_series_14_a.jpg"" style=""width: 300px; height: 300px;"" />
              </div>","null",""
"","","","","","html-keyboard-response","102","338704","0.0-102.0","8BA11DD0CBCB40758AFC1B6D41753F67","5499e89f-ee24-435b-a4a0-c1b383cfdff0","61e1ec61-13c7-4a8f-bf47-a91ec9909364","","null","<div style=""display: flex; justify-content: center; align-items: center;"">
                <img src=""images/causal/causal_series_14/causal_series_14_b.jpg"" style=""width: 300px; height: 300px;"" />
              </div>","null",""
"","","","","","html-keyboard-response","103","341714","0.0-103.0","8BA11DD0CBCB40758AFC1B6D41753F67","5499e89f-ee24-435b-a4a0-c1b383cfdff0","61e1ec61-13c7-4a8f-bf47-a91ec9909364","","null","<div style=""display: flex; justify-content: center; align-items: center;"">
                <img src=""images/causal/causal_series_14/causal_series_14_c.jpg"" style=""width: 300px; height: 300px;"" />
              </div>","null",""
"","","","","","html-button-response","104","343932","0.0-104.0","8BA11DD0CBCB40758AFC1B6D41753F67","5499e89f-ee24-435b-a4a0-c1b383cfdff0","61e1ec61-13c7-4a8f-bf47-a91ec9909364","","2216","
    <div style=""display: flex; justify-content: center; align-items: center;"">
      <img src=""images/red_deck_2.png"" style=""width: 300px; height: 300px; margin-right: 10px;"" />
      <img src=""images/blue_deck_1.png"" style=""width: 300px; height: 300px;"" />
    </div>","0","0"
"","","","","","html-keyboard-response","105","346934","0.0-105.0-0.0-0.0","8BA11DD0CBCB40758AFC1B6D41753F67","5499e89f-ee24-435b-a4a0-c1b383cfdff0","61e1ec61-13c7-4a8f-bf47-a91ec9909364","","null","<div style=""display: flex; justify-content: center; align-items: center;"">
                <img src=""images/causal/causal_series_14/causal_series_14_d.jpg"" style=""width: 300px; height: 300px;"" />
              </div>","null",""
"","","","","","html-keyboard-response","106","349939","0.0-106.0","8BA11DD0CBCB40758AFC1B6D41753F67","5499e89f-ee24-435b-a4a0-c1b383cfdff0","61e1ec61-13c7-4a8f-bf47-a91ec9909364","","null","<div style=""display: flex; justify-content: center; align-items: center;"">
                <img src=""images/other/blank.jpg"" style=""width: 300px; height: 300px;"" />
              </div>","null",""
"","","","","","html-keyboard-response","107","352942","0.0-107.0","8BA11DD0CBCB40758AFC1B6D41753F67","5499e89f-ee24-435b-a4a0-c1b383cfdff0","61e1ec61-13c7-4a8f-bf47-a91ec9909364","","null","<div style=""display: flex; justify-content: center; align-items: center;"">
                <img src=""images/causal/causal_series_12/causal_series_12_a.jpg"" style=""width: 300px; height: 300px;"" />
              </div>","null",""
"","","","","","html-keyboard-response","108","355950","0.0-108.0","8BA11DD0CBCB40758AFC1B6D41753F67","5499e89f-ee24-435b-a4a0-c1b383cfdff0","61e1ec61-13c7-4a8f-bf47-a91ec9909364","","null","<div style=""display: flex; justify-content: center; align-items: center;"">
                <img src=""images/causal/causal_series_12/causal_series_12_b.jpg"" style=""width: 300px; height: 300px;"" />
              </div>","null",""
"","","","","","html-keyboard-response","109","358962","0.0-109.0","8BA11DD0CBCB40758AFC1B6D41753F67","5499e89f-ee24-435b-a4a0-c1b383cfdff0","61e1ec61-13c7-4a8f-bf47-a91ec9909364","","null","<div style=""display: flex; justify-content: center; align-items: center;"">
                <img src=""images/causal/causal_series_12/causal_series_12_c.jpg"" style=""width: 300px; height: 300px;"" />
              </div>","null",""
"","","","","","html-button-response","110","360138","0.0-110.0","8BA11DD0CBCB40758AFC1B6D41753F67","5499e89f-ee24-435b-a4a0-c1b383cfdff0","61e1ec61-13c7-4a8f-bf47-a91ec9909364","","1174","
    <div style=""display: flex; justify-content: center; align-items: center;"">
      <img src=""images/red_deck_2.png"" style=""width: 300px; height: 300px; margin-right: 10px;"" />
      <img src=""images/blue_deck_1.png"" style=""width: 300px; height: 300px;"" />
    </div>","0","0"
"","","","","","html-keyboard-response","111","363138","0.0-111.0-0.0-0.0","8BA11DD0CBCB40758AFC1B6D41753F67","5499e89f-ee24-435b-a4a0-c1b383cfdff0","61e1ec61-13c7-4a8f-bf47-a91ec9909364","","null","<div style=""display: flex; justify-content: center; align-items: center;"">
                <img src=""images/causal/causal_series_12/causal_series_12_d.jpg"" style=""width: 300px; height: 300px;"" />
              </div>","null",""
"","","","","","html-keyboard-response","112","366140","0.0-112.0","8BA11DD0CBCB40758AFC1B6D41753F67","5499e89f-ee24-435b-a4a0-c1b383cfdff0","61e1ec61-13c7-4a8f-bf47-a91ec9909364","","null","<div style=""display: flex; justify-content: center; align-items: center;"">
                <img src=""images/other/blank.jpg"" style=""width: 300px; height: 300px;"" />
              </div>","null",""
"","","","","","survey-text","113","398255","0.0-113.0","8BA11DD0CBCB40758AFC1B6D41753F67","5499e89f-ee24-435b-a4a0-c1b383cfdff0","61e1ec61-13c7-4a8f-bf47-a91ec9909364","","32108","","{""Q0"":""I cannot describe the difference rather than just sometimes confusion""}",""
"","","","","","survey-text","114","428567","0.0-114.0","8BA11DD0CBCB40758AFC1B6D41753F67","5499e89f-ee24-435b-a4a0-c1b383cfdff0","61e1ec61-13c7-4a8f-bf47-a91ec9909364","","30309","","{""Q0"":""I liked the drawn images more or whichever deck it was with those drawn images rather than AI usage""}",""
"","","","","","html-button-response","115","436385","0.0-115.0","8BA11DD0CBCB40758AFC1B6D41753F67","5499e89f-ee24-435b-a4a0-c1b383cfdff0","61e1ec61-13c7-4a8f-bf47-a91ec9909364","","7818","Which color deck does the fourth image continue the story from the series?","1",""
"","","","","","html-button-response","116","438838","0.0-116.0","8BA11DD0CBCB40758AFC1B6D41753F67","5499e89f-ee24-435b-a4a0-c1b383cfdff0","61e1ec61-13c7-4a8f-bf47-a91ec9909364","","2453","Which color deck does the fourth image not follow the story from the series?","0",""
"","","","","","survey-text","117","446794","0.0-117.0","8BA11DD0CBCB40758AFC1B6D41753F67","5499e89f-ee24-435b-a4a0-c1b383cfdff0","61e1ec61-13c7-4a8f-bf47-a91ec9909364","","7954","","{""Q0"":""FEMALE"",""Q1"":""21""}",""
"","","","","","instructions","118","450802","0.0-118.0","8BA11DD0CBCB40758AFC1B6D41753F67","5499e89f-ee24-435b-a4a0-c1b383cfdff0","61e1ec61-13c7-4a8f-bf47-a91ec9909364","[{""page_index"":0,""viewing_time"":4007}]","4008","","",""
