"success","timeout","failed_images","failed_audio","failed_video","trial_type","trial_index","time_elapsed","internal_node_id","subject_id","study_id","session_id","view_history","rt","stimulus","response","choice","question_order"
"true","false","[]","[]","[]","preload","0","2005","0.0-0.0","672F4DCD594B4E6E93C1B8F01099B197","0199d07d-e82e-7fa0-86b0-58e79f4882a0","0199d07a-b3b8-7ad8-bd6b-b36dd7b47ed6","","","","","",""
"","","","","","instructions","1","3707","0.0-1.0","672F4DCD594B4E6E93C1B8F01099B197","0199d07d-e82e-7fa0-86b0-58e79f4882a0","0199d07a-b3b8-7ad8-bd6b-b36dd7b47ed6","[{""page_index"":0,""viewing_time"":1701}]","1702","","","",""
"","","","","","instructions","2","6406","0.0-2.0","672F4DCD594B4E6E93C1B8F01099B197","0199d07d-e82e-7fa0-86b0-58e79f4882a0","0199d07a-b3b8-7ad8-bd6b-b36dd7b47ed6","[{""page_index"":0,""viewing_time"":2699}]","2699","","","",""
"true","","","","","fullscreen","3","8860","0.0-3.0","672F4DCD594B4E6E93C1B8F01099B197","0199d07d-e82e-7fa0-86b0-58e79f4882a0","0199d07a-b3b8-7ad8-bd6b-b36dd7b47ed6","","1447","","","",""
"","","","","","instructions","4","18911","0.0-4.0","672F4DCD594B4E6E93C1B8F01099B197","0199d07d-e82e-7fa0-86b0-58e79f4882a0","0199d07a-b3b8-7ad8-bd6b-b36dd7b47ed6","[{""page_index"":0,""viewing_time"":10050}]","10050","","","",""
"","","","","","html-keyboard-response","5","25928","0.0-5.0","672F4DCD594B4E6E93C1B8F01099B197","0199d07d-e82e-7fa0-86b0-58e79f4882a0","0199d07a-b3b8-7ad8-bd6b-b36dd7b47ed6","","null","<div style=""display: flex; justify-content: center; align-items: center;"">
                     <img src=""images/causal/causal_series_4/causal_series_4_a.png"" style=""width: 300px; height: 300px;"" />
                   </div>","null","",""
"","","","","","html-keyboard-response","6","32930","0.0-6.0","672F4DCD594B4E6E93C1B8F01099B197","0199d07d-e82e-7fa0-86b0-58e79f4882a0","0199d07a-b3b8-7ad8-bd6b-b36dd7b47ed6","","null","<div style=""display: flex; justify-content: center; align-items: center;"">
                     <img src=""images/causal/causal_series_4/causal_series_4_b.png"" style=""width: 300px; height: 300px;"" />
                   </div>","null","",""
"","","","","","html-keyboard-response","7","39940","0.0-7.0","672F4DCD594B4E6E93C1B8F01099B197","0199d07d-e82e-7fa0-86b0-58e79f4882a0","0199d07a-b3b8-7ad8-bd6b-b36dd7b47ed6","","null","<div style=""display: flex; justify-content: center; align-items: center;"">
                     <img src=""images/causal/causal_series_4/causal_series_4_c.png"" style=""width: 300px; height: 300px;"" />
                   </div>","null","",""
"","","","","","html-button-response","8","43236","0.0-8.0","672F4DCD594B4E6E93C1B8F01099B197","0199d07d-e82e-7fa0-86b0-58e79f4882a0","0199d07a-b3b8-7ad8-bd6b-b36dd7b47ed6","","3295","
        <div style=""display: flex; justify-content: center; align-items: center;"">
          <img src=""images/red_deck_2.png"" style=""width: 300px; height: 300px; margin-right: 10px;"" />
          <img src=""images/blue_deck_1.png"" style=""width: 300px; height: 300px;"" />
        </div>","1","1",""
"","","","","","html-keyboard-response","9","50250","0.0-9.0-1.0-0.0","672F4DCD594B4E6E93C1B8F01099B197","0199d07d-e82e-7fa0-86b0-58e79f4882a0","0199d07a-b3b8-7ad8-bd6b-b36dd7b47ed6","","null","<div style=""display: flex; justify-content: center; align-items: center;"">
                     <img src=""images/semantic/semantic_series_4/semantic_series_4_d.png"" style=""width: 300px; height: 300px;"" />
                   </div>","null","",""
"","","","","","survey-likert","10","57123","0.0-10.0","672F4DCD594B4E6E93C1B8F01099B197","0199d07d-e82e-7fa0-86b0-58e79f4882a0","0199d07a-b3b8-7ad8-bd6b-b36dd7b47ed6","","6871","","{""Q0"":0}","","[0]"
"","","","","","survey-likert","11","59715","0.0-11.0","672F4DCD594B4E6E93C1B8F01099B197","0199d07d-e82e-7fa0-86b0-58e79f4882a0","0199d07a-b3b8-7ad8-bd6b-b36dd7b47ed6","","2591","","{""Q0"":3}","","[0]"
"","","","","","html-keyboard-response","12","66727","0.0-12.0","672F4DCD594B4E6E93C1B8F01099B197","0199d07d-e82e-7fa0-86b0-58e79f4882a0","0199d07a-b3b8-7ad8-bd6b-b36dd7b47ed6","","null","<div style=""display: flex; justify-content: center; align-items: center;"">
                     <img src=""images/other/blank.png"" style=""width: 300px; height: 300px;"" />
                   </div>","null","",""
"","","","","","html-keyboard-response","13","73729","0.0-13.0","672F4DCD594B4E6E93C1B8F01099B197","0199d07d-e82e-7fa0-86b0-58e79f4882a0","0199d07a-b3b8-7ad8-bd6b-b36dd7b47ed6","","null","<div style=""display: flex; justify-content: center; align-items: center;"">
                     <img src=""images/causal/causal_series_9/causal_series_9_a.png"" style=""width: 300px; height: 300px;"" />
                   </div>","null","",""
"","","","","","html-keyboard-response","14","80740","0.0-14.0","672F4DCD594B4E6E93C1B8F01099B197","0199d07d-e82e-7fa0-86b0-58e79f4882a0","0199d07a-b3b8-7ad8-bd6b-b36dd7b47ed6","","null","<div style=""display: flex; justify-content: center; align-items: center;"">
                     <img src=""images/causal/causal_series_9/causal_series_9_b.png"" style=""width: 300px; height: 300px;"" />
                   </div>","null","",""
"","","","","","html-keyboard-response","15","87741","0.0-15.0","672F4DCD594B4E6E93C1B8F01099B197","0199d07d-e82e-7fa0-86b0-58e79f4882a0","0199d07a-b3b8-7ad8-bd6b-b36dd7b47ed6","","null","<div style=""display: flex; justify-content: center; align-items: center;"">
                     <img src=""images/causal/causal_series_9/causal_series_9_c.png"" style=""width: 300px; height: 300px;"" />
                   </div>","null","",""
"","","","","","html-button-response","16","90574","0.0-16.0","672F4DCD594B4E6E93C1B8F01099B197","0199d07d-e82e-7fa0-86b0-58e79f4882a0","0199d07a-b3b8-7ad8-bd6b-b36dd7b47ed6","","2832","
        <div style=""display: flex; justify-content: center; align-items: center;"">
          <img src=""images/red_deck_2.png"" style=""width: 300px; height: 300px; margin-right: 10px;"" />
          <img src=""images/blue_deck_1.png"" style=""width: 300px; height: 300px;"" />
        </div>","0","0",""
"","","","","","html-keyboard-response","17","97575","0.0-17.0-0.0-0.0","672F4DCD594B4E6E93C1B8F01099B197","0199d07d-e82e-7fa0-86b0-58e79f4882a0","0199d07a-b3b8-7ad8-bd6b-b36dd7b47ed6","","null","<div style=""display: flex; justify-content: center; align-items: center;"">
                     <img src=""images/causal/causal_series_9/causal_series_9_d.png"" style=""width: 300px; height: 300px;"" />
                   </div>","null","",""
"","","","","","survey-likert","18","100450","0.0-18.0","672F4DCD594B4E6E93C1B8F01099B197","0199d07d-e82e-7fa0-86b0-58e79f4882a0","0199d07a-b3b8-7ad8-bd6b-b36dd7b47ed6","","2875","","{""Q0"":4}","","[0]"
"","","","","","survey-likert","19","105685","0.0-19.0","672F4DCD594B4E6E93C1B8F01099B197","0199d07d-e82e-7fa0-86b0-58e79f4882a0","0199d07a-b3b8-7ad8-bd6b-b36dd7b47ed6","","5234","","{""Q0"":4}","","[0]"
"","","","","","html-keyboard-response","20","112699","0.0-20.0","672F4DCD594B4E6E93C1B8F01099B197","0199d07d-e82e-7fa0-86b0-58e79f4882a0","0199d07a-b3b8-7ad8-bd6b-b36dd7b47ed6","","null","<div style=""display: flex; justify-content: center; align-items: center;"">
                     <img src=""images/other/blank.png"" style=""width: 300px; height: 300px;"" />
                   </div>","null","",""
"","","","","","html-keyboard-response","21","119710","0.0-21.0","672F4DCD594B4E6E93C1B8F01099B197","0199d07d-e82e-7fa0-86b0-58e79f4882a0","0199d07a-b3b8-7ad8-bd6b-b36dd7b47ed6","","null","<div style=""display: flex; justify-content: center; align-items: center;"">
                     <img src=""images/causal/causal_series_3/causal_series_3_a.png"" style=""width: 300px; height: 300px;"" />
                   </div>","null","",""
"","","","","","html-keyboard-response","22","126723","0.0-22.0","672F4DCD594B4E6E93C1B8F01099B197","0199d07d-e82e-7fa0-86b0-58e79f4882a0","0199d07a-b3b8-7ad8-bd6b-b36dd7b47ed6","","null","<div style=""display: flex; justify-content: center; align-items: center;"">
                     <img src=""images/causal/causal_series_3/causal_series_3_b.png"" style=""width: 300px; height: 300px;"" />
                   </div>","null","",""
"","","","","","html-keyboard-response","23","133729","0.0-23.0","672F4DCD594B4E6E93C1B8F01099B197","0199d07d-e82e-7fa0-86b0-58e79f4882a0","0199d07a-b3b8-7ad8-bd6b-b36dd7b47ed6","","null","<div style=""display: flex; justify-content: center; align-items: center;"">
                     <img src=""images/causal/causal_series_3/causal_series_3_c.png"" style=""width: 300px; height: 300px;"" />
                   </div>","null","",""
"","","","","","html-button-response","24","136144","0.0-24.0","672F4DCD594B4E6E93C1B8F01099B197","0199d07d-e82e-7fa0-86b0-58e79f4882a0","0199d07a-b3b8-7ad8-bd6b-b36dd7b47ed6","","2413","
        <div style=""display: flex; justify-content: center; align-items: center;"">
          <img src=""images/red_deck_2.png"" style=""width: 300px; height: 300px; margin-right: 10px;"" />
          <img src=""images/blue_deck_1.png"" style=""width: 300px; height: 300px;"" />
        </div>","1","1",""
"","","","","","html-keyboard-response","25","143149","0.0-25.0-1.0-0.0","672F4DCD594B4E6E93C1B8F01099B197","0199d07d-e82e-7fa0-86b0-58e79f4882a0","0199d07a-b3b8-7ad8-bd6b-b36dd7b47ed6","","null","<div style=""display: flex; justify-content: center; align-items: center;"">
                     <img src=""images/semantic/semantic_series_3/semantic_series_3_d.png"" style=""width: 300px; height: 300px;"" />
                   </div>","null","",""
"","","","","","survey-likert","26","146913","0.0-26.0","672F4DCD594B4E6E93C1B8F01099B197","0199d07d-e82e-7fa0-86b0-58e79f4882a0","0199d07a-b3b8-7ad8-bd6b-b36dd7b47ed6","","3763","","{""Q0"":2}","","[0]"
"","","","","","survey-likert","27","149455","0.0-27.0","672F4DCD594B4E6E93C1B8F01099B197","0199d07d-e82e-7fa0-86b0-58e79f4882a0","0199d07a-b3b8-7ad8-bd6b-b36dd7b47ed6","","2542","","{""Q0"":1}","","[0]"
"","","","","","html-keyboard-response","28","156462","0.0-28.0","672F4DCD594B4E6E93C1B8F01099B197","0199d07d-e82e-7fa0-86b0-58e79f4882a0","0199d07a-b3b8-7ad8-bd6b-b36dd7b47ed6","","null","<div style=""display: flex; justify-content: center; align-items: center;"">
                     <img src=""images/other/blank.png"" style=""width: 300px; height: 300px;"" />
                   </div>","null","",""
"","","","","","html-keyboard-response","29","163474","0.0-29.0","672F4DCD594B4E6E93C1B8F01099B197","0199d07d-e82e-7fa0-86b0-58e79f4882a0","0199d07a-b3b8-7ad8-bd6b-b36dd7b47ed6","","null","<div style=""display: flex; justify-content: center; align-items: center;"">
                     <img src=""images/causal/causal_series_10/causal_series_10_a.png"" style=""width: 300px; height: 300px;"" />
                   </div>","null","",""
"","","","","","html-keyboard-response","30","170475","0.0-30.0","672F4DCD594B4E6E93C1B8F01099B197","0199d07d-e82e-7fa0-86b0-58e79f4882a0","0199d07a-b3b8-7ad8-bd6b-b36dd7b47ed6","","null","<div style=""display: flex; justify-content: center; align-items: center;"">
                     <img src=""images/causal/causal_series_10/causal_series_10_b.png"" style=""width: 300px; height: 300px;"" />
                   </div>","null","",""
"","","","","","html-keyboard-response","31","177488","0.0-31.0","672F4DCD594B4E6E93C1B8F01099B197","0199d07d-e82e-7fa0-86b0-58e79f4882a0","0199d07a-b3b8-7ad8-bd6b-b36dd7b47ed6","","null","<div style=""display: flex; justify-content: center; align-items: center;"">
                     <img src=""images/causal/causal_series_10/causal_series_10_c.png"" style=""width: 300px; height: 300px;"" />
                   </div>","null","",""
"","","","","","html-button-response","32","178815","0.0-32.0","672F4DCD594B4E6E93C1B8F01099B197","0199d07d-e82e-7fa0-86b0-58e79f4882a0","0199d07a-b3b8-7ad8-bd6b-b36dd7b47ed6","","1327","
        <div style=""display: flex; justify-content: center; align-items: center;"">
          <img src=""images/red_deck_2.png"" style=""width: 300px; height: 300px; margin-right: 10px;"" />
          <img src=""images/blue_deck_1.png"" style=""width: 300px; height: 300px;"" />
        </div>","0","0",""
"","","","","","html-keyboard-response","33","185817","0.0-33.0-0.0-0.0","672F4DCD594B4E6E93C1B8F01099B197","0199d07d-e82e-7fa0-86b0-58e79f4882a0","0199d07a-b3b8-7ad8-bd6b-b36dd7b47ed6","","null","<div style=""display: flex; justify-content: center; align-items: center;"">
                     <img src=""images/causal/causal_series_10/causal_series_10_d.png"" style=""width: 300px; height: 300px;"" />
                   </div>","null","",""
"","","","","","survey-likert","34","187219","0.0-34.0","672F4DCD594B4E6E93C1B8F01099B197","0199d07d-e82e-7fa0-86b0-58e79f4882a0","0199d07a-b3b8-7ad8-bd6b-b36dd7b47ed6","","1400","","{""Q0"":4}","","[0]"
"","","","","","survey-likert","35","190054","0.0-35.0","672F4DCD594B4E6E93C1B8F01099B197","0199d07d-e82e-7fa0-86b0-58e79f4882a0","0199d07a-b3b8-7ad8-bd6b-b36dd7b47ed6","","2834","","{""Q0"":2}","","[0]"
"","","","","","html-keyboard-response","36","197058","0.0-36.0","672F4DCD594B4E6E93C1B8F01099B197","0199d07d-e82e-7fa0-86b0-58e79f4882a0","0199d07a-b3b8-7ad8-bd6b-b36dd7b47ed6","","null","<div style=""display: flex; justify-content: center; align-items: center;"">
                     <img src=""images/other/blank.png"" style=""width: 300px; height: 300px;"" />
                   </div>","null","",""
"","","","","","html-keyboard-response","37","204073","0.0-37.0","672F4DCD594B4E6E93C1B8F01099B197","0199d07d-e82e-7fa0-86b0-58e79f4882a0","0199d07a-b3b8-7ad8-bd6b-b36dd7b47ed6","","null","<div style=""display: flex; justify-content: center; align-items: center;"">
                     <img src=""images/causal/causal_series_8/causal_series_8_a.png"" style=""width: 300px; height: 300px;"" />
                   </div>","null","",""
"","","","","","html-keyboard-response","38","211083","0.0-38.0","672F4DCD594B4E6E93C1B8F01099B197","0199d07d-e82e-7fa0-86b0-58e79f4882a0","0199d07a-b3b8-7ad8-bd6b-b36dd7b47ed6","","null","<div style=""display: flex; justify-content: center; align-items: center;"">
                     <img src=""images/causal/causal_series_8/causal_series_8_b.png"" style=""width: 300px; height: 300px;"" />
                   </div>","null","",""
"","","","","","html-keyboard-response","39","218094","0.0-39.0","672F4DCD594B4E6E93C1B8F01099B197","0199d07d-e82e-7fa0-86b0-58e79f4882a0","0199d07a-b3b8-7ad8-bd6b-b36dd7b47ed6","","null","<div style=""display: flex; justify-content: center; align-items: center;"">
                     <img src=""images/causal/causal_series_8/causal_series_8_c.png"" style=""width: 300px; height: 300px;"" />
                   </div>","null","",""
"","","","","","html-button-response","40","220094","0.0-40.0","672F4DCD594B4E6E93C1B8F01099B197","0199d07d-e82e-7fa0-86b0-58e79f4882a0","0199d07a-b3b8-7ad8-bd6b-b36dd7b47ed6","","1998","
        <div style=""display: flex; justify-content: center; align-items: center;"">
          <img src=""images/red_deck_2.png"" style=""width: 300px; height: 300px; margin-right: 10px;"" />
          <img src=""images/blue_deck_1.png"" style=""width: 300px; height: 300px;"" />
        </div>","1","1",""
"","","","","","html-keyboard-response","41","227108","0.0-41.0-1.0-0.0","672F4DCD594B4E6E93C1B8F01099B197","0199d07d-e82e-7fa0-86b0-58e79f4882a0","0199d07a-b3b8-7ad8-bd6b-b36dd7b47ed6","","null","<div style=""display: flex; justify-content: center; align-items: center;"">
                     <img src=""images/semantic/semantic_series_8/semantic_series_8_d.png"" style=""width: 300px; height: 300px;"" />
                   </div>","null","",""
"","","","","","survey-likert","42","228832","0.0-42.0","672F4DCD594B4E6E93C1B8F01099B197","0199d07d-e82e-7fa0-86b0-58e79f4882a0","0199d07a-b3b8-7ad8-bd6b-b36dd7b47ed6","","1723","","{""Q0"":4}","","[0]"
"","","","","","survey-likert","43","231536","0.0-43.0","672F4DCD594B4E6E93C1B8F01099B197","0199d07d-e82e-7fa0-86b0-58e79f4882a0","0199d07a-b3b8-7ad8-bd6b-b36dd7b47ed6","","2704","","{""Q0"":1}","","[0]"
"","","","","","html-keyboard-response","44","238550","0.0-44.0","672F4DCD594B4E6E93C1B8F01099B197","0199d07d-e82e-7fa0-86b0-58e79f4882a0","0199d07a-b3b8-7ad8-bd6b-b36dd7b47ed6","","null","<div style=""display: flex; justify-content: center; align-items: center;"">
                     <img src=""images/other/blank.png"" style=""width: 300px; height: 300px;"" />
                   </div>","null","",""
"","","","","","html-keyboard-response","45","245565","0.0-45.0","672F4DCD594B4E6E93C1B8F01099B197","0199d07d-e82e-7fa0-86b0-58e79f4882a0","0199d07a-b3b8-7ad8-bd6b-b36dd7b47ed6","","null","<div style=""display: flex; justify-content: center; align-items: center;"">
                     <img src=""images/causal/causal_series_5/causal_series_5_a.png"" style=""width: 300px; height: 300px;"" />
                   </div>","null","",""
"","","","","","html-keyboard-response","46","252573","0.0-46.0","672F4DCD594B4E6E93C1B8F01099B197","0199d07d-e82e-7fa0-86b0-58e79f4882a0","0199d07a-b3b8-7ad8-bd6b-b36dd7b47ed6","","null","<div style=""display: flex; justify-content: center; align-items: center;"">
                     <img src=""images/causal/causal_series_5/causal_series_5_b.png"" style=""width: 300px; height: 300px;"" />
                   </div>","null","",""
"","","","","","html-keyboard-response","47","259585","0.0-47.0","672F4DCD594B4E6E93C1B8F01099B197","0199d07d-e82e-7fa0-86b0-58e79f4882a0","0199d07a-b3b8-7ad8-bd6b-b36dd7b47ed6","","null","<div style=""display: flex; justify-content: center; align-items: center;"">
                     <img src=""images/causal/causal_series_5/causal_series_5_c.png"" style=""width: 300px; height: 300px;"" />
                   </div>","null","",""
"","","","","","html-button-response","48","260889","0.0-48.0","672F4DCD594B4E6E93C1B8F01099B197","0199d07d-e82e-7fa0-86b0-58e79f4882a0","0199d07a-b3b8-7ad8-bd6b-b36dd7b47ed6","","1303","
        <div style=""display: flex; justify-content: center; align-items: center;"">
          <img src=""images/red_deck_2.png"" style=""width: 300px; height: 300px; margin-right: 10px;"" />
          <img src=""images/blue_deck_1.png"" style=""width: 300px; height: 300px;"" />
        </div>","0","0",""
"","","","","","html-keyboard-response","49","267893","0.0-49.0-0.0-0.0","672F4DCD594B4E6E93C1B8F01099B197","0199d07d-e82e-7fa0-86b0-58e79f4882a0","0199d07a-b3b8-7ad8-bd6b-b36dd7b47ed6","","null","<div style=""display: flex; justify-content: center; align-items: center;"">
                     <img src=""images/causal/causal_series_5/causal_series_5_d.png"" style=""width: 300px; height: 300px;"" />
                   </div>","null","",""
"","","","","","survey-likert","50","270025","0.0-50.0","672F4DCD594B4E6E93C1B8F01099B197","0199d07d-e82e-7fa0-86b0-58e79f4882a0","0199d07a-b3b8-7ad8-bd6b-b36dd7b47ed6","","2130","","{""Q0"":4}","","[0]"
"","","","","","survey-likert","51","272110","0.0-51.0","672F4DCD594B4E6E93C1B8F01099B197","0199d07d-e82e-7fa0-86b0-58e79f4882a0","0199d07a-b3b8-7ad8-bd6b-b36dd7b47ed6","","2085","","{""Q0"":3}","","[0]"
"","","","","","html-keyboard-response","52","279117","0.0-52.0","672F4DCD594B4E6E93C1B8F01099B197","0199d07d-e82e-7fa0-86b0-58e79f4882a0","0199d07a-b3b8-7ad8-bd6b-b36dd7b47ed6","","null","<div style=""display: flex; justify-content: center; align-items: center;"">
                     <img src=""images/other/blank.png"" style=""width: 300px; height: 300px;"" />
                   </div>","null","",""
"","","","","","html-keyboard-response","53","286119","0.0-53.0","672F4DCD594B4E6E93C1B8F01099B197","0199d07d-e82e-7fa0-86b0-58e79f4882a0","0199d07a-b3b8-7ad8-bd6b-b36dd7b47ed6","","null","<div style=""display: flex; justify-content: center; align-items: center;"">
                     <img src=""images/causal/causal_series_2/causal_series_2_a.png"" style=""width: 300px; height: 300px;"" />
                   </div>","null","",""
"","","","","","html-keyboard-response","54","293136","0.0-54.0","672F4DCD594B4E6E93C1B8F01099B197","0199d07d-e82e-7fa0-86b0-58e79f4882a0","0199d07a-b3b8-7ad8-bd6b-b36dd7b47ed6","","null","<div style=""display: flex; justify-content: center; align-items: center;"">
                     <img src=""images/causal/causal_series_2/causal_series_2_b.png"" style=""width: 300px; height: 300px;"" />
                   </div>","null","",""
"","","","","","html-keyboard-response","55","300146","0.0-55.0","672F4DCD594B4E6E93C1B8F01099B197","0199d07d-e82e-7fa0-86b0-58e79f4882a0","0199d07a-b3b8-7ad8-bd6b-b36dd7b47ed6","","null","<div style=""display: flex; justify-content: center; align-items: center;"">
                     <img src=""images/causal/causal_series_2/causal_series_2_c.png"" style=""width: 300px; height: 300px;"" />
                   </div>","null","",""
"","","","","","html-button-response","56","302379","0.0-56.0","672F4DCD594B4E6E93C1B8F01099B197","0199d07d-e82e-7fa0-86b0-58e79f4882a0","0199d07a-b3b8-7ad8-bd6b-b36dd7b47ed6","","2232","
        <div style=""display: flex; justify-content: center; align-items: center;"">
          <img src=""images/red_deck_2.png"" style=""width: 300px; height: 300px; margin-right: 10px;"" />
          <img src=""images/blue_deck_1.png"" style=""width: 300px; height: 300px;"" />
        </div>","0","0",""
"","","","","","html-keyboard-response","57","309394","0.0-57.0-0.0-0.0","672F4DCD594B4E6E93C1B8F01099B197","0199d07d-e82e-7fa0-86b0-58e79f4882a0","0199d07a-b3b8-7ad8-bd6b-b36dd7b47ed6","","null","<div style=""display: flex; justify-content: center; align-items: center;"">
                     <img src=""images/causal/causal_series_2/causal_series_2_d.png"" style=""width: 300px; height: 300px;"" />
                   </div>","null","",""
"","","","","","survey-likert","58","311230","0.0-58.0","672F4DCD594B4E6E93C1B8F01099B197","0199d07d-e82e-7fa0-86b0-58e79f4882a0","0199d07a-b3b8-7ad8-bd6b-b36dd7b47ed6","","1835","","{""Q0"":3}","","[0]"
"","","","","","survey-likert","59","313734","0.0-59.0","672F4DCD594B4E6E93C1B8F01099B197","0199d07d-e82e-7fa0-86b0-58e79f4882a0","0199d07a-b3b8-7ad8-bd6b-b36dd7b47ed6","","2503","","{""Q0"":3}","","[0]"
"","","","","","html-keyboard-response","60","320747","0.0-60.0","672F4DCD594B4E6E93C1B8F01099B197","0199d07d-e82e-7fa0-86b0-58e79f4882a0","0199d07a-b3b8-7ad8-bd6b-b36dd7b47ed6","","null","<div style=""display: flex; justify-content: center; align-items: center;"">
                     <img src=""images/other/blank.png"" style=""width: 300px; height: 300px;"" />
                   </div>","null","",""
"","","","","","html-keyboard-response","61","327750","0.0-61.0","672F4DCD594B4E6E93C1B8F01099B197","0199d07d-e82e-7fa0-86b0-58e79f4882a0","0199d07a-b3b8-7ad8-bd6b-b36dd7b47ed6","","null","<div style=""display: flex; justify-content: center; align-items: center;"">
                     <img src=""images/causal/causal_series_6/causal_series_6_a.png"" style=""width: 300px; height: 300px;"" />
                   </div>","null","",""
"","","","","","html-keyboard-response","62","334758","0.0-62.0","672F4DCD594B4E6E93C1B8F01099B197","0199d07d-e82e-7fa0-86b0-58e79f4882a0","0199d07a-b3b8-7ad8-bd6b-b36dd7b47ed6","","null","<div style=""display: flex; justify-content: center; align-items: center;"">
                     <img src=""images/causal/causal_series_6/causal_series_6_b.png"" style=""width: 300px; height: 300px;"" />
                   </div>","null","",""
"","","","","","html-keyboard-response","63","341773","0.0-63.0","672F4DCD594B4E6E93C1B8F01099B197","0199d07d-e82e-7fa0-86b0-58e79f4882a0","0199d07a-b3b8-7ad8-bd6b-b36dd7b47ed6","","null","<div style=""display: flex; justify-content: center; align-items: center;"">
                     <img src=""images/causal/causal_series_6/causal_series_6_c.png"" style=""width: 300px; height: 300px;"" />
                   </div>","null","",""
"","","","","","html-button-response","64","344695","0.0-64.0","672F4DCD594B4E6E93C1B8F01099B197","0199d07d-e82e-7fa0-86b0-58e79f4882a0","0199d07a-b3b8-7ad8-bd6b-b36dd7b47ed6","","2920","
        <div style=""display: flex; justify-content: center; align-items: center;"">
          <img src=""images/red_deck_2.png"" style=""width: 300px; height: 300px; margin-right: 10px;"" />
          <img src=""images/blue_deck_1.png"" style=""width: 300px; height: 300px;"" />
        </div>","0","0",""
"","","","","","html-keyboard-response","65","351706","0.0-65.0-0.0-0.0","672F4DCD594B4E6E93C1B8F01099B197","0199d07d-e82e-7fa0-86b0-58e79f4882a0","0199d07a-b3b8-7ad8-bd6b-b36dd7b47ed6","","null","<div style=""display: flex; justify-content: center; align-items: center;"">
                     <img src=""images/causal/causal_series_6/causal_series_6_d.png"" style=""width: 300px; height: 300px;"" />
                   </div>","null","",""
"","","","","","survey-likert","66","355358","0.0-66.0","672F4DCD594B4E6E93C1B8F01099B197","0199d07d-e82e-7fa0-86b0-58e79f4882a0","0199d07a-b3b8-7ad8-bd6b-b36dd7b47ed6","","3651","","{""Q0"":4}","","[0]"
"","","","","","survey-likert","67","358532","0.0-67.0","672F4DCD594B4E6E93C1B8F01099B197","0199d07d-e82e-7fa0-86b0-58e79f4882a0","0199d07a-b3b8-7ad8-bd6b-b36dd7b47ed6","","3173","","{""Q0"":4}","","[0]"
"","","","","","html-keyboard-response","68","365539","0.0-68.0","672F4DCD594B4E6E93C1B8F01099B197","0199d07d-e82e-7fa0-86b0-58e79f4882a0","0199d07a-b3b8-7ad8-bd6b-b36dd7b47ed6","","null","<div style=""display: flex; justify-content: center; align-items: center;"">
                     <img src=""images/other/blank.png"" style=""width: 300px; height: 300px;"" />
                   </div>","null","",""
"","","","","","html-keyboard-response","69","372551","0.0-69.0","672F4DCD594B4E6E93C1B8F01099B197","0199d07d-e82e-7fa0-86b0-58e79f4882a0","0199d07a-b3b8-7ad8-bd6b-b36dd7b47ed6","","null","<div style=""display: flex; justify-content: center; align-items: center;"">
                     <img src=""images/causal/causal_series_1/causal_series_1_a.png"" style=""width: 300px; height: 300px;"" />
                   </div>","null","",""
"","","","","","html-keyboard-response","70","379552","0.0-70.0","672F4DCD594B4E6E93C1B8F01099B197","0199d07d-e82e-7fa0-86b0-58e79f4882a0","0199d07a-b3b8-7ad8-bd6b-b36dd7b47ed6","","null","<div style=""display: flex; justify-content: center; align-items: center;"">
                     <img src=""images/causal/causal_series_1/causal_series_1_b.png"" style=""width: 300px; height: 300px;"" />
                   </div>","null","",""
"","","","","","html-keyboard-response","71","386558","0.0-71.0","672F4DCD594B4E6E93C1B8F01099B197","0199d07d-e82e-7fa0-86b0-58e79f4882a0","0199d07a-b3b8-7ad8-bd6b-b36dd7b47ed6","","null","<div style=""display: flex; justify-content: center; align-items: center;"">
                     <img src=""images/causal/causal_series_1/causal_series_1_c.png"" style=""width: 300px; height: 300px;"" />
                   </div>","null","",""
"","","","","","html-button-response","72","389016","0.0-72.0","672F4DCD594B4E6E93C1B8F01099B197","0199d07d-e82e-7fa0-86b0-58e79f4882a0","0199d07a-b3b8-7ad8-bd6b-b36dd7b47ed6","","2458","
        <div style=""display: flex; justify-content: center; align-items: center;"">
          <img src=""images/red_deck_2.png"" style=""width: 300px; height: 300px; margin-right: 10px;"" />
          <img src=""images/blue_deck_1.png"" style=""width: 300px; height: 300px;"" />
        </div>","0","0",""
"","","","","","html-keyboard-response","73","396023","0.0-73.0-0.0-0.0","672F4DCD594B4E6E93C1B8F01099B197","0199d07d-e82e-7fa0-86b0-58e79f4882a0","0199d07a-b3b8-7ad8-bd6b-b36dd7b47ed6","","null","<div style=""display: flex; justify-content: center; align-items: center;"">
                     <img src=""images/causal/causal_series_1/causal_series_1_d.png"" style=""width: 300px; height: 300px;"" />
                   </div>","null","",""
"","","","","","survey-likert","74","397822","0.0-74.0","672F4DCD594B4E6E93C1B8F01099B197","0199d07d-e82e-7fa0-86b0-58e79f4882a0","0199d07a-b3b8-7ad8-bd6b-b36dd7b47ed6","","1797","","{""Q0"":2}","","[0]"
"","","","","","survey-likert","75","399388","0.0-75.0","672F4DCD594B4E6E93C1B8F01099B197","0199d07d-e82e-7fa0-86b0-58e79f4882a0","0199d07a-b3b8-7ad8-bd6b-b36dd7b47ed6","","1566","","{""Q0"":3}","","[0]"
"","","","","","html-keyboard-response","76","406393","0.0-76.0","672F4DCD594B4E6E93C1B8F01099B197","0199d07d-e82e-7fa0-86b0-58e79f4882a0","0199d07a-b3b8-7ad8-bd6b-b36dd7b47ed6","","null","<div style=""display: flex; justify-content: center; align-items: center;"">
                     <img src=""images/other/blank.png"" style=""width: 300px; height: 300px;"" />
                   </div>","null","",""
"","","","","","html-keyboard-response","77","413410","0.0-77.0","672F4DCD594B4E6E93C1B8F01099B197","0199d07d-e82e-7fa0-86b0-58e79f4882a0","0199d07a-b3b8-7ad8-bd6b-b36dd7b47ed6","","null","<div style=""display: flex; justify-content: center; align-items: center;"">
                     <img src=""images/causal/causal_series_7/causal_series_7_a.png"" style=""width: 300px; height: 300px;"" />
                   </div>","null","",""
"","","","","","html-keyboard-response","78","420413","0.0-78.0","672F4DCD594B4E6E93C1B8F01099B197","0199d07d-e82e-7fa0-86b0-58e79f4882a0","0199d07a-b3b8-7ad8-bd6b-b36dd7b47ed6","","null","<div style=""display: flex; justify-content: center; align-items: center;"">
                     <img src=""images/causal/causal_series_7/causal_series_7_b.png"" style=""width: 300px; height: 300px;"" />
                   </div>","null","",""
"","","","","","html-keyboard-response","79","427416","0.0-79.0","672F4DCD594B4E6E93C1B8F01099B197","0199d07d-e82e-7fa0-86b0-58e79f4882a0","0199d07a-b3b8-7ad8-bd6b-b36dd7b47ed6","","null","<div style=""display: flex; justify-content: center; align-items: center;"">
                     <img src=""images/causal/causal_series_7/causal_series_7_c.png"" style=""width: 300px; height: 300px;"" />
                   </div>","null","",""
"","","","","","html-button-response","80","429071","0.0-80.0","672F4DCD594B4E6E93C1B8F01099B197","0199d07d-e82e-7fa0-86b0-58e79f4882a0","0199d07a-b3b8-7ad8-bd6b-b36dd7b47ed6","","1654","
        <div style=""display: flex; justify-content: center; align-items: center;"">
          <img src=""images/red_deck_2.png"" style=""width: 300px; height: 300px; margin-right: 10px;"" />
          <img src=""images/blue_deck_1.png"" style=""width: 300px; height: 300px;"" />
        </div>","0","0",""
"","","","","","html-keyboard-response","81","436079","0.0-81.0-0.0-0.0","672F4DCD594B4E6E93C1B8F01099B197","0199d07d-e82e-7fa0-86b0-58e79f4882a0","0199d07a-b3b8-7ad8-bd6b-b36dd7b47ed6","","null","<div style=""display: flex; justify-content: center; align-items: center;"">
                     <img src=""images/causal/causal_series_7/causal_series_7_d.png"" style=""width: 300px; height: 300px;"" />
                   </div>","null","",""
"","","","","","survey-likert","82","438189","0.0-82.0","672F4DCD594B4E6E93C1B8F01099B197","0199d07d-e82e-7fa0-86b0-58e79f4882a0","0199d07a-b3b8-7ad8-bd6b-b36dd7b47ed6","","2109","","{""Q0"":4}","","[0]"
"","","","","","survey-likert","83","440963","0.0-83.0","672F4DCD594B4E6E93C1B8F01099B197","0199d07d-e82e-7fa0-86b0-58e79f4882a0","0199d07a-b3b8-7ad8-bd6b-b36dd7b47ed6","","2773","","{""Q0"":2}","","[0]"
"","","","","","html-keyboard-response","84","447973","0.0-84.0","672F4DCD594B4E6E93C1B8F01099B197","0199d07d-e82e-7fa0-86b0-58e79f4882a0","0199d07a-b3b8-7ad8-bd6b-b36dd7b47ed6","","null","<div style=""display: flex; justify-content: center; align-items: center;"">
                     <img src=""images/other/blank.png"" style=""width: 300px; height: 300px;"" />
                   </div>","null","",""
"","","","","","survey-text","85","473602","0.0-85.0","672F4DCD594B4E6E93C1B8F01099B197","0199d07d-e82e-7fa0-86b0-58e79f4882a0","0199d07a-b3b8-7ad8-bd6b-b36dd7b47ed6","","25624","","{""Q0"":""It seemed like the red deck had suprising and unexpected events while the blue deck had regular events as the final image.""}","",""
"","","","","","html-button-response","86","486448","0.0-86.0","672F4DCD594B4E6E93C1B8F01099B197","0199d07d-e82e-7fa0-86b0-58e79f4882a0","0199d07a-b3b8-7ad8-bd6b-b36dd7b47ed6","","12845","Which color deck do the following images continue the story from?","1","",""
"","","","","","html-button-response","87","487630","0.0-87.0","672F4DCD594B4E6E93C1B8F01099B197","0199d07d-e82e-7fa0-86b0-58e79f4882a0","0199d07a-b3b8-7ad8-bd6b-b36dd7b47ed6","","1181","Which color deck do the following images NOT follow the story from?","0","",""
"","","","","","html-button-response","88","491078","0.0-88.0","672F4DCD594B4E6E93C1B8F01099B197","0199d07d-e82e-7fa0-86b0-58e79f4882a0","0199d07a-b3b8-7ad8-bd6b-b36dd7b47ed6","","3448","Which type of deck did you prefer overall?","0","",""
"","","","","","survey-text","89","495365","0.0-89.0","672F4DCD594B4E6E93C1B8F01099B197","0199d07d-e82e-7fa0-86b0-58e79f4882a0","0199d07a-b3b8-7ad8-bd6b-b36dd7b47ed6","","4284","","{""Q0"":""MALE"",""Q1"":""34""}","",""
"","","","","","instructions","90","500042","0.0-90.0","672F4DCD594B4E6E93C1B8F01099B197","0199d07d-e82e-7fa0-86b0-58e79f4882a0","0199d07a-b3b8-7ad8-bd6b-b36dd7b47ed6","[{""page_index"":0,""viewing_time"":4676}]","4677","","","",""
