"success","timeout","failed_images","failed_audio","failed_video","trial_type","trial_index","time_elapsed","internal_node_id","subject_id","study_id","session_id","view_history","rt","stimulus","response","choice"
"true","false","[]","[]","[]","preload","0","2109","0.0-0.0","EEC1B671FC4C4C4BBA59C4C618C1CEB0","7e9a408e-f5aa-4d24-b121-ba24ba594c98","4f03f330-5f91-43fc-aa61-d9dda6d26521","","","","",""
"","","","","","instructions","1","5540","0.0-1.0","EEC1B671FC4C4C4BBA59C4C618C1CEB0","7e9a408e-f5aa-4d24-b121-ba24ba594c98","4f03f330-5f91-43fc-aa61-d9dda6d26521","[{""page_index"":0,""viewing_time"":3430}]","3430","","",""
"","","","","","instructions","2","16443","0.0-2.0","EEC1B671FC4C4C4BBA59C4C618C1CEB0","7e9a408e-f5aa-4d24-b121-ba24ba594c98","4f03f330-5f91-43fc-aa61-d9dda6d26521","[{""page_index"":0,""viewing_time"":10903}]","10903","","",""
"true","","","","","fullscreen","3","19733","0.0-3.0","EEC1B671FC4C4C4BBA59C4C618C1CEB0","7e9a408e-f5aa-4d24-b121-ba24ba594c98","4f03f330-5f91-43fc-aa61-d9dda6d26521","","2287","","",""
"","","","","","instructions","4","45539","0.0-4.0","EEC1B671FC4C4C4BBA59C4C618C1CEB0","7e9a408e-f5aa-4d24-b121-ba24ba594c98","4f03f330-5f91-43fc-aa61-d9dda6d26521","[{""page_index"":0,""viewing_time"":25805}]","25806","","",""
"","","","","","html-keyboard-response","5","48546","0.0-5.0","EEC1B671FC4C4C4BBA59C4C618C1CEB0","7e9a408e-f5aa-4d24-b121-ba24ba594c98","4f03f330-5f91-43fc-aa61-d9dda6d26521","","null","<div style=""display: flex; justify-content: center; align-items: center;"">
                <img src=""images/causal/causal_series_13/causal_series_13_a.jpg"" style=""width: 300px; height: 300px;"" />
              </div>","null",""
"","","","","","html-button-response","6","52196","0.0-6.0","EEC1B671FC4C4C4BBA59C4C618C1CEB0","7e9a408e-f5aa-4d24-b121-ba24ba594c98","4f03f330-5f91-43fc-aa61-d9dda6d26521","","3648","
    <div style=""display: flex; justify-content: center; align-items: center;"">
      <img src=""images/red_deck_2.png"" style=""width: 300px; height: 300px; margin-right: 10px;"" />
      <img src=""images/blue_deck_1.png"" style=""width: 300px; height: 300px;"" />
    </div>","0","0"
"","","","","","html-keyboard-response","7","55197","0.0-7.0-0.0-0.0","EEC1B671FC4C4C4BBA59C4C618C1CEB0","7e9a408e-f5aa-4d24-b121-ba24ba594c98","4f03f330-5f91-43fc-aa61-d9dda6d26521","","null","<div style=""display: flex; justify-content: center; align-items: center;"">
                <img src=""images/causal/causal_series_13/causal_series_13_b.jpg"" style=""width: 300px; height: 300px;"" />
              </div>","null",""
"","","","","","html-keyboard-response","8","58208","0.0-7.0-0.0-1.0","EEC1B671FC4C4C4BBA59C4C618C1CEB0","7e9a408e-f5aa-4d24-b121-ba24ba594c98","4f03f330-5f91-43fc-aa61-d9dda6d26521","","null","<div style=""display: flex; justify-content: center; align-items: center;"">
                <img src=""images/causal/causal_series_13/causal_series_13_c.jpg"" style=""width: 300px; height: 300px;"" />
              </div>","null",""
"","","","","","html-keyboard-response","9","61213","0.0-7.0-0.0-2.0","EEC1B671FC4C4C4BBA59C4C618C1CEB0","7e9a408e-f5aa-4d24-b121-ba24ba594c98","4f03f330-5f91-43fc-aa61-d9dda6d26521","","null","<div style=""display: flex; justify-content: center; align-items: center;"">
                <img src=""images/causal/causal_series_13/causal_series_13_d.jpg"" style=""width: 300px; height: 300px;"" />
              </div>","null",""
"","","","","","html-keyboard-response","10","64216","0.0-8.0","EEC1B671FC4C4C4BBA59C4C618C1CEB0","7e9a408e-f5aa-4d24-b121-ba24ba594c98","4f03f330-5f91-43fc-aa61-d9dda6d26521","","null","<div style=""display: flex; justify-content: center; align-items: center;"">
                <img src=""images/other/blank.jpg"" style=""width: 300px; height: 300px;"" />
              </div>","null",""
"","","","","","html-keyboard-response","11","67219","0.0-9.0","EEC1B671FC4C4C4BBA59C4C618C1CEB0","7e9a408e-f5aa-4d24-b121-ba24ba594c98","4f03f330-5f91-43fc-aa61-d9dda6d26521","","null","<div style=""display: flex; justify-content: center; align-items: center;"">
                <img src=""images/causal/causal_series_17/causal_series_17_a.jpg"" style=""width: 300px; height: 300px;"" />
              </div>","null",""
"","","","","","html-button-response","12","69315","0.0-10.0","EEC1B671FC4C4C4BBA59C4C618C1CEB0","7e9a408e-f5aa-4d24-b121-ba24ba594c98","4f03f330-5f91-43fc-aa61-d9dda6d26521","","2096","
    <div style=""display: flex; justify-content: center; align-items: center;"">
      <img src=""images/red_deck_2.png"" style=""width: 300px; height: 300px; margin-right: 10px;"" />
      <img src=""images/blue_deck_1.png"" style=""width: 300px; height: 300px;"" />
    </div>","0","0"
"","","","","","html-keyboard-response","13","72317","0.0-11.0-0.0-0.0","EEC1B671FC4C4C4BBA59C4C618C1CEB0","7e9a408e-f5aa-4d24-b121-ba24ba594c98","4f03f330-5f91-43fc-aa61-d9dda6d26521","","null","<div style=""display: flex; justify-content: center; align-items: center;"">
                <img src=""images/causal/causal_series_17/causal_series_17_b.jpg"" style=""width: 300px; height: 300px;"" />
              </div>","null",""
"","","","","","html-keyboard-response","14","75332","0.0-11.0-0.0-1.0","EEC1B671FC4C4C4BBA59C4C618C1CEB0","7e9a408e-f5aa-4d24-b121-ba24ba594c98","4f03f330-5f91-43fc-aa61-d9dda6d26521","","null","<div style=""display: flex; justify-content: center; align-items: center;"">
                <img src=""images/causal/causal_series_17/causal_series_17_c.jpg"" style=""width: 300px; height: 300px;"" />
              </div>","null",""
"","","","","","html-keyboard-response","15","78336","0.0-11.0-0.0-2.0","EEC1B671FC4C4C4BBA59C4C618C1CEB0","7e9a408e-f5aa-4d24-b121-ba24ba594c98","4f03f330-5f91-43fc-aa61-d9dda6d26521","","null","<div style=""display: flex; justify-content: center; align-items: center;"">
                <img src=""images/causal/causal_series_17/causal_series_17_d.jpg"" style=""width: 300px; height: 300px;"" />
              </div>","null",""
"","","","","","html-keyboard-response","16","81341","0.0-12.0","EEC1B671FC4C4C4BBA59C4C618C1CEB0","7e9a408e-f5aa-4d24-b121-ba24ba594c98","4f03f330-5f91-43fc-aa61-d9dda6d26521","","null","<div style=""display: flex; justify-content: center; align-items: center;"">
                <img src=""images/other/blank.jpg"" style=""width: 300px; height: 300px;"" />
              </div>","null",""
"","","","","","html-keyboard-response","17","84352","0.0-13.0","EEC1B671FC4C4C4BBA59C4C618C1CEB0","7e9a408e-f5aa-4d24-b121-ba24ba594c98","4f03f330-5f91-43fc-aa61-d9dda6d26521","","null","<div style=""display: flex; justify-content: center; align-items: center;"">
                <img src=""images/causal/causal_series_3/causal_series_3_a.jpg"" style=""width: 300px; height: 300px;"" />
              </div>","null",""
"","","","","","html-button-response","18","85883","0.0-14.0","EEC1B671FC4C4C4BBA59C4C618C1CEB0","7e9a408e-f5aa-4d24-b121-ba24ba594c98","4f03f330-5f91-43fc-aa61-d9dda6d26521","","1530","
    <div style=""display: flex; justify-content: center; align-items: center;"">
      <img src=""images/red_deck_2.png"" style=""width: 300px; height: 300px; margin-right: 10px;"" />
      <img src=""images/blue_deck_1.png"" style=""width: 300px; height: 300px;"" />
    </div>","1","1"
"","","","","","html-keyboard-response","19","88894","0.0-15.0-1.0-0.0","EEC1B671FC4C4C4BBA59C4C618C1CEB0","7e9a408e-f5aa-4d24-b121-ba24ba594c98","4f03f330-5f91-43fc-aa61-d9dda6d26521","","null","<div style=""display: flex; justify-content: center; align-items: center;"">
                <img src=""images/semantic/semantic_series_6/semantic_series_6_d.jpg"" style=""width: 300px; height: 300px;"" />
              </div>","null",""
"","","","","","html-keyboard-response","20","91904","0.0-15.0-1.0-1.0","EEC1B671FC4C4C4BBA59C4C618C1CEB0","7e9a408e-f5aa-4d24-b121-ba24ba594c98","4f03f330-5f91-43fc-aa61-d9dda6d26521","","null","<div style=""display: flex; justify-content: center; align-items: center;"">
                <img src=""images/semantic/semantic_series_7/semantic_series_7_d.jpg"" style=""width: 300px; height: 300px;"" />
              </div>","null",""
"","","","","","html-keyboard-response","21","94912","0.0-15.0-1.0-2.0","EEC1B671FC4C4C4BBA59C4C618C1CEB0","7e9a408e-f5aa-4d24-b121-ba24ba594c98","4f03f330-5f91-43fc-aa61-d9dda6d26521","","null","<div style=""display: flex; justify-content: center; align-items: center;"">
                <img src=""images/semantic/semantic_series_8/semantic_series_8_d.jpg"" style=""width: 300px; height: 300px;"" />
              </div>","null",""
"","","","","","html-keyboard-response","22","97916","0.0-16.0","EEC1B671FC4C4C4BBA59C4C618C1CEB0","7e9a408e-f5aa-4d24-b121-ba24ba594c98","4f03f330-5f91-43fc-aa61-d9dda6d26521","","null","<div style=""display: flex; justify-content: center; align-items: center;"">
                <img src=""images/other/blank.jpg"" style=""width: 300px; height: 300px;"" />
              </div>","null",""
"","","","","","html-keyboard-response","23","100928","0.0-17.0","EEC1B671FC4C4C4BBA59C4C618C1CEB0","7e9a408e-f5aa-4d24-b121-ba24ba594c98","4f03f330-5f91-43fc-aa61-d9dda6d26521","","null","<div style=""display: flex; justify-content: center; align-items: center;"">
                <img src=""images/causal/causal_series_8/causal_series_8_a.jpg"" style=""width: 300px; height: 300px;"" />
              </div>","null",""
"","","","","","html-button-response","24","103811","0.0-18.0","EEC1B671FC4C4C4BBA59C4C618C1CEB0","7e9a408e-f5aa-4d24-b121-ba24ba594c98","4f03f330-5f91-43fc-aa61-d9dda6d26521","","2882","
    <div style=""display: flex; justify-content: center; align-items: center;"">
      <img src=""images/red_deck_2.png"" style=""width: 300px; height: 300px; margin-right: 10px;"" />
      <img src=""images/blue_deck_1.png"" style=""width: 300px; height: 300px;"" />
    </div>","0","0"
"","","","","","html-keyboard-response","25","106818","0.0-19.0-0.0-0.0","EEC1B671FC4C4C4BBA59C4C618C1CEB0","7e9a408e-f5aa-4d24-b121-ba24ba594c98","4f03f330-5f91-43fc-aa61-d9dda6d26521","","null","<div style=""display: flex; justify-content: center; align-items: center;"">
                <img src=""images/causal/causal_series_8/causal_series_8_b.jpg"" style=""width: 300px; height: 300px;"" />
              </div>","null",""
"","","","","","html-keyboard-response","26","109824","0.0-19.0-0.0-1.0","EEC1B671FC4C4C4BBA59C4C618C1CEB0","7e9a408e-f5aa-4d24-b121-ba24ba594c98","4f03f330-5f91-43fc-aa61-d9dda6d26521","","null","<div style=""display: flex; justify-content: center; align-items: center;"">
                <img src=""images/causal/causal_series_8/causal_series_8_c.jpg"" style=""width: 300px; height: 300px;"" />
              </div>","null",""
"","","","","","html-keyboard-response","27","112828","0.0-19.0-0.0-2.0","EEC1B671FC4C4C4BBA59C4C618C1CEB0","7e9a408e-f5aa-4d24-b121-ba24ba594c98","4f03f330-5f91-43fc-aa61-d9dda6d26521","","null","<div style=""display: flex; justify-content: center; align-items: center;"">
                <img src=""images/causal/causal_series_8/causal_series_8_d.jpg"" style=""width: 300px; height: 300px;"" />
              </div>","null",""
"","","","","","html-keyboard-response","28","115833","0.0-20.0","EEC1B671FC4C4C4BBA59C4C618C1CEB0","7e9a408e-f5aa-4d24-b121-ba24ba594c98","4f03f330-5f91-43fc-aa61-d9dda6d26521","","null","<div style=""display: flex; justify-content: center; align-items: center;"">
                <img src=""images/other/blank.jpg"" style=""width: 300px; height: 300px;"" />
              </div>","null",""
"","","","","","html-keyboard-response","29","118843","0.0-21.0","EEC1B671FC4C4C4BBA59C4C618C1CEB0","7e9a408e-f5aa-4d24-b121-ba24ba594c98","4f03f330-5f91-43fc-aa61-d9dda6d26521","","null","<div style=""display: flex; justify-content: center; align-items: center;"">
                <img src=""images/causal/causal_series_4/causal_series_4_a.jpg"" style=""width: 300px; height: 300px;"" />
              </div>","null",""
"","","","","","html-button-response","30","122339","0.0-22.0","EEC1B671FC4C4C4BBA59C4C618C1CEB0","7e9a408e-f5aa-4d24-b121-ba24ba594c98","4f03f330-5f91-43fc-aa61-d9dda6d26521","","3496","
    <div style=""display: flex; justify-content: center; align-items: center;"">
      <img src=""images/red_deck_2.png"" style=""width: 300px; height: 300px; margin-right: 10px;"" />
      <img src=""images/blue_deck_1.png"" style=""width: 300px; height: 300px;"" />
    </div>","0","0"
"","","","","","html-keyboard-response","31","125344","0.0-23.0-0.0-0.0","EEC1B671FC4C4C4BBA59C4C618C1CEB0","7e9a408e-f5aa-4d24-b121-ba24ba594c98","4f03f330-5f91-43fc-aa61-d9dda6d26521","","null","<div style=""display: flex; justify-content: center; align-items: center;"">
                <img src=""images/causal/causal_series_4/causal_series_4_b.jpg"" style=""width: 300px; height: 300px;"" />
              </div>","null",""
"","","","","","html-keyboard-response","32","128350","0.0-23.0-0.0-1.0","EEC1B671FC4C4C4BBA59C4C618C1CEB0","7e9a408e-f5aa-4d24-b121-ba24ba594c98","4f03f330-5f91-43fc-aa61-d9dda6d26521","","null","<div style=""display: flex; justify-content: center; align-items: center;"">
                <img src=""images/causal/causal_series_4/causal_series_4_c.jpg"" style=""width: 300px; height: 300px;"" />
              </div>","null",""
"","","","","","html-keyboard-response","33","131360","0.0-23.0-0.0-2.0","EEC1B671FC4C4C4BBA59C4C618C1CEB0","7e9a408e-f5aa-4d24-b121-ba24ba594c98","4f03f330-5f91-43fc-aa61-d9dda6d26521","","null","<div style=""display: flex; justify-content: center; align-items: center;"">
                <img src=""images/causal/causal_series_4/causal_series_4_d.jpg"" style=""width: 300px; height: 300px;"" />
              </div>","null",""
"","","","","","html-keyboard-response","34","134370","0.0-24.0","EEC1B671FC4C4C4BBA59C4C618C1CEB0","7e9a408e-f5aa-4d24-b121-ba24ba594c98","4f03f330-5f91-43fc-aa61-d9dda6d26521","","null","<div style=""display: flex; justify-content: center; align-items: center;"">
                <img src=""images/other/blank.jpg"" style=""width: 300px; height: 300px;"" />
              </div>","null",""
"","","","","","html-keyboard-response","35","137383","0.0-25.0","EEC1B671FC4C4C4BBA59C4C618C1CEB0","7e9a408e-f5aa-4d24-b121-ba24ba594c98","4f03f330-5f91-43fc-aa61-d9dda6d26521","","null","<div style=""display: flex; justify-content: center; align-items: center;"">
                <img src=""images/causal/causal_series_16/causal_series_16_a.jpg"" style=""width: 300px; height: 300px;"" />
              </div>","null",""
"","","","","","html-button-response","36","141331","0.0-26.0","EEC1B671FC4C4C4BBA59C4C618C1CEB0","7e9a408e-f5aa-4d24-b121-ba24ba594c98","4f03f330-5f91-43fc-aa61-d9dda6d26521","","3947","
    <div style=""display: flex; justify-content: center; align-items: center;"">
      <img src=""images/red_deck_2.png"" style=""width: 300px; height: 300px; margin-right: 10px;"" />
      <img src=""images/blue_deck_1.png"" style=""width: 300px; height: 300px;"" />
    </div>","0","0"
"","","","","","html-keyboard-response","37","144339","0.0-27.0-0.0-0.0","EEC1B671FC4C4C4BBA59C4C618C1CEB0","7e9a408e-f5aa-4d24-b121-ba24ba594c98","4f03f330-5f91-43fc-aa61-d9dda6d26521","","null","<div style=""display: flex; justify-content: center; align-items: center;"">
                <img src=""images/causal/causal_series_16/causal_series_16_b.jpg"" style=""width: 300px; height: 300px;"" />
              </div>","null",""
"","","","","","html-keyboard-response","38","147351","0.0-27.0-0.0-1.0","EEC1B671FC4C4C4BBA59C4C618C1CEB0","7e9a408e-f5aa-4d24-b121-ba24ba594c98","4f03f330-5f91-43fc-aa61-d9dda6d26521","","null","<div style=""display: flex; justify-content: center; align-items: center;"">
                <img src=""images/causal/causal_series_16/causal_series_16_c.jpg"" style=""width: 300px; height: 300px;"" />
              </div>","null",""
"","","","","","html-keyboard-response","39","150352","0.0-27.0-0.0-2.0","EEC1B671FC4C4C4BBA59C4C618C1CEB0","7e9a408e-f5aa-4d24-b121-ba24ba594c98","4f03f330-5f91-43fc-aa61-d9dda6d26521","","null","<div style=""display: flex; justify-content: center; align-items: center;"">
                <img src=""images/causal/causal_series_16/causal_series_16_d.jpg"" style=""width: 300px; height: 300px;"" />
              </div>","null",""
"","","","","","html-keyboard-response","40","153360","0.0-28.0","EEC1B671FC4C4C4BBA59C4C618C1CEB0","7e9a408e-f5aa-4d24-b121-ba24ba594c98","4f03f330-5f91-43fc-aa61-d9dda6d26521","","null","<div style=""display: flex; justify-content: center; align-items: center;"">
                <img src=""images/other/blank.jpg"" style=""width: 300px; height: 300px;"" />
              </div>","null",""
"","","","","","html-keyboard-response","41","156366","0.0-29.0","EEC1B671FC4C4C4BBA59C4C618C1CEB0","7e9a408e-f5aa-4d24-b121-ba24ba594c98","4f03f330-5f91-43fc-aa61-d9dda6d26521","","null","<div style=""display: flex; justify-content: center; align-items: center;"">
                <img src=""images/causal/causal_series_1/causal_series_1_a.jpg"" style=""width: 300px; height: 300px;"" />
              </div>","null",""
"","","","","","html-button-response","42","161347","0.0-30.0","EEC1B671FC4C4C4BBA59C4C618C1CEB0","7e9a408e-f5aa-4d24-b121-ba24ba594c98","4f03f330-5f91-43fc-aa61-d9dda6d26521","","4981","
    <div style=""display: flex; justify-content: center; align-items: center;"">
      <img src=""images/red_deck_2.png"" style=""width: 300px; height: 300px; margin-right: 10px;"" />
      <img src=""images/blue_deck_1.png"" style=""width: 300px; height: 300px;"" />
    </div>","0","0"
"","","","","","html-keyboard-response","43","164349","0.0-31.0-0.0-0.0","EEC1B671FC4C4C4BBA59C4C618C1CEB0","7e9a408e-f5aa-4d24-b121-ba24ba594c98","4f03f330-5f91-43fc-aa61-d9dda6d26521","","null","<div style=""display: flex; justify-content: center; align-items: center;"">
                <img src=""images/causal/causal_series_1/causal_series_1_b.jpg"" style=""width: 300px; height: 300px;"" />
              </div>","null",""
"","","","","","html-keyboard-response","44","167360","0.0-31.0-0.0-1.0","EEC1B671FC4C4C4BBA59C4C618C1CEB0","7e9a408e-f5aa-4d24-b121-ba24ba594c98","4f03f330-5f91-43fc-aa61-d9dda6d26521","","null","<div style=""display: flex; justify-content: center; align-items: center;"">
                <img src=""images/causal/causal_series_1/causal_series_1_c.jpg"" style=""width: 300px; height: 300px;"" />
              </div>","null",""
"","","","","","html-keyboard-response","45","170370","0.0-31.0-0.0-2.0","EEC1B671FC4C4C4BBA59C4C618C1CEB0","7e9a408e-f5aa-4d24-b121-ba24ba594c98","4f03f330-5f91-43fc-aa61-d9dda6d26521","","null","<div style=""display: flex; justify-content: center; align-items: center;"">
                <img src=""images/causal/causal_series_1/causal_series_1_d.jpg"" style=""width: 300px; height: 300px;"" />
              </div>","null",""
"","","","","","html-keyboard-response","46","173384","0.0-32.0","EEC1B671FC4C4C4BBA59C4C618C1CEB0","7e9a408e-f5aa-4d24-b121-ba24ba594c98","4f03f330-5f91-43fc-aa61-d9dda6d26521","","null","<div style=""display: flex; justify-content: center; align-items: center;"">
                <img src=""images/other/blank.jpg"" style=""width: 300px; height: 300px;"" />
              </div>","null",""
"","","","","","html-keyboard-response","47","176396","0.0-33.0","EEC1B671FC4C4C4BBA59C4C618C1CEB0","7e9a408e-f5aa-4d24-b121-ba24ba594c98","4f03f330-5f91-43fc-aa61-d9dda6d26521","","null","<div style=""display: flex; justify-content: center; align-items: center;"">
                <img src=""images/causal/causal_series_11/causal_series_11_a.jpg"" style=""width: 300px; height: 300px;"" />
              </div>","null",""
"","","","","","html-button-response","48","177452","0.0-34.0","EEC1B671FC4C4C4BBA59C4C618C1CEB0","7e9a408e-f5aa-4d24-b121-ba24ba594c98","4f03f330-5f91-43fc-aa61-d9dda6d26521","","1055","
    <div style=""display: flex; justify-content: center; align-items: center;"">
      <img src=""images/red_deck_2.png"" style=""width: 300px; height: 300px; margin-right: 10px;"" />
      <img src=""images/blue_deck_1.png"" style=""width: 300px; height: 300px;"" />
    </div>","1","1"
"","","","","","html-keyboard-response","49","180467","0.0-35.0-1.0-0.0","EEC1B671FC4C4C4BBA59C4C618C1CEB0","7e9a408e-f5aa-4d24-b121-ba24ba594c98","4f03f330-5f91-43fc-aa61-d9dda6d26521","","null","<div style=""display: flex; justify-content: center; align-items: center;"">
                <img src=""images/semantic/semantic_series_12/semantic_series_12_d.jpg"" style=""width: 300px; height: 300px;"" />
              </div>","null",""
"","","","","","html-keyboard-response","50","183482","0.0-35.0-1.0-1.0","EEC1B671FC4C4C4BBA59C4C618C1CEB0","7e9a408e-f5aa-4d24-b121-ba24ba594c98","4f03f330-5f91-43fc-aa61-d9dda6d26521","","null","<div style=""display: flex; justify-content: center; align-items: center;"">
                <img src=""images/semantic/semantic_series_13/semantic_series_13_d.jpg"" style=""width: 300px; height: 300px;"" />
              </div>","null",""
"","","","","","html-keyboard-response","51","186496","0.0-35.0-1.0-2.0","EEC1B671FC4C4C4BBA59C4C618C1CEB0","7e9a408e-f5aa-4d24-b121-ba24ba594c98","4f03f330-5f91-43fc-aa61-d9dda6d26521","","null","<div style=""display: flex; justify-content: center; align-items: center;"">
                <img src=""images/semantic/semantic_series_14/semantic_series_14_d.jpg"" style=""width: 300px; height: 300px;"" />
              </div>","null",""
"","","","","","html-keyboard-response","52","189504","0.0-36.0","EEC1B671FC4C4C4BBA59C4C618C1CEB0","7e9a408e-f5aa-4d24-b121-ba24ba594c98","4f03f330-5f91-43fc-aa61-d9dda6d26521","","null","<div style=""display: flex; justify-content: center; align-items: center;"">
                <img src=""images/other/blank.jpg"" style=""width: 300px; height: 300px;"" />
              </div>","null",""
"","","","","","html-keyboard-response","53","192517","0.0-37.0","EEC1B671FC4C4C4BBA59C4C618C1CEB0","7e9a408e-f5aa-4d24-b121-ba24ba594c98","4f03f330-5f91-43fc-aa61-d9dda6d26521","","null","<div style=""display: flex; justify-content: center; align-items: center;"">
                <img src=""images/causal/causal_series_15/causal_series_15_a.jpg"" style=""width: 300px; height: 300px;"" />
              </div>","null",""
"","","","","","html-button-response","54","195347","0.0-38.0","EEC1B671FC4C4C4BBA59C4C618C1CEB0","7e9a408e-f5aa-4d24-b121-ba24ba594c98","4f03f330-5f91-43fc-aa61-d9dda6d26521","","2829","
    <div style=""display: flex; justify-content: center; align-items: center;"">
      <img src=""images/red_deck_2.png"" style=""width: 300px; height: 300px; margin-right: 10px;"" />
      <img src=""images/blue_deck_1.png"" style=""width: 300px; height: 300px;"" />
    </div>","1","1"
"","","","","","html-keyboard-response","55","198361","0.0-39.0-1.0-0.0","EEC1B671FC4C4C4BBA59C4C618C1CEB0","7e9a408e-f5aa-4d24-b121-ba24ba594c98","4f03f330-5f91-43fc-aa61-d9dda6d26521","","null","<div style=""display: flex; justify-content: center; align-items: center;"">
                <img src=""images/semantic/semantic_series_6/semantic_series_6_d.jpg"" style=""width: 300px; height: 300px;"" />
              </div>","null",""
"","","","","","html-keyboard-response","56","201364","0.0-39.0-1.0-1.0","EEC1B671FC4C4C4BBA59C4C618C1CEB0","7e9a408e-f5aa-4d24-b121-ba24ba594c98","4f03f330-5f91-43fc-aa61-d9dda6d26521","","null","<div style=""display: flex; justify-content: center; align-items: center;"">
                <img src=""images/semantic/semantic_series_7/semantic_series_7_d.jpg"" style=""width: 300px; height: 300px;"" />
              </div>","null",""
"","","","","","html-keyboard-response","57","204378","0.0-39.0-1.0-2.0","EEC1B671FC4C4C4BBA59C4C618C1CEB0","7e9a408e-f5aa-4d24-b121-ba24ba594c98","4f03f330-5f91-43fc-aa61-d9dda6d26521","","null","<div style=""display: flex; justify-content: center; align-items: center;"">
                <img src=""images/semantic/semantic_series_8/semantic_series_8_d.jpg"" style=""width: 300px; height: 300px;"" />
              </div>","null",""
"","","","","","html-keyboard-response","58","207386","0.0-40.0","EEC1B671FC4C4C4BBA59C4C618C1CEB0","7e9a408e-f5aa-4d24-b121-ba24ba594c98","4f03f330-5f91-43fc-aa61-d9dda6d26521","","null","<div style=""display: flex; justify-content: center; align-items: center;"">
                <img src=""images/other/blank.jpg"" style=""width: 300px; height: 300px;"" />
              </div>","null",""
"","","","","","html-keyboard-response","59","210398","0.0-41.0","EEC1B671FC4C4C4BBA59C4C618C1CEB0","7e9a408e-f5aa-4d24-b121-ba24ba594c98","4f03f330-5f91-43fc-aa61-d9dda6d26521","","null","<div style=""display: flex; justify-content: center; align-items: center;"">
                <img src=""images/causal/causal_series_7/causal_series_7_a.jpg"" style=""width: 300px; height: 300px;"" />
              </div>","null",""
"","","","","","html-button-response","60","223627","0.0-42.0","EEC1B671FC4C4C4BBA59C4C618C1CEB0","7e9a408e-f5aa-4d24-b121-ba24ba594c98","4f03f330-5f91-43fc-aa61-d9dda6d26521","","13229","
    <div style=""display: flex; justify-content: center; align-items: center;"">
      <img src=""images/red_deck_2.png"" style=""width: 300px; height: 300px; margin-right: 10px;"" />
      <img src=""images/blue_deck_1.png"" style=""width: 300px; height: 300px;"" />
    </div>","0","0"
"","","","","","html-keyboard-response","61","226634","0.0-43.0-0.0-0.0","EEC1B671FC4C4C4BBA59C4C618C1CEB0","7e9a408e-f5aa-4d24-b121-ba24ba594c98","4f03f330-5f91-43fc-aa61-d9dda6d26521","","null","<div style=""display: flex; justify-content: center; align-items: center;"">
                <img src=""images/causal/causal_series_7/causal_series_7_b.jpg"" style=""width: 300px; height: 300px;"" />
              </div>","null",""
"","","","","","html-keyboard-response","62","229641","0.0-43.0-0.0-1.0","EEC1B671FC4C4C4BBA59C4C618C1CEB0","7e9a408e-f5aa-4d24-b121-ba24ba594c98","4f03f330-5f91-43fc-aa61-d9dda6d26521","","null","<div style=""display: flex; justify-content: center; align-items: center;"">
                <img src=""images/causal/causal_series_7/causal_series_7_c.jpg"" style=""width: 300px; height: 300px;"" />
              </div>","null",""
"","","","","","html-keyboard-response","63","232644","0.0-43.0-0.0-2.0","EEC1B671FC4C4C4BBA59C4C618C1CEB0","7e9a408e-f5aa-4d24-b121-ba24ba594c98","4f03f330-5f91-43fc-aa61-d9dda6d26521","","null","<div style=""display: flex; justify-content: center; align-items: center;"">
                <img src=""images/causal/causal_series_7/causal_series_7_d.jpg"" style=""width: 300px; height: 300px;"" />
              </div>","null",""
"","","","","","html-keyboard-response","64","235660","0.0-44.0","EEC1B671FC4C4C4BBA59C4C618C1CEB0","7e9a408e-f5aa-4d24-b121-ba24ba594c98","4f03f330-5f91-43fc-aa61-d9dda6d26521","","null","<div style=""display: flex; justify-content: center; align-items: center;"">
                <img src=""images/other/blank.jpg"" style=""width: 300px; height: 300px;"" />
              </div>","null",""
"","","","","","html-keyboard-response","65","238672","0.0-45.0","EEC1B671FC4C4C4BBA59C4C618C1CEB0","7e9a408e-f5aa-4d24-b121-ba24ba594c98","4f03f330-5f91-43fc-aa61-d9dda6d26521","","null","<div style=""display: flex; justify-content: center; align-items: center;"">
                <img src=""images/causal/causal_series_9/causal_series_9_a.jpg"" style=""width: 300px; height: 300px;"" />
              </div>","null",""
"","","","","","html-button-response","66","262107","0.0-46.0","EEC1B671FC4C4C4BBA59C4C618C1CEB0","7e9a408e-f5aa-4d24-b121-ba24ba594c98","4f03f330-5f91-43fc-aa61-d9dda6d26521","","23434","
    <div style=""display: flex; justify-content: center; align-items: center;"">
      <img src=""images/red_deck_2.png"" style=""width: 300px; height: 300px; margin-right: 10px;"" />
      <img src=""images/blue_deck_1.png"" style=""width: 300px; height: 300px;"" />
    </div>","1","1"
"","","","","","html-keyboard-response","67","265120","0.0-47.0-1.0-0.0","EEC1B671FC4C4C4BBA59C4C618C1CEB0","7e9a408e-f5aa-4d24-b121-ba24ba594c98","4f03f330-5f91-43fc-aa61-d9dda6d26521","","null","<div style=""display: flex; justify-content: center; align-items: center;"">
                <img src=""images/semantic/semantic_series_6/semantic_series_6_d.jpg"" style=""width: 300px; height: 300px;"" />
              </div>","null",""
"","","","","","html-keyboard-response","68","268124","0.0-47.0-1.0-1.0","EEC1B671FC4C4C4BBA59C4C618C1CEB0","7e9a408e-f5aa-4d24-b121-ba24ba594c98","4f03f330-5f91-43fc-aa61-d9dda6d26521","","null","<div style=""display: flex; justify-content: center; align-items: center;"">
                <img src=""images/semantic/semantic_series_7/semantic_series_7_d.jpg"" style=""width: 300px; height: 300px;"" />
              </div>","null",""
"","","","","","html-keyboard-response","69","271126","0.0-47.0-1.0-2.0","EEC1B671FC4C4C4BBA59C4C618C1CEB0","7e9a408e-f5aa-4d24-b121-ba24ba594c98","4f03f330-5f91-43fc-aa61-d9dda6d26521","","null","<div style=""display: flex; justify-content: center; align-items: center;"">
                <img src=""images/semantic/semantic_series_8/semantic_series_8_d.jpg"" style=""width: 300px; height: 300px;"" />
              </div>","null",""
"","","","","","html-keyboard-response","70","274139","0.0-48.0","EEC1B671FC4C4C4BBA59C4C618C1CEB0","7e9a408e-f5aa-4d24-b121-ba24ba594c98","4f03f330-5f91-43fc-aa61-d9dda6d26521","","null","<div style=""display: flex; justify-content: center; align-items: center;"">
                <img src=""images/other/blank.jpg"" style=""width: 300px; height: 300px;"" />
              </div>","null",""
"","","","","","html-keyboard-response","71","277147","0.0-49.0","EEC1B671FC4C4C4BBA59C4C618C1CEB0","7e9a408e-f5aa-4d24-b121-ba24ba594c98","4f03f330-5f91-43fc-aa61-d9dda6d26521","","null","<div style=""display: flex; justify-content: center; align-items: center;"">
                <img src=""images/causal/causal_series_12/causal_series_12_a.jpg"" style=""width: 300px; height: 300px;"" />
              </div>","null",""
"","","","","","html-button-response","72","278379","0.0-50.0","EEC1B671FC4C4C4BBA59C4C618C1CEB0","7e9a408e-f5aa-4d24-b121-ba24ba594c98","4f03f330-5f91-43fc-aa61-d9dda6d26521","","1231","
    <div style=""display: flex; justify-content: center; align-items: center;"">
      <img src=""images/red_deck_2.png"" style=""width: 300px; height: 300px; margin-right: 10px;"" />
      <img src=""images/blue_deck_1.png"" style=""width: 300px; height: 300px;"" />
    </div>","0","0"
"","","","","","html-keyboard-response","73","281392","0.0-51.0-0.0-0.0","EEC1B671FC4C4C4BBA59C4C618C1CEB0","7e9a408e-f5aa-4d24-b121-ba24ba594c98","4f03f330-5f91-43fc-aa61-d9dda6d26521","","null","<div style=""display: flex; justify-content: center; align-items: center;"">
                <img src=""images/causal/causal_series_12/causal_series_12_b.jpg"" style=""width: 300px; height: 300px;"" />
              </div>","null",""
"","","","","","html-keyboard-response","74","284398","0.0-51.0-0.0-1.0","EEC1B671FC4C4C4BBA59C4C618C1CEB0","7e9a408e-f5aa-4d24-b121-ba24ba594c98","4f03f330-5f91-43fc-aa61-d9dda6d26521","","null","<div style=""display: flex; justify-content: center; align-items: center;"">
                <img src=""images/causal/causal_series_12/causal_series_12_c.jpg"" style=""width: 300px; height: 300px;"" />
              </div>","null",""
"","","","","","html-keyboard-response","75","287409","0.0-51.0-0.0-2.0","EEC1B671FC4C4C4BBA59C4C618C1CEB0","7e9a408e-f5aa-4d24-b121-ba24ba594c98","4f03f330-5f91-43fc-aa61-d9dda6d26521","","null","<div style=""display: flex; justify-content: center; align-items: center;"">
                <img src=""images/causal/causal_series_12/causal_series_12_d.jpg"" style=""width: 300px; height: 300px;"" />
              </div>","null",""
"","","","","","html-keyboard-response","76","290418","0.0-52.0","EEC1B671FC4C4C4BBA59C4C618C1CEB0","7e9a408e-f5aa-4d24-b121-ba24ba594c98","4f03f330-5f91-43fc-aa61-d9dda6d26521","","null","<div style=""display: flex; justify-content: center; align-items: center;"">
                <img src=""images/other/blank.jpg"" style=""width: 300px; height: 300px;"" />
              </div>","null",""
"","","","","","html-keyboard-response","77","293435","0.0-53.0","EEC1B671FC4C4C4BBA59C4C618C1CEB0","7e9a408e-f5aa-4d24-b121-ba24ba594c98","4f03f330-5f91-43fc-aa61-d9dda6d26521","","null","<div style=""display: flex; justify-content: center; align-items: center;"">
                <img src=""images/causal/causal_series_2/causal_series_2_a.jpg"" style=""width: 300px; height: 300px;"" />
              </div>","null",""
"","","","","","html-button-response","78","312851","0.0-54.0","EEC1B671FC4C4C4BBA59C4C618C1CEB0","7e9a408e-f5aa-4d24-b121-ba24ba594c98","4f03f330-5f91-43fc-aa61-d9dda6d26521","","19415","
    <div style=""display: flex; justify-content: center; align-items: center;"">
      <img src=""images/red_deck_2.png"" style=""width: 300px; height: 300px; margin-right: 10px;"" />
      <img src=""images/blue_deck_1.png"" style=""width: 300px; height: 300px;"" />
    </div>","1","1"
"","","","","","html-keyboard-response","79","315855","0.0-55.0-1.0-0.0","EEC1B671FC4C4C4BBA59C4C618C1CEB0","7e9a408e-f5aa-4d24-b121-ba24ba594c98","4f03f330-5f91-43fc-aa61-d9dda6d26521","","null","<div style=""display: flex; justify-content: center; align-items: center;"">
                <img src=""images/semantic/semantic_series_3/semantic_series_3_d.jpg"" style=""width: 300px; height: 300px;"" />
              </div>","null",""
"","","","","","html-keyboard-response","80","318864","0.0-55.0-1.0-1.0","EEC1B671FC4C4C4BBA59C4C618C1CEB0","7e9a408e-f5aa-4d24-b121-ba24ba594c98","4f03f330-5f91-43fc-aa61-d9dda6d26521","","null","<div style=""display: flex; justify-content: center; align-items: center;"">
                <img src=""images/semantic/semantic_series_4/semantic_series_4_d.jpg"" style=""width: 300px; height: 300px;"" />
              </div>","null",""
"","","","","","html-keyboard-response","81","321869","0.0-55.0-1.0-2.0","EEC1B671FC4C4C4BBA59C4C618C1CEB0","7e9a408e-f5aa-4d24-b121-ba24ba594c98","4f03f330-5f91-43fc-aa61-d9dda6d26521","","null","<div style=""display: flex; justify-content: center; align-items: center;"">
                <img src=""images/semantic/semantic_series_5/semantic_series_5_d.jpg"" style=""width: 300px; height: 300px;"" />
              </div>","null",""
"","","","","","html-keyboard-response","82","324880","0.0-56.0","EEC1B671FC4C4C4BBA59C4C618C1CEB0","7e9a408e-f5aa-4d24-b121-ba24ba594c98","4f03f330-5f91-43fc-aa61-d9dda6d26521","","null","<div style=""display: flex; justify-content: center; align-items: center;"">
                <img src=""images/other/blank.jpg"" style=""width: 300px; height: 300px;"" />
              </div>","null",""
"","","","","","html-keyboard-response","83","327888","0.0-57.0","EEC1B671FC4C4C4BBA59C4C618C1CEB0","7e9a408e-f5aa-4d24-b121-ba24ba594c98","4f03f330-5f91-43fc-aa61-d9dda6d26521","","null","<div style=""display: flex; justify-content: center; align-items: center;"">
                <img src=""images/causal/causal_series_14/causal_series_14_a.jpg"" style=""width: 300px; height: 300px;"" />
              </div>","null",""
"","","","","","html-button-response","84","336371","0.0-58.0","EEC1B671FC4C4C4BBA59C4C618C1CEB0","7e9a408e-f5aa-4d24-b121-ba24ba594c98","4f03f330-5f91-43fc-aa61-d9dda6d26521","","8482","
    <div style=""display: flex; justify-content: center; align-items: center;"">
      <img src=""images/red_deck_2.png"" style=""width: 300px; height: 300px; margin-right: 10px;"" />
      <img src=""images/blue_deck_1.png"" style=""width: 300px; height: 300px;"" />
    </div>","1","1"
"","","","","","html-keyboard-response","85","339381","0.0-59.0-1.0-0.0","EEC1B671FC4C4C4BBA59C4C618C1CEB0","7e9a408e-f5aa-4d24-b121-ba24ba594c98","4f03f330-5f91-43fc-aa61-d9dda6d26521","","null","<div style=""display: flex; justify-content: center; align-items: center;"">
                <img src=""images/semantic/semantic_series_3/semantic_series_3_d.jpg"" style=""width: 300px; height: 300px;"" />
              </div>","null",""
"","","","","","html-keyboard-response","86","342384","0.0-59.0-1.0-1.0","EEC1B671FC4C4C4BBA59C4C618C1CEB0","7e9a408e-f5aa-4d24-b121-ba24ba594c98","4f03f330-5f91-43fc-aa61-d9dda6d26521","","null","<div style=""display: flex; justify-content: center; align-items: center;"">
                <img src=""images/semantic/semantic_series_4/semantic_series_4_d.jpg"" style=""width: 300px; height: 300px;"" />
              </div>","null",""
"","","","","","html-keyboard-response","87","345401","0.0-59.0-1.0-2.0","EEC1B671FC4C4C4BBA59C4C618C1CEB0","7e9a408e-f5aa-4d24-b121-ba24ba594c98","4f03f330-5f91-43fc-aa61-d9dda6d26521","","null","<div style=""display: flex; justify-content: center; align-items: center;"">
                <img src=""images/semantic/semantic_series_5/semantic_series_5_d.jpg"" style=""width: 300px; height: 300px;"" />
              </div>","null",""
"","","","","","html-keyboard-response","88","348402","0.0-60.0","EEC1B671FC4C4C4BBA59C4C618C1CEB0","7e9a408e-f5aa-4d24-b121-ba24ba594c98","4f03f330-5f91-43fc-aa61-d9dda6d26521","","null","<div style=""display: flex; justify-content: center; align-items: center;"">
                <img src=""images/other/blank.jpg"" style=""width: 300px; height: 300px;"" />
              </div>","null",""
"","","","","","html-keyboard-response","89","351404","0.0-61.0","EEC1B671FC4C4C4BBA59C4C618C1CEB0","7e9a408e-f5aa-4d24-b121-ba24ba594c98","4f03f330-5f91-43fc-aa61-d9dda6d26521","","null","<div style=""display: flex; justify-content: center; align-items: center;"">
                <img src=""images/causal/causal_series_5/causal_series_5_a.jpg"" style=""width: 300px; height: 300px;"" />
              </div>","null",""
"","","","","","html-button-response","90","353123","0.0-62.0","EEC1B671FC4C4C4BBA59C4C618C1CEB0","7e9a408e-f5aa-4d24-b121-ba24ba594c98","4f03f330-5f91-43fc-aa61-d9dda6d26521","","1718","
    <div style=""display: flex; justify-content: center; align-items: center;"">
      <img src=""images/red_deck_2.png"" style=""width: 300px; height: 300px; margin-right: 10px;"" />
      <img src=""images/blue_deck_1.png"" style=""width: 300px; height: 300px;"" />
    </div>","0","0"
"","","","","","html-keyboard-response","91","356123","0.0-63.0-0.0-0.0","EEC1B671FC4C4C4BBA59C4C618C1CEB0","7e9a408e-f5aa-4d24-b121-ba24ba594c98","4f03f330-5f91-43fc-aa61-d9dda6d26521","","null","<div style=""display: flex; justify-content: center; align-items: center;"">
                <img src=""images/causal/causal_series_5/causal_series_5_b.jpg"" style=""width: 300px; height: 300px;"" />
              </div>","null",""
"","","","","","html-keyboard-response","92","359130","0.0-63.0-0.0-1.0","EEC1B671FC4C4C4BBA59C4C618C1CEB0","7e9a408e-f5aa-4d24-b121-ba24ba594c98","4f03f330-5f91-43fc-aa61-d9dda6d26521","","null","<div style=""display: flex; justify-content: center; align-items: center;"">
                <img src=""images/causal/causal_series_5/causal_series_5_c.jpg"" style=""width: 300px; height: 300px;"" />
              </div>","null",""
"","","","","","html-keyboard-response","93","362140","0.0-63.0-0.0-2.0","EEC1B671FC4C4C4BBA59C4C618C1CEB0","7e9a408e-f5aa-4d24-b121-ba24ba594c98","4f03f330-5f91-43fc-aa61-d9dda6d26521","","null","<div style=""display: flex; justify-content: center; align-items: center;"">
                <img src=""images/causal/causal_series_5/causal_series_5_d.jpg"" style=""width: 300px; height: 300px;"" />
              </div>","null",""
"","","","","","html-keyboard-response","94","365154","0.0-64.0","EEC1B671FC4C4C4BBA59C4C618C1CEB0","7e9a408e-f5aa-4d24-b121-ba24ba594c98","4f03f330-5f91-43fc-aa61-d9dda6d26521","","null","<div style=""display: flex; justify-content: center; align-items: center;"">
                <img src=""images/other/blank.jpg"" style=""width: 300px; height: 300px;"" />
              </div>","null",""
"","","","","","html-keyboard-response","95","368168","0.0-65.0","EEC1B671FC4C4C4BBA59C4C618C1CEB0","7e9a408e-f5aa-4d24-b121-ba24ba594c98","4f03f330-5f91-43fc-aa61-d9dda6d26521","","null","<div style=""display: flex; justify-content: center; align-items: center;"">
                <img src=""images/causal/causal_series_6/causal_series_6_a.jpg"" style=""width: 300px; height: 300px;"" />
              </div>","null",""
"","","","","","html-button-response","96","402906","0.0-66.0","EEC1B671FC4C4C4BBA59C4C618C1CEB0","7e9a408e-f5aa-4d24-b121-ba24ba594c98","4f03f330-5f91-43fc-aa61-d9dda6d26521","","34738","
    <div style=""display: flex; justify-content: center; align-items: center;"">
      <img src=""images/red_deck_2.png"" style=""width: 300px; height: 300px; margin-right: 10px;"" />
      <img src=""images/blue_deck_1.png"" style=""width: 300px; height: 300px;"" />
    </div>","0","0"
"","","","","","html-keyboard-response","97","405916","0.0-67.0-0.0-0.0","EEC1B671FC4C4C4BBA59C4C618C1CEB0","7e9a408e-f5aa-4d24-b121-ba24ba594c98","4f03f330-5f91-43fc-aa61-d9dda6d26521","","null","<div style=""display: flex; justify-content: center; align-items: center;"">
                <img src=""images/causal/causal_series_6/causal_series_6_b.jpg"" style=""width: 300px; height: 300px;"" />
              </div>","null",""
"","","","","","html-keyboard-response","98","408928","0.0-67.0-0.0-1.0","EEC1B671FC4C4C4BBA59C4C618C1CEB0","7e9a408e-f5aa-4d24-b121-ba24ba594c98","4f03f330-5f91-43fc-aa61-d9dda6d26521","","null","<div style=""display: flex; justify-content: center; align-items: center;"">
                <img src=""images/causal/causal_series_6/causal_series_6_c.jpg"" style=""width: 300px; height: 300px;"" />
              </div>","null",""
"","","","","","html-keyboard-response","99","411936","0.0-67.0-0.0-2.0","EEC1B671FC4C4C4BBA59C4C618C1CEB0","7e9a408e-f5aa-4d24-b121-ba24ba594c98","4f03f330-5f91-43fc-aa61-d9dda6d26521","","null","<div style=""display: flex; justify-content: center; align-items: center;"">
                <img src=""images/causal/causal_series_6/causal_series_6_d.jpg"" style=""width: 300px; height: 300px;"" />
              </div>","null",""
"","","","","","html-keyboard-response","100","414939","0.0-68.0","EEC1B671FC4C4C4BBA59C4C618C1CEB0","7e9a408e-f5aa-4d24-b121-ba24ba594c98","4f03f330-5f91-43fc-aa61-d9dda6d26521","","null","<div style=""display: flex; justify-content: center; align-items: center;"">
                <img src=""images/other/blank.jpg"" style=""width: 300px; height: 300px;"" />
              </div>","null",""
"","","","","","html-keyboard-response","101","417954","0.0-69.0","EEC1B671FC4C4C4BBA59C4C618C1CEB0","7e9a408e-f5aa-4d24-b121-ba24ba594c98","4f03f330-5f91-43fc-aa61-d9dda6d26521","","null","<div style=""display: flex; justify-content: center; align-items: center;"">
                <img src=""images/causal/causal_series_10/causal_series_10_a.jpg"" style=""width: 300px; height: 300px;"" />
              </div>","null",""
"","","","","","html-button-response","102","452947","0.0-70.0","EEC1B671FC4C4C4BBA59C4C618C1CEB0","7e9a408e-f5aa-4d24-b121-ba24ba594c98","4f03f330-5f91-43fc-aa61-d9dda6d26521","","34992","
    <div style=""display: flex; justify-content: center; align-items: center;"">
      <img src=""images/red_deck_2.png"" style=""width: 300px; height: 300px; margin-right: 10px;"" />
      <img src=""images/blue_deck_1.png"" style=""width: 300px; height: 300px;"" />
    </div>","0","0"
"","","","","","html-keyboard-response","103","455955","0.0-71.0-0.0-0.0","EEC1B671FC4C4C4BBA59C4C618C1CEB0","7e9a408e-f5aa-4d24-b121-ba24ba594c98","4f03f330-5f91-43fc-aa61-d9dda6d26521","","null","<div style=""display: flex; justify-content: center; align-items: center;"">
                <img src=""images/causal/causal_series_10/causal_series_10_b.jpg"" style=""width: 300px; height: 300px;"" />
              </div>","null",""
"","","","","","html-keyboard-response","104","458966","0.0-71.0-0.0-1.0","EEC1B671FC4C4C4BBA59C4C618C1CEB0","7e9a408e-f5aa-4d24-b121-ba24ba594c98","4f03f330-5f91-43fc-aa61-d9dda6d26521","","null","<div style=""display: flex; justify-content: center; align-items: center;"">
                <img src=""images/causal/causal_series_10/causal_series_10_c.jpg"" style=""width: 300px; height: 300px;"" />
              </div>","null",""
"","","","","","html-keyboard-response","105","461974","0.0-71.0-0.0-2.0","EEC1B671FC4C4C4BBA59C4C618C1CEB0","7e9a408e-f5aa-4d24-b121-ba24ba594c98","4f03f330-5f91-43fc-aa61-d9dda6d26521","","null","<div style=""display: flex; justify-content: center; align-items: center;"">
                <img src=""images/causal/causal_series_10/causal_series_10_d.jpg"" style=""width: 300px; height: 300px;"" />
              </div>","null",""
"","","","","","html-keyboard-response","106","464982","0.0-72.0","EEC1B671FC4C4C4BBA59C4C618C1CEB0","7e9a408e-f5aa-4d24-b121-ba24ba594c98","4f03f330-5f91-43fc-aa61-d9dda6d26521","","null","<div style=""display: flex; justify-content: center; align-items: center;"">
                <img src=""images/other/blank.jpg"" style=""width: 300px; height: 300px;"" />
              </div>","null",""
"","","","","","html-keyboard-response","107","467990","0.0-73.0","EEC1B671FC4C4C4BBA59C4C618C1CEB0","7e9a408e-f5aa-4d24-b121-ba24ba594c98","4f03f330-5f91-43fc-aa61-d9dda6d26521","","null","<div style=""display: flex; justify-content: center; align-items: center;"">
                <img src=""images/causal/causal_series_18/causal_series_18_a.jpg"" style=""width: 300px; height: 300px;"" />
              </div>","null",""
"","","","","","html-button-response","108","480890","0.0-74.0","EEC1B671FC4C4C4BBA59C4C618C1CEB0","7e9a408e-f5aa-4d24-b121-ba24ba594c98","4f03f330-5f91-43fc-aa61-d9dda6d26521","","12899","
    <div style=""display: flex; justify-content: center; align-items: center;"">
      <img src=""images/red_deck_2.png"" style=""width: 300px; height: 300px; margin-right: 10px;"" />
      <img src=""images/blue_deck_1.png"" style=""width: 300px; height: 300px;"" />
    </div>","0","0"
"","","","","","html-keyboard-response","109","483903","0.0-75.0-0.0-0.0","EEC1B671FC4C4C4BBA59C4C618C1CEB0","7e9a408e-f5aa-4d24-b121-ba24ba594c98","4f03f330-5f91-43fc-aa61-d9dda6d26521","","null","<div style=""display: flex; justify-content: center; align-items: center;"">
                <img src=""images/causal/causal_series_18/causal_series_18_b.jpg"" style=""width: 300px; height: 300px;"" />
              </div>","null",""
"","","","","","html-keyboard-response","110","486905","0.0-75.0-0.0-1.0","EEC1B671FC4C4C4BBA59C4C618C1CEB0","7e9a408e-f5aa-4d24-b121-ba24ba594c98","4f03f330-5f91-43fc-aa61-d9dda6d26521","","null","<div style=""display: flex; justify-content: center; align-items: center;"">
                <img src=""images/causal/causal_series_18/causal_series_18_c.jpg"" style=""width: 300px; height: 300px;"" />
              </div>","null",""
"","","","","","html-keyboard-response","111","489920","0.0-75.0-0.0-2.0","EEC1B671FC4C4C4BBA59C4C618C1CEB0","7e9a408e-f5aa-4d24-b121-ba24ba594c98","4f03f330-5f91-43fc-aa61-d9dda6d26521","","null","<div style=""display: flex; justify-content: center; align-items: center;"">
                <img src=""images/causal/causal_series_18/causal_series_18_d.jpg"" style=""width: 300px; height: 300px;"" />
              </div>","null",""
"","","","","","html-keyboard-response","112","492922","0.0-76.0","EEC1B671FC4C4C4BBA59C4C618C1CEB0","7e9a408e-f5aa-4d24-b121-ba24ba594c98","4f03f330-5f91-43fc-aa61-d9dda6d26521","","null","<div style=""display: flex; justify-content: center; align-items: center;"">
                <img src=""images/other/blank.jpg"" style=""width: 300px; height: 300px;"" />
              </div>","null",""
"","","","","","survey-text","113","685787","0.0-77.0","EEC1B671FC4C4C4BBA59C4C618C1CEB0","7e9a408e-f5aa-4d24-b121-ba24ba594c98","4f03f330-5f91-43fc-aa61-d9dda6d26521","","192859","","{""Q0"":""The red deck contained images to the contents of thesty, and the blue deck has unrelated pictures.""}",""
"","","","","","survey-text","114","810362","0.0-78.0","EEC1B671FC4C4C4BBA59C4C618C1CEB0","7e9a408e-f5aa-4d24-b121-ba24ba594c98","4f03f330-5f91-43fc-aa61-d9dda6d26521","","124574","","{""Q0"":""The red one because lots of the stories happened it be subpar seresting!""}",""
"","","","","","html-button-response","115","832138","0.0-79.0","EEC1B671FC4C4C4BBA59C4C618C1CEB0","7e9a408e-f5aa-4d24-b121-ba24ba594c98","4f03f330-5f91-43fc-aa61-d9dda6d26521","","21775","Which color deck does the fourth image continue the story from the series?","1",""
"","","","","","html-button-response","116","835202","0.0-80.0","EEC1B671FC4C4C4BBA59C4C618C1CEB0","7e9a408e-f5aa-4d24-b121-ba24ba594c98","4f03f330-5f91-43fc-aa61-d9dda6d26521","","3064","Which color deck does the fourth image not follow the story from the series?","0",""
"","","","","","survey-text","117","843458","0.0-81.0","EEC1B671FC4C4C4BBA59C4C618C1CEB0","7e9a408e-f5aa-4d24-b121-ba24ba594c98","4f03f330-5f91-43fc-aa61-d9dda6d26521","","8254","","{""Q0"":""Male"",""Q1"":""24""}",""
"","","","","","instructions","118","896650","0.0-82.0","EEC1B671FC4C4C4BBA59C4C618C1CEB0","7e9a408e-f5aa-4d24-b121-ba24ba594c98","4f03f330-5f91-43fc-aa61-d9dda6d26521","[{""page_index"":0,""viewing_time"":53191}]","53191","","",""
