"success","timeout","failed_images","failed_audio","failed_video","trial_type","trial_index","time_elapsed","internal_node_id","subject_id","study_id","session_id","view_history","rt","stimulus","response","series","repetition","phase","choice","question_order"
"true","false","[]","[]","[]","preload","0","816","0.0-0.0","62B7E1E5EE1949BF9EA1B04EF887873A","0199d60f-b471-791b-9a05-60942e64c204","0199d5ef-c7d4-7cab-a194-b2c3afbaf8e8","","","","","","","","",""
"","","","","","instructions","1","6818","0.0-1.0","62B7E1E5EE1949BF9EA1B04EF887873A","0199d60f-b471-791b-9a05-60942e64c204","0199d5ef-c7d4-7cab-a194-b2c3afbaf8e8","[{""page_index"":0,""viewing_time"":6002}]","6002","","","","","","",""
"","","","","","instructions","2","12861","0.0-2.0","62B7E1E5EE1949BF9EA1B04EF887873A","0199d60f-b471-791b-9a05-60942e64c204","0199d5ef-c7d4-7cab-a194-b2c3afbaf8e8","[{""page_index"":0,""viewing_time"":6042}]","6042","","","","","","",""
"true","","","","","fullscreen","3","72696","0.0-3.0","62B7E1E5EE1949BF9EA1B04EF887873A","0199d60f-b471-791b-9a05-60942e64c204","0199d5ef-c7d4-7cab-a194-b2c3afbaf8e8","","58825","","","","","","",""
"","","","","","instructions","4","94684","0.0-4.0","62B7E1E5EE1949BF9EA1B04EF887873A","0199d60f-b471-791b-9a05-60942e64c204","0199d5ef-c7d4-7cab-a194-b2c3afbaf8e8","[{""page_index"":0,""viewing_time"":21988}]","21988","","","","","","",""
"","","","","","html-keyboard-response","5","100693","0.0-5.0","62B7E1E5EE1949BF9EA1B04EF887873A","0199d60f-b471-791b-9a05-60942e64c204","0199d5ef-c7d4-7cab-a194-b2c3afbaf8e8","","null","<div style=""display: flex; justify-content: center; align-items: center;"">
                     <img src=""images/causal/causal_series_5/causal_series_5_a.png"" style=""width: 300px; height: 300px;"" />
                   </div>","null","5","2","A","",""
"","","","","","html-keyboard-response","6","106702","0.0-6.0","62B7E1E5EE1949BF9EA1B04EF887873A","0199d60f-b471-791b-9a05-60942e64c204","0199d5ef-c7d4-7cab-a194-b2c3afbaf8e8","","null","<div style=""display: flex; justify-content: center; align-items: center;"">
                     <img src=""images/causal/causal_series_5/causal_series_5_b.png"" style=""width: 300px; height: 300px;"" />
                   </div>","null","5","2","B","",""
"","","","","","html-keyboard-response","7","112717","0.0-7.0","62B7E1E5EE1949BF9EA1B04EF887873A","0199d60f-b471-791b-9a05-60942e64c204","0199d5ef-c7d4-7cab-a194-b2c3afbaf8e8","","null","<div style=""display: flex; justify-content: center; align-items: center;"">
                     <img src=""images/causal/causal_series_5/causal_series_5_c.png"" style=""width: 300px; height: 300px;"" />
                   </div>","null","5","2","C","",""
"","","","","","html-button-response","8","116625","0.0-8.0","62B7E1E5EE1949BF9EA1B04EF887873A","0199d60f-b471-791b-9a05-60942e64c204","0199d5ef-c7d4-7cab-a194-b2c3afbaf8e8","","3907","
        <div style=""display: flex; justify-content: center; align-items: center;"">
          <img src=""images/red_deck_2.png"" style=""width: 300px; height: 300px; margin-right: 10px;"" />
          <img src=""images/blue_deck_1.png"" style=""width: 300px; height: 300px;"" />
        </div>","1","5","2","choice","1",""
"","","","","","html-keyboard-response","9","122639","0.0-9.0-1.0-0.0","62B7E1E5EE1949BF9EA1B04EF887873A","0199d60f-b471-791b-9a05-60942e64c204","0199d5ef-c7d4-7cab-a194-b2c3afbaf8e8","","null","<div style=""display: flex; justify-content: center; align-items: center;"">
                     <img src=""images/semantic/semantic_series_5/semantic_series_5_d.png"" style=""width: 300px; height: 300px;"" />
                   </div>","null","5","2","D","",""
"","","","","","html-keyboard-response","10","128643","0.0-9.0-1.0-1.0","62B7E1E5EE1949BF9EA1B04EF887873A","0199d60f-b471-791b-9a05-60942e64c204","0199d5ef-c7d4-7cab-a194-b2c3afbaf8e8","","null","<div style=""display: flex; justify-content: center; align-items: center;"">
                     <img src=""images/semantic/semantic_series_5/semantic_series_5_e.png"" style=""width: 300px; height: 300px;"" />
                   </div>","null","5","2","E","",""
"","","","","","html-keyboard-response","11","134650","0.0-9.0-1.0-2.0","62B7E1E5EE1949BF9EA1B04EF887873A","0199d60f-b471-791b-9a05-60942e64c204","0199d5ef-c7d4-7cab-a194-b2c3afbaf8e8","","null","<div style=""display: flex; justify-content: center; align-items: center;"">
                     <img src=""images/semantic/semantic_series_5/semantic_series_5_f.png"" style=""width: 300px; height: 300px;"" />
                   </div>","null","5","2","F","",""
"","","","","","survey-likert","12","141329","0.0-10.0","62B7E1E5EE1949BF9EA1B04EF887873A","0199d60f-b471-791b-9a05-60942e64c204","0199d5ef-c7d4-7cab-a194-b2c3afbaf8e8","","6678","","{""Q0"":3}","5","2","surprise_rating","","[0]"
"","","","","","survey-likert","13","143771","0.0-11.0","62B7E1E5EE1949BF9EA1B04EF887873A","0199d60f-b471-791b-9a05-60942e64c204","0199d5ef-c7d4-7cab-a194-b2c3afbaf8e8","","2441","","{""Q0"":2}","5","2","enjoyment_rating","","[0]"
"","","","","","html-keyboard-response","14","149776","0.0-12.0","62B7E1E5EE1949BF9EA1B04EF887873A","0199d60f-b471-791b-9a05-60942e64c204","0199d5ef-c7d4-7cab-a194-b2c3afbaf8e8","","null","<div style=""display: flex; justify-content: center; align-items: center;"">
                     <img src=""images/other/blank.png"" style=""width: 300px; height: 300px;"" />
                   </div>","null","0","0","blank","",""
"","","","","","html-keyboard-response","15","155781","0.0-13.0","62B7E1E5EE1949BF9EA1B04EF887873A","0199d60f-b471-791b-9a05-60942e64c204","0199d5ef-c7d4-7cab-a194-b2c3afbaf8e8","","null","<div style=""display: flex; justify-content: center; align-items: center;"">
                     <img src=""images/causal/causal_series_9/causal_series_9_a.png"" style=""width: 300px; height: 300px;"" />
                   </div>","null","9","1","A","",""
"","","","","","html-keyboard-response","16","161796","0.0-14.0","62B7E1E5EE1949BF9EA1B04EF887873A","0199d60f-b471-791b-9a05-60942e64c204","0199d5ef-c7d4-7cab-a194-b2c3afbaf8e8","","null","<div style=""display: flex; justify-content: center; align-items: center;"">
                     <img src=""images/causal/causal_series_9/causal_series_9_b.png"" style=""width: 300px; height: 300px;"" />
                   </div>","null","9","1","B","",""
"","","","","","html-keyboard-response","17","167797","0.0-15.0","62B7E1E5EE1949BF9EA1B04EF887873A","0199d60f-b471-791b-9a05-60942e64c204","0199d5ef-c7d4-7cab-a194-b2c3afbaf8e8","","null","<div style=""display: flex; justify-content: center; align-items: center;"">
                     <img src=""images/causal/causal_series_9/causal_series_9_c.png"" style=""width: 300px; height: 300px;"" />
                   </div>","null","9","1","C","",""
"","","","","","html-button-response","18","169974","0.0-16.0","62B7E1E5EE1949BF9EA1B04EF887873A","0199d60f-b471-791b-9a05-60942e64c204","0199d5ef-c7d4-7cab-a194-b2c3afbaf8e8","","2177","
        <div style=""display: flex; justify-content: center; align-items: center;"">
          <img src=""images/red_deck_2.png"" style=""width: 300px; height: 300px; margin-right: 10px;"" />
          <img src=""images/blue_deck_1.png"" style=""width: 300px; height: 300px;"" />
        </div>","0","9","1","choice","0",""
"","","","","","html-keyboard-response","19","175979","0.0-17.0-0.0-0.0","62B7E1E5EE1949BF9EA1B04EF887873A","0199d60f-b471-791b-9a05-60942e64c204","0199d5ef-c7d4-7cab-a194-b2c3afbaf8e8","","null","<div style=""display: flex; justify-content: center; align-items: center;"">
                     <img src=""images/causal/causal_series_9/causal_series_9_d.png"" style=""width: 300px; height: 300px;"" />
                   </div>","null","9","1","D","",""
"","","","","","html-keyboard-response","20","181990","0.0-17.0-0.0-1.0","62B7E1E5EE1949BF9EA1B04EF887873A","0199d60f-b471-791b-9a05-60942e64c204","0199d5ef-c7d4-7cab-a194-b2c3afbaf8e8","","null","<div style=""display: flex; justify-content: center; align-items: center;"">
                     <img src=""images/causal/causal_series_9/causal_series_9_e.png"" style=""width: 300px; height: 300px;"" />
                   </div>","null","9","1","E","",""
"","","","","","html-keyboard-response","21","188004","0.0-17.0-0.0-2.0","62B7E1E5EE1949BF9EA1B04EF887873A","0199d60f-b471-791b-9a05-60942e64c204","0199d5ef-c7d4-7cab-a194-b2c3afbaf8e8","","null","<div style=""display: flex; justify-content: center; align-items: center;"">
                     <img src=""images/causal/causal_series_9/causal_series_9_f.png"" style=""width: 300px; height: 300px;"" />
                   </div>","null","9","1","F","",""
"","","","","","survey-likert","22","192013","0.0-18.0","62B7E1E5EE1949BF9EA1B04EF887873A","0199d60f-b471-791b-9a05-60942e64c204","0199d5ef-c7d4-7cab-a194-b2c3afbaf8e8","","4008","","{""Q0"":2}","9","1","surprise_rating","","[0]"
"","","","","","survey-likert","23","196298","0.0-19.0","62B7E1E5EE1949BF9EA1B04EF887873A","0199d60f-b471-791b-9a05-60942e64c204","0199d5ef-c7d4-7cab-a194-b2c3afbaf8e8","","4285","","{""Q0"":1}","9","1","enjoyment_rating","","[0]"
"","","","","","html-keyboard-response","24","202312","0.0-20.0","62B7E1E5EE1949BF9EA1B04EF887873A","0199d60f-b471-791b-9a05-60942e64c204","0199d5ef-c7d4-7cab-a194-b2c3afbaf8e8","","null","<div style=""display: flex; justify-content: center; align-items: center;"">
                     <img src=""images/other/blank.png"" style=""width: 300px; height: 300px;"" />
                   </div>","null","0","0","blank","",""
"","","","","","html-keyboard-response","25","208324","0.0-21.0","62B7E1E5EE1949BF9EA1B04EF887873A","0199d60f-b471-791b-9a05-60942e64c204","0199d5ef-c7d4-7cab-a194-b2c3afbaf8e8","","null","<div style=""display: flex; justify-content: center; align-items: center;"">
                     <img src=""images/causal/causal_series_3/causal_series_3_a.png"" style=""width: 300px; height: 300px;"" />
                   </div>","null","3","2","A","",""
"","","","","","html-keyboard-response","26","214335","0.0-22.0","62B7E1E5EE1949BF9EA1B04EF887873A","0199d60f-b471-791b-9a05-60942e64c204","0199d5ef-c7d4-7cab-a194-b2c3afbaf8e8","","null","<div style=""display: flex; justify-content: center; align-items: center;"">
                     <img src=""images/causal/causal_series_3/causal_series_3_b.png"" style=""width: 300px; height: 300px;"" />
                   </div>","null","3","2","B","",""
"","","","","","html-keyboard-response","27","220337","0.0-23.0","62B7E1E5EE1949BF9EA1B04EF887873A","0199d60f-b471-791b-9a05-60942e64c204","0199d5ef-c7d4-7cab-a194-b2c3afbaf8e8","","null","<div style=""display: flex; justify-content: center; align-items: center;"">
                     <img src=""images/causal/causal_series_3/causal_series_3_c.png"" style=""width: 300px; height: 300px;"" />
                   </div>","null","3","2","C","",""
"","","","","","html-button-response","28","222301","0.0-24.0","62B7E1E5EE1949BF9EA1B04EF887873A","0199d60f-b471-791b-9a05-60942e64c204","0199d5ef-c7d4-7cab-a194-b2c3afbaf8e8","","1963","
        <div style=""display: flex; justify-content: center; align-items: center;"">
          <img src=""images/red_deck_2.png"" style=""width: 300px; height: 300px; margin-right: 10px;"" />
          <img src=""images/blue_deck_1.png"" style=""width: 300px; height: 300px;"" />
        </div>","1","3","2","choice","1",""
"","","","","","html-keyboard-response","29","228311","0.0-25.0-1.0-0.0","62B7E1E5EE1949BF9EA1B04EF887873A","0199d60f-b471-791b-9a05-60942e64c204","0199d5ef-c7d4-7cab-a194-b2c3afbaf8e8","","null","<div style=""display: flex; justify-content: center; align-items: center;"">
                     <img src=""images/semantic/semantic_series_3/semantic_series_3_d.png"" style=""width: 300px; height: 300px;"" />
                   </div>","null","3","2","D","",""
"","","","","","html-keyboard-response","30","234322","0.0-25.0-1.0-1.0","62B7E1E5EE1949BF9EA1B04EF887873A","0199d60f-b471-791b-9a05-60942e64c204","0199d5ef-c7d4-7cab-a194-b2c3afbaf8e8","","null","<div style=""display: flex; justify-content: center; align-items: center;"">
                     <img src=""images/semantic/semantic_series_3/semantic_series_3_e.png"" style=""width: 300px; height: 300px;"" />
                   </div>","null","3","2","E","",""
"","","","","","html-keyboard-response","31","240323","0.0-25.0-1.0-2.0","62B7E1E5EE1949BF9EA1B04EF887873A","0199d60f-b471-791b-9a05-60942e64c204","0199d5ef-c7d4-7cab-a194-b2c3afbaf8e8","","null","<div style=""display: flex; justify-content: center; align-items: center;"">
                     <img src=""images/semantic/semantic_series_3/semantic_series_3_f.png"" style=""width: 300px; height: 300px;"" />
                   </div>","null","3","2","F","",""
"","","","","","survey-likert","32","243847","0.0-26.0","62B7E1E5EE1949BF9EA1B04EF887873A","0199d60f-b471-791b-9a05-60942e64c204","0199d5ef-c7d4-7cab-a194-b2c3afbaf8e8","","3524","","{""Q0"":3}","3","2","surprise_rating","","[0]"
"","","","","","survey-likert","33","245441","0.0-27.0","62B7E1E5EE1949BF9EA1B04EF887873A","0199d60f-b471-791b-9a05-60942e64c204","0199d5ef-c7d4-7cab-a194-b2c3afbaf8e8","","1594","","{""Q0"":2}","3","2","enjoyment_rating","","[0]"
"","","","","","html-keyboard-response","34","251446","0.0-28.0","62B7E1E5EE1949BF9EA1B04EF887873A","0199d60f-b471-791b-9a05-60942e64c204","0199d5ef-c7d4-7cab-a194-b2c3afbaf8e8","","null","<div style=""display: flex; justify-content: center; align-items: center;"">
                     <img src=""images/other/blank.png"" style=""width: 300px; height: 300px;"" />
                   </div>","null","0","0","blank","",""
"","","","","","html-keyboard-response","35","257455","0.0-29.0","62B7E1E5EE1949BF9EA1B04EF887873A","0199d60f-b471-791b-9a05-60942e64c204","0199d5ef-c7d4-7cab-a194-b2c3afbaf8e8","","null","<div style=""display: flex; justify-content: center; align-items: center;"">
                     <img src=""images/causal/causal_series_4/causal_series_4_a.png"" style=""width: 300px; height: 300px;"" />
                   </div>","null","4","1","A","",""
"","","","","","html-keyboard-response","36","263460","0.0-30.0","62B7E1E5EE1949BF9EA1B04EF887873A","0199d60f-b471-791b-9a05-60942e64c204","0199d5ef-c7d4-7cab-a194-b2c3afbaf8e8","","null","<div style=""display: flex; justify-content: center; align-items: center;"">
                     <img src=""images/causal/causal_series_4/causal_series_4_b.png"" style=""width: 300px; height: 300px;"" />
                   </div>","null","4","1","B","",""
"","","","","","html-keyboard-response","37","269468","0.0-31.0","62B7E1E5EE1949BF9EA1B04EF887873A","0199d60f-b471-791b-9a05-60942e64c204","0199d5ef-c7d4-7cab-a194-b2c3afbaf8e8","","null","<div style=""display: flex; justify-content: center; align-items: center;"">
                     <img src=""images/causal/causal_series_4/causal_series_4_c.png"" style=""width: 300px; height: 300px;"" />
                   </div>","null","4","1","C","",""
"","","","","","html-button-response","38","271630","0.0-32.0","62B7E1E5EE1949BF9EA1B04EF887873A","0199d60f-b471-791b-9a05-60942e64c204","0199d5ef-c7d4-7cab-a194-b2c3afbaf8e8","","2162","
        <div style=""display: flex; justify-content: center; align-items: center;"">
          <img src=""images/red_deck_2.png"" style=""width: 300px; height: 300px; margin-right: 10px;"" />
          <img src=""images/blue_deck_1.png"" style=""width: 300px; height: 300px;"" />
        </div>","0","4","1","choice","0",""
"","","","","","html-keyboard-response","39","277634","0.0-33.0-0.0-0.0","62B7E1E5EE1949BF9EA1B04EF887873A","0199d60f-b471-791b-9a05-60942e64c204","0199d5ef-c7d4-7cab-a194-b2c3afbaf8e8","","null","<div style=""display: flex; justify-content: center; align-items: center;"">
                     <img src=""images/causal/causal_series_4/causal_series_4_d.png"" style=""width: 300px; height: 300px;"" />
                   </div>","null","4","1","D","",""
"","","","","","html-keyboard-response","40","283639","0.0-33.0-0.0-1.0","62B7E1E5EE1949BF9EA1B04EF887873A","0199d60f-b471-791b-9a05-60942e64c204","0199d5ef-c7d4-7cab-a194-b2c3afbaf8e8","","null","<div style=""display: flex; justify-content: center; align-items: center;"">
                     <img src=""images/causal/causal_series_4/causal_series_4_e.png"" style=""width: 300px; height: 300px;"" />
                   </div>","null","4","1","E","",""
"","","","","","html-keyboard-response","41","289653","0.0-33.0-0.0-2.0","62B7E1E5EE1949BF9EA1B04EF887873A","0199d60f-b471-791b-9a05-60942e64c204","0199d5ef-c7d4-7cab-a194-b2c3afbaf8e8","","null","<div style=""display: flex; justify-content: center; align-items: center;"">
                     <img src=""images/causal/causal_series_4/causal_series_4_f.png"" style=""width: 300px; height: 300px;"" />
                   </div>","null","4","1","F","",""
"","","","","","survey-likert","42","292519","0.0-34.0","62B7E1E5EE1949BF9EA1B04EF887873A","0199d60f-b471-791b-9a05-60942e64c204","0199d5ef-c7d4-7cab-a194-b2c3afbaf8e8","","2865","","{""Q0"":3}","4","1","surprise_rating","","[0]"
"","","","","","survey-likert","43","294867","0.0-35.0","62B7E1E5EE1949BF9EA1B04EF887873A","0199d60f-b471-791b-9a05-60942e64c204","0199d5ef-c7d4-7cab-a194-b2c3afbaf8e8","","2347","","{""Q0"":3}","4","1","enjoyment_rating","","[0]"
"","","","","","html-keyboard-response","44","300868","0.0-36.0","62B7E1E5EE1949BF9EA1B04EF887873A","0199d60f-b471-791b-9a05-60942e64c204","0199d5ef-c7d4-7cab-a194-b2c3afbaf8e8","","null","<div style=""display: flex; justify-content: center; align-items: center;"">
                     <img src=""images/other/blank.png"" style=""width: 300px; height: 300px;"" />
                   </div>","null","0","0","blank","",""
"","","","","","html-keyboard-response","45","306877","0.0-37.0","62B7E1E5EE1949BF9EA1B04EF887873A","0199d60f-b471-791b-9a05-60942e64c204","0199d5ef-c7d4-7cab-a194-b2c3afbaf8e8","","null","<div style=""display: flex; justify-content: center; align-items: center;"">
                     <img src=""images/causal/causal_series_10/causal_series_10_a.png"" style=""width: 300px; height: 300px;"" />
                   </div>","null","10","2","A","",""
"","","","","","html-keyboard-response","46","312888","0.0-38.0","62B7E1E5EE1949BF9EA1B04EF887873A","0199d60f-b471-791b-9a05-60942e64c204","0199d5ef-c7d4-7cab-a194-b2c3afbaf8e8","","null","<div style=""display: flex; justify-content: center; align-items: center;"">
                     <img src=""images/causal/causal_series_10/causal_series_10_b.png"" style=""width: 300px; height: 300px;"" />
                   </div>","null","10","2","B","",""
"","","","","","html-keyboard-response","47","318892","0.0-39.0","62B7E1E5EE1949BF9EA1B04EF887873A","0199d60f-b471-791b-9a05-60942e64c204","0199d5ef-c7d4-7cab-a194-b2c3afbaf8e8","","null","<div style=""display: flex; justify-content: center; align-items: center;"">
                     <img src=""images/causal/causal_series_10/causal_series_10_c.png"" style=""width: 300px; height: 300px;"" />
                   </div>","null","10","2","C","",""
"","","","","","html-button-response","48","321885","0.0-40.0","62B7E1E5EE1949BF9EA1B04EF887873A","0199d60f-b471-791b-9a05-60942e64c204","0199d5ef-c7d4-7cab-a194-b2c3afbaf8e8","","2992","
        <div style=""display: flex; justify-content: center; align-items: center;"">
          <img src=""images/red_deck_2.png"" style=""width: 300px; height: 300px; margin-right: 10px;"" />
          <img src=""images/blue_deck_1.png"" style=""width: 300px; height: 300px;"" />
        </div>","0","10","2","choice","0",""
"","","","","","html-keyboard-response","49","327898","0.0-41.0-0.0-0.0","62B7E1E5EE1949BF9EA1B04EF887873A","0199d60f-b471-791b-9a05-60942e64c204","0199d5ef-c7d4-7cab-a194-b2c3afbaf8e8","","null","<div style=""display: flex; justify-content: center; align-items: center;"">
                     <img src=""images/causal/causal_series_10/causal_series_10_d.png"" style=""width: 300px; height: 300px;"" />
                   </div>","null","10","2","D","",""
"","","","","","html-keyboard-response","50","333914","0.0-41.0-0.0-1.0","62B7E1E5EE1949BF9EA1B04EF887873A","0199d60f-b471-791b-9a05-60942e64c204","0199d5ef-c7d4-7cab-a194-b2c3afbaf8e8","","null","<div style=""display: flex; justify-content: center; align-items: center;"">
                     <img src=""images/causal/causal_series_10/causal_series_10_e.png"" style=""width: 300px; height: 300px;"" />
                   </div>","null","10","2","E","",""
"","","","","","html-keyboard-response","51","339926","0.0-41.0-0.0-2.0","62B7E1E5EE1949BF9EA1B04EF887873A","0199d60f-b471-791b-9a05-60942e64c204","0199d5ef-c7d4-7cab-a194-b2c3afbaf8e8","","null","<div style=""display: flex; justify-content: center; align-items: center;"">
                     <img src=""images/causal/causal_series_10/causal_series_10_f.png"" style=""width: 300px; height: 300px;"" />
                   </div>","null","10","2","F","",""
"","","","","","survey-likert","52","343953","0.0-42.0","62B7E1E5EE1949BF9EA1B04EF887873A","0199d60f-b471-791b-9a05-60942e64c204","0199d5ef-c7d4-7cab-a194-b2c3afbaf8e8","","4026","","{""Q0"":3}","10","2","surprise_rating","","[0]"
"","","","","","survey-likert","53","347865","0.0-43.0","62B7E1E5EE1949BF9EA1B04EF887873A","0199d60f-b471-791b-9a05-60942e64c204","0199d5ef-c7d4-7cab-a194-b2c3afbaf8e8","","3912","","{""Q0"":3}","10","2","enjoyment_rating","","[0]"
"","","","","","html-keyboard-response","54","353869","0.0-44.0","62B7E1E5EE1949BF9EA1B04EF887873A","0199d60f-b471-791b-9a05-60942e64c204","0199d5ef-c7d4-7cab-a194-b2c3afbaf8e8","","null","<div style=""display: flex; justify-content: center; align-items: center;"">
                     <img src=""images/other/blank.png"" style=""width: 300px; height: 300px;"" />
                   </div>","null","0","0","blank","",""
"","","","","","html-keyboard-response","55","359871","0.0-45.0","62B7E1E5EE1949BF9EA1B04EF887873A","0199d60f-b471-791b-9a05-60942e64c204","0199d5ef-c7d4-7cab-a194-b2c3afbaf8e8","","null","<div style=""display: flex; justify-content: center; align-items: center;"">
                     <img src=""images/causal/causal_series_8/causal_series_8_a.png"" style=""width: 300px; height: 300px;"" />
                   </div>","null","8","2","A","",""
"","","","","","html-keyboard-response","56","365883","0.0-46.0","62B7E1E5EE1949BF9EA1B04EF887873A","0199d60f-b471-791b-9a05-60942e64c204","0199d5ef-c7d4-7cab-a194-b2c3afbaf8e8","","null","<div style=""display: flex; justify-content: center; align-items: center;"">
                     <img src=""images/causal/causal_series_8/causal_series_8_b.png"" style=""width: 300px; height: 300px;"" />
                   </div>","null","8","2","B","",""
"","","","","","html-keyboard-response","57","371900","0.0-47.0","62B7E1E5EE1949BF9EA1B04EF887873A","0199d60f-b471-791b-9a05-60942e64c204","0199d5ef-c7d4-7cab-a194-b2c3afbaf8e8","","null","<div style=""display: flex; justify-content: center; align-items: center;"">
                     <img src=""images/causal/causal_series_8/causal_series_8_c.png"" style=""width: 300px; height: 300px;"" />
                   </div>","null","8","2","C","",""
"","","","","","html-button-response","58","375284","0.0-48.0","62B7E1E5EE1949BF9EA1B04EF887873A","0199d60f-b471-791b-9a05-60942e64c204","0199d5ef-c7d4-7cab-a194-b2c3afbaf8e8","","3384","
        <div style=""display: flex; justify-content: center; align-items: center;"">
          <img src=""images/red_deck_2.png"" style=""width: 300px; height: 300px; margin-right: 10px;"" />
          <img src=""images/blue_deck_1.png"" style=""width: 300px; height: 300px;"" />
        </div>","1","8","2","choice","1",""
"","","","","","html-keyboard-response","59","381286","0.0-49.0-1.0-0.0","62B7E1E5EE1949BF9EA1B04EF887873A","0199d60f-b471-791b-9a05-60942e64c204","0199d5ef-c7d4-7cab-a194-b2c3afbaf8e8","","null","<div style=""display: flex; justify-content: center; align-items: center;"">
                     <img src=""images/semantic/semantic_series_8/semantic_series_8_d.png"" style=""width: 300px; height: 300px;"" />
                   </div>","null","8","2","D","",""
"","","","","","html-keyboard-response","60","387289","0.0-49.0-1.0-1.0","62B7E1E5EE1949BF9EA1B04EF887873A","0199d60f-b471-791b-9a05-60942e64c204","0199d5ef-c7d4-7cab-a194-b2c3afbaf8e8","","null","<div style=""display: flex; justify-content: center; align-items: center;"">
                     <img src=""images/semantic/semantic_series_8/semantic_series_8_e.png"" style=""width: 300px; height: 300px;"" />
                   </div>","null","8","2","E","",""
"","","","","","html-keyboard-response","61","393296","0.0-49.0-1.0-2.0","62B7E1E5EE1949BF9EA1B04EF887873A","0199d60f-b471-791b-9a05-60942e64c204","0199d5ef-c7d4-7cab-a194-b2c3afbaf8e8","","null","<div style=""display: flex; justify-content: center; align-items: center;"">
                     <img src=""images/semantic/semantic_series_8/semantic_series_8_f.png"" style=""width: 300px; height: 300px;"" />
                   </div>","null","8","2","F","",""
"","","","","","survey-likert","62","396335","0.0-50.0","62B7E1E5EE1949BF9EA1B04EF887873A","0199d60f-b471-791b-9a05-60942e64c204","0199d5ef-c7d4-7cab-a194-b2c3afbaf8e8","","3038","","{""Q0"":2}","8","2","surprise_rating","","[0]"
"","","","","","survey-likert","63","398577","0.0-51.0","62B7E1E5EE1949BF9EA1B04EF887873A","0199d60f-b471-791b-9a05-60942e64c204","0199d5ef-c7d4-7cab-a194-b2c3afbaf8e8","","2242","","{""Q0"":1}","8","2","enjoyment_rating","","[0]"
"","","","","","html-keyboard-response","64","404581","0.0-52.0","62B7E1E5EE1949BF9EA1B04EF887873A","0199d60f-b471-791b-9a05-60942e64c204","0199d5ef-c7d4-7cab-a194-b2c3afbaf8e8","","null","<div style=""display: flex; justify-content: center; align-items: center;"">
                     <img src=""images/other/blank.png"" style=""width: 300px; height: 300px;"" />
                   </div>","null","0","0","blank","",""
"","","","","","html-keyboard-response","65","410585","0.0-53.0","62B7E1E5EE1949BF9EA1B04EF887873A","0199d60f-b471-791b-9a05-60942e64c204","0199d5ef-c7d4-7cab-a194-b2c3afbaf8e8","","null","<div style=""display: flex; justify-content: center; align-items: center;"">
                     <img src=""images/causal/causal_series_10/causal_series_10_a.png"" style=""width: 300px; height: 300px;"" />
                   </div>","null","10","1","A","",""
"","","","","","html-keyboard-response","66","416600","0.0-54.0","62B7E1E5EE1949BF9EA1B04EF887873A","0199d60f-b471-791b-9a05-60942e64c204","0199d5ef-c7d4-7cab-a194-b2c3afbaf8e8","","null","<div style=""display: flex; justify-content: center; align-items: center;"">
                     <img src=""images/causal/causal_series_10/causal_series_10_b.png"" style=""width: 300px; height: 300px;"" />
                   </div>","null","10","1","B","",""
"","","","","","html-keyboard-response","67","422616","0.0-55.0","62B7E1E5EE1949BF9EA1B04EF887873A","0199d60f-b471-791b-9a05-60942e64c204","0199d5ef-c7d4-7cab-a194-b2c3afbaf8e8","","null","<div style=""display: flex; justify-content: center; align-items: center;"">
                     <img src=""images/causal/causal_series_10/causal_series_10_c.png"" style=""width: 300px; height: 300px;"" />
                   </div>","null","10","1","C","",""
"","","","","","html-button-response","68","424055","0.0-56.0","62B7E1E5EE1949BF9EA1B04EF887873A","0199d60f-b471-791b-9a05-60942e64c204","0199d5ef-c7d4-7cab-a194-b2c3afbaf8e8","","1438","
        <div style=""display: flex; justify-content: center; align-items: center;"">
          <img src=""images/red_deck_2.png"" style=""width: 300px; height: 300px; margin-right: 10px;"" />
          <img src=""images/blue_deck_1.png"" style=""width: 300px; height: 300px;"" />
        </div>","1","10","1","choice","1",""
"","","","","","html-keyboard-response","69","430062","0.0-57.0-1.0-0.0","62B7E1E5EE1949BF9EA1B04EF887873A","0199d60f-b471-791b-9a05-60942e64c204","0199d5ef-c7d4-7cab-a194-b2c3afbaf8e8","","null","<div style=""display: flex; justify-content: center; align-items: center;"">
                     <img src=""images/semantic/semantic_series_10/semantic_series_10_d.png"" style=""width: 300px; height: 300px;"" />
                   </div>","null","10","1","D","",""
"","","","","","html-keyboard-response","70","436064","0.0-57.0-1.0-1.0","62B7E1E5EE1949BF9EA1B04EF887873A","0199d60f-b471-791b-9a05-60942e64c204","0199d5ef-c7d4-7cab-a194-b2c3afbaf8e8","","null","<div style=""display: flex; justify-content: center; align-items: center;"">
                     <img src=""images/semantic/semantic_series_10/semantic_series_10_e.png"" style=""width: 300px; height: 300px;"" />
                   </div>","null","10","1","E","",""
"","","","","","html-keyboard-response","71","442076","0.0-57.0-1.0-2.0","62B7E1E5EE1949BF9EA1B04EF887873A","0199d60f-b471-791b-9a05-60942e64c204","0199d5ef-c7d4-7cab-a194-b2c3afbaf8e8","","null","<div style=""display: flex; justify-content: center; align-items: center;"">
                     <img src=""images/semantic/semantic_series_10/semantic_series_10_f.png"" style=""width: 300px; height: 300px;"" />
                   </div>","null","10","1","F","",""
"","","","","","survey-likert","72","444979","0.0-58.0","62B7E1E5EE1949BF9EA1B04EF887873A","0199d60f-b471-791b-9a05-60942e64c204","0199d5ef-c7d4-7cab-a194-b2c3afbaf8e8","","2903","","{""Q0"":2}","10","1","surprise_rating","","[0]"
"","","","","","survey-likert","73","447163","0.0-59.0","62B7E1E5EE1949BF9EA1B04EF887873A","0199d60f-b471-791b-9a05-60942e64c204","0199d5ef-c7d4-7cab-a194-b2c3afbaf8e8","","2184","","{""Q0"":1}","10","1","enjoyment_rating","","[0]"
"","","","","","html-keyboard-response","74","453165","0.0-60.0","62B7E1E5EE1949BF9EA1B04EF887873A","0199d60f-b471-791b-9a05-60942e64c204","0199d5ef-c7d4-7cab-a194-b2c3afbaf8e8","","null","<div style=""display: flex; justify-content: center; align-items: center;"">
                     <img src=""images/other/blank.png"" style=""width: 300px; height: 300px;"" />
                   </div>","null","0","0","blank","",""
"","","","","","html-keyboard-response","75","459169","0.0-61.0","62B7E1E5EE1949BF9EA1B04EF887873A","0199d60f-b471-791b-9a05-60942e64c204","0199d5ef-c7d4-7cab-a194-b2c3afbaf8e8","","null","<div style=""display: flex; justify-content: center; align-items: center;"">
                     <img src=""images/causal/causal_series_6/causal_series_6_a.png"" style=""width: 300px; height: 300px;"" />
                   </div>","null","6","1","A","",""
"","","","","","html-keyboard-response","76","465180","0.0-62.0","62B7E1E5EE1949BF9EA1B04EF887873A","0199d60f-b471-791b-9a05-60942e64c204","0199d5ef-c7d4-7cab-a194-b2c3afbaf8e8","","null","<div style=""display: flex; justify-content: center; align-items: center;"">
                     <img src=""images/causal/causal_series_6/causal_series_6_b.png"" style=""width: 300px; height: 300px;"" />
                   </div>","null","6","1","B","",""
"","","","","","html-keyboard-response","77","471183","0.0-63.0","62B7E1E5EE1949BF9EA1B04EF887873A","0199d60f-b471-791b-9a05-60942e64c204","0199d5ef-c7d4-7cab-a194-b2c3afbaf8e8","","null","<div style=""display: flex; justify-content: center; align-items: center;"">
                     <img src=""images/causal/causal_series_6/causal_series_6_c.png"" style=""width: 300px; height: 300px;"" />
                   </div>","null","6","1","C","",""
"","","","","","html-button-response","78","472469","0.0-64.0","62B7E1E5EE1949BF9EA1B04EF887873A","0199d60f-b471-791b-9a05-60942e64c204","0199d5ef-c7d4-7cab-a194-b2c3afbaf8e8","","1285","
        <div style=""display: flex; justify-content: center; align-items: center;"">
          <img src=""images/red_deck_2.png"" style=""width: 300px; height: 300px; margin-right: 10px;"" />
          <img src=""images/blue_deck_1.png"" style=""width: 300px; height: 300px;"" />
        </div>","0","6","1","choice","0",""
"","","","","","html-keyboard-response","79","478479","0.0-65.0-0.0-0.0","62B7E1E5EE1949BF9EA1B04EF887873A","0199d60f-b471-791b-9a05-60942e64c204","0199d5ef-c7d4-7cab-a194-b2c3afbaf8e8","","null","<div style=""display: flex; justify-content: center; align-items: center;"">
                     <img src=""images/causal/causal_series_6/causal_series_6_d.png"" style=""width: 300px; height: 300px;"" />
                   </div>","null","6","1","D","",""
"","","","","","html-keyboard-response","80","484482","0.0-65.0-0.0-1.0","62B7E1E5EE1949BF9EA1B04EF887873A","0199d60f-b471-791b-9a05-60942e64c204","0199d5ef-c7d4-7cab-a194-b2c3afbaf8e8","","null","<div style=""display: flex; justify-content: center; align-items: center;"">
                     <img src=""images/causal/causal_series_6/causal_series_6_e.png"" style=""width: 300px; height: 300px;"" />
                   </div>","null","6","1","E","",""
"","","","","","html-keyboard-response","81","490486","0.0-65.0-0.0-2.0","62B7E1E5EE1949BF9EA1B04EF887873A","0199d60f-b471-791b-9a05-60942e64c204","0199d5ef-c7d4-7cab-a194-b2c3afbaf8e8","","null","<div style=""display: flex; justify-content: center; align-items: center;"">
                     <img src=""images/causal/causal_series_6/causal_series_6_f.png"" style=""width: 300px; height: 300px;"" />
                   </div>","null","6","1","F","",""
"","","","","","survey-likert","82","496975","0.0-66.0","62B7E1E5EE1949BF9EA1B04EF887873A","0199d60f-b471-791b-9a05-60942e64c204","0199d5ef-c7d4-7cab-a194-b2c3afbaf8e8","","6488","","{""Q0"":1}","6","1","surprise_rating","","[0]"
"","","","","","survey-likert","83","498969","0.0-67.0","62B7E1E5EE1949BF9EA1B04EF887873A","0199d60f-b471-791b-9a05-60942e64c204","0199d5ef-c7d4-7cab-a194-b2c3afbaf8e8","","1994","","{""Q0"":2}","6","1","enjoyment_rating","","[0]"
"","","","","","html-keyboard-response","84","504978","0.0-68.0","62B7E1E5EE1949BF9EA1B04EF887873A","0199d60f-b471-791b-9a05-60942e64c204","0199d5ef-c7d4-7cab-a194-b2c3afbaf8e8","","null","<div style=""display: flex; justify-content: center; align-items: center;"">
                     <img src=""images/other/blank.png"" style=""width: 300px; height: 300px;"" />
                   </div>","null","0","0","blank","",""
"","","","","","html-keyboard-response","85","510990","0.0-69.0","62B7E1E5EE1949BF9EA1B04EF887873A","0199d60f-b471-791b-9a05-60942e64c204","0199d5ef-c7d4-7cab-a194-b2c3afbaf8e8","","null","<div style=""display: flex; justify-content: center; align-items: center;"">
                     <img src=""images/causal/causal_series_5/causal_series_5_a.png"" style=""width: 300px; height: 300px;"" />
                   </div>","null","5","1","A","",""
"","","","","","html-keyboard-response","86","517002","0.0-70.0","62B7E1E5EE1949BF9EA1B04EF887873A","0199d60f-b471-791b-9a05-60942e64c204","0199d5ef-c7d4-7cab-a194-b2c3afbaf8e8","","null","<div style=""display: flex; justify-content: center; align-items: center;"">
                     <img src=""images/causal/causal_series_5/causal_series_5_b.png"" style=""width: 300px; height: 300px;"" />
                   </div>","null","5","1","B","",""
"","","","","","html-keyboard-response","87","523003","0.0-71.0","62B7E1E5EE1949BF9EA1B04EF887873A","0199d60f-b471-791b-9a05-60942e64c204","0199d5ef-c7d4-7cab-a194-b2c3afbaf8e8","","null","<div style=""display: flex; justify-content: center; align-items: center;"">
                     <img src=""images/causal/causal_series_5/causal_series_5_c.png"" style=""width: 300px; height: 300px;"" />
                   </div>","null","5","1","C","",""
"","","","","","html-button-response","88","526093","0.0-72.0","62B7E1E5EE1949BF9EA1B04EF887873A","0199d60f-b471-791b-9a05-60942e64c204","0199d5ef-c7d4-7cab-a194-b2c3afbaf8e8","","3089","
        <div style=""display: flex; justify-content: center; align-items: center;"">
          <img src=""images/red_deck_2.png"" style=""width: 300px; height: 300px; margin-right: 10px;"" />
          <img src=""images/blue_deck_1.png"" style=""width: 300px; height: 300px;"" />
        </div>","0","5","1","choice","0",""
"","","","","","html-keyboard-response","89","532094","0.0-73.0-0.0-0.0","62B7E1E5EE1949BF9EA1B04EF887873A","0199d60f-b471-791b-9a05-60942e64c204","0199d5ef-c7d4-7cab-a194-b2c3afbaf8e8","","null","<div style=""display: flex; justify-content: center; align-items: center;"">
                     <img src=""images/causal/causal_series_5/causal_series_5_d.png"" style=""width: 300px; height: 300px;"" />
                   </div>","null","5","1","D","",""
"","","","","","html-keyboard-response","90","538110","0.0-73.0-0.0-1.0","62B7E1E5EE1949BF9EA1B04EF887873A","0199d60f-b471-791b-9a05-60942e64c204","0199d5ef-c7d4-7cab-a194-b2c3afbaf8e8","","null","<div style=""display: flex; justify-content: center; align-items: center;"">
                     <img src=""images/causal/causal_series_5/causal_series_5_e.png"" style=""width: 300px; height: 300px;"" />
                   </div>","null","5","1","E","",""
"","","","","","html-keyboard-response","91","544116","0.0-73.0-0.0-2.0","62B7E1E5EE1949BF9EA1B04EF887873A","0199d60f-b471-791b-9a05-60942e64c204","0199d5ef-c7d4-7cab-a194-b2c3afbaf8e8","","null","<div style=""display: flex; justify-content: center; align-items: center;"">
                     <img src=""images/causal/causal_series_5/causal_series_5_f.png"" style=""width: 300px; height: 300px;"" />
                   </div>","null","5","1","F","",""
"","","","","","survey-likert","92","547599","0.0-74.0","62B7E1E5EE1949BF9EA1B04EF887873A","0199d60f-b471-791b-9a05-60942e64c204","0199d5ef-c7d4-7cab-a194-b2c3afbaf8e8","","3482","","{""Q0"":2}","5","1","surprise_rating","","[0]"
"","","","","","survey-likert","93","549267","0.0-75.0","62B7E1E5EE1949BF9EA1B04EF887873A","0199d60f-b471-791b-9a05-60942e64c204","0199d5ef-c7d4-7cab-a194-b2c3afbaf8e8","","1668","","{""Q0"":2}","5","1","enjoyment_rating","","[0]"
"","","","","","html-keyboard-response","94","555274","0.0-76.0","62B7E1E5EE1949BF9EA1B04EF887873A","0199d60f-b471-791b-9a05-60942e64c204","0199d5ef-c7d4-7cab-a194-b2c3afbaf8e8","","null","<div style=""display: flex; justify-content: center; align-items: center;"">
                     <img src=""images/other/blank.png"" style=""width: 300px; height: 300px;"" />
                   </div>","null","0","0","blank","",""
"","","","","","html-keyboard-response","95","561276","0.0-77.0","62B7E1E5EE1949BF9EA1B04EF887873A","0199d60f-b471-791b-9a05-60942e64c204","0199d5ef-c7d4-7cab-a194-b2c3afbaf8e8","","null","<div style=""display: flex; justify-content: center; align-items: center;"">
                     <img src=""images/causal/causal_series_2/causal_series_2_a.png"" style=""width: 300px; height: 300px;"" />
                   </div>","null","2","1","A","",""
"","","","","","html-keyboard-response","96","567290","0.0-78.0","62B7E1E5EE1949BF9EA1B04EF887873A","0199d60f-b471-791b-9a05-60942e64c204","0199d5ef-c7d4-7cab-a194-b2c3afbaf8e8","","null","<div style=""display: flex; justify-content: center; align-items: center;"">
                     <img src=""images/causal/causal_series_2/causal_series_2_b.png"" style=""width: 300px; height: 300px;"" />
                   </div>","null","2","1","B","",""
"","","","","","html-keyboard-response","97","573306","0.0-79.0","62B7E1E5EE1949BF9EA1B04EF887873A","0199d60f-b471-791b-9a05-60942e64c204","0199d5ef-c7d4-7cab-a194-b2c3afbaf8e8","","null","<div style=""display: flex; justify-content: center; align-items: center;"">
                     <img src=""images/causal/causal_series_2/causal_series_2_c.png"" style=""width: 300px; height: 300px;"" />
                   </div>","null","2","1","C","",""
"","","","","","html-button-response","98","575199","0.0-80.0","62B7E1E5EE1949BF9EA1B04EF887873A","0199d60f-b471-791b-9a05-60942e64c204","0199d5ef-c7d4-7cab-a194-b2c3afbaf8e8","","1892","
        <div style=""display: flex; justify-content: center; align-items: center;"">
          <img src=""images/red_deck_2.png"" style=""width: 300px; height: 300px; margin-right: 10px;"" />
          <img src=""images/blue_deck_1.png"" style=""width: 300px; height: 300px;"" />
        </div>","0","2","1","choice","0",""
"","","","","","html-keyboard-response","99","581202","0.0-81.0-0.0-0.0","62B7E1E5EE1949BF9EA1B04EF887873A","0199d60f-b471-791b-9a05-60942e64c204","0199d5ef-c7d4-7cab-a194-b2c3afbaf8e8","","null","<div style=""display: flex; justify-content: center; align-items: center;"">
                     <img src=""images/causal/causal_series_2/causal_series_2_d.png"" style=""width: 300px; height: 300px;"" />
                   </div>","null","2","1","D","",""
"","","","","","html-keyboard-response","100","587216","0.0-81.0-0.0-1.0","62B7E1E5EE1949BF9EA1B04EF887873A","0199d60f-b471-791b-9a05-60942e64c204","0199d5ef-c7d4-7cab-a194-b2c3afbaf8e8","","null","<div style=""display: flex; justify-content: center; align-items: center;"">
                     <img src=""images/causal/causal_series_2/causal_series_2_e.png"" style=""width: 300px; height: 300px;"" />
                   </div>","null","2","1","E","",""
"","","","","","html-keyboard-response","101","593230","0.0-81.0-0.0-2.0","62B7E1E5EE1949BF9EA1B04EF887873A","0199d60f-b471-791b-9a05-60942e64c204","0199d5ef-c7d4-7cab-a194-b2c3afbaf8e8","","null","<div style=""display: flex; justify-content: center; align-items: center;"">
                     <img src=""images/causal/causal_series_2/causal_series_2_f.png"" style=""width: 300px; height: 300px;"" />
                   </div>","null","2","1","F","",""
"","","","","","survey-likert","102","594995","0.0-82.0","62B7E1E5EE1949BF9EA1B04EF887873A","0199d60f-b471-791b-9a05-60942e64c204","0199d5ef-c7d4-7cab-a194-b2c3afbaf8e8","","1764","","{""Q0"":2}","2","1","surprise_rating","","[0]"
"","","","","","survey-likert","103","597703","0.0-83.0","62B7E1E5EE1949BF9EA1B04EF887873A","0199d60f-b471-791b-9a05-60942e64c204","0199d5ef-c7d4-7cab-a194-b2c3afbaf8e8","","2708","","{""Q0"":2}","2","1","enjoyment_rating","","[0]"
"","","","","","html-keyboard-response","104","603713","0.0-84.0","62B7E1E5EE1949BF9EA1B04EF887873A","0199d60f-b471-791b-9a05-60942e64c204","0199d5ef-c7d4-7cab-a194-b2c3afbaf8e8","","null","<div style=""display: flex; justify-content: center; align-items: center;"">
                     <img src=""images/other/blank.png"" style=""width: 300px; height: 300px;"" />
                   </div>","null","0","0","blank","",""
"","","","","","html-keyboard-response","105","609724","0.0-85.0","62B7E1E5EE1949BF9EA1B04EF887873A","0199d60f-b471-791b-9a05-60942e64c204","0199d5ef-c7d4-7cab-a194-b2c3afbaf8e8","","null","<div style=""display: flex; justify-content: center; align-items: center;"">
                     <img src=""images/causal/causal_series_7/causal_series_7_a.png"" style=""width: 300px; height: 300px;"" />
                   </div>","null","7","2","A","",""
"","","","","","html-keyboard-response","106","615735","0.0-86.0","62B7E1E5EE1949BF9EA1B04EF887873A","0199d60f-b471-791b-9a05-60942e64c204","0199d5ef-c7d4-7cab-a194-b2c3afbaf8e8","","null","<div style=""display: flex; justify-content: center; align-items: center;"">
                     <img src=""images/causal/causal_series_7/causal_series_7_b.png"" style=""width: 300px; height: 300px;"" />
                   </div>","null","7","2","B","",""
"","","","","","html-keyboard-response","107","621751","0.0-87.0","62B7E1E5EE1949BF9EA1B04EF887873A","0199d60f-b471-791b-9a05-60942e64c204","0199d5ef-c7d4-7cab-a194-b2c3afbaf8e8","","null","<div style=""display: flex; justify-content: center; align-items: center;"">
                     <img src=""images/causal/causal_series_7/causal_series_7_c.png"" style=""width: 300px; height: 300px;"" />
                   </div>","null","7","2","C","",""
"","","","","","html-button-response","108","622836","0.0-88.0","62B7E1E5EE1949BF9EA1B04EF887873A","0199d60f-b471-791b-9a05-60942e64c204","0199d5ef-c7d4-7cab-a194-b2c3afbaf8e8","","1085","
        <div style=""display: flex; justify-content: center; align-items: center;"">
          <img src=""images/red_deck_2.png"" style=""width: 300px; height: 300px; margin-right: 10px;"" />
          <img src=""images/blue_deck_1.png"" style=""width: 300px; height: 300px;"" />
        </div>","1","7","2","choice","1",""
"","","","","","html-keyboard-response","109","628843","0.0-89.0-1.0-0.0","62B7E1E5EE1949BF9EA1B04EF887873A","0199d60f-b471-791b-9a05-60942e64c204","0199d5ef-c7d4-7cab-a194-b2c3afbaf8e8","","null","<div style=""display: flex; justify-content: center; align-items: center;"">
                     <img src=""images/semantic/semantic_series_7/semantic_series_7_d.png"" style=""width: 300px; height: 300px;"" />
                   </div>","null","7","2","D","",""
"","","","","","html-keyboard-response","110","634852","0.0-89.0-1.0-1.0","62B7E1E5EE1949BF9EA1B04EF887873A","0199d60f-b471-791b-9a05-60942e64c204","0199d5ef-c7d4-7cab-a194-b2c3afbaf8e8","","null","<div style=""display: flex; justify-content: center; align-items: center;"">
                     <img src=""images/semantic/semantic_series_7/semantic_series_7_e.png"" style=""width: 300px; height: 300px;"" />
                   </div>","null","7","2","E","",""
"","","","","","html-keyboard-response","111","640864","0.0-89.0-1.0-2.0","62B7E1E5EE1949BF9EA1B04EF887873A","0199d60f-b471-791b-9a05-60942e64c204","0199d5ef-c7d4-7cab-a194-b2c3afbaf8e8","","null","<div style=""display: flex; justify-content: center; align-items: center;"">
                     <img src=""images/semantic/semantic_series_7/semantic_series_7_f.png"" style=""width: 300px; height: 300px;"" />
                   </div>","null","7","2","F","",""
"","","","","","survey-likert","112","642747","0.0-90.0","62B7E1E5EE1949BF9EA1B04EF887873A","0199d60f-b471-791b-9a05-60942e64c204","0199d5ef-c7d4-7cab-a194-b2c3afbaf8e8","","1882","","{""Q0"":3}","7","2","surprise_rating","","[0]"
"","","","","","survey-likert","113","645821","0.0-91.0","62B7E1E5EE1949BF9EA1B04EF887873A","0199d60f-b471-791b-9a05-60942e64c204","0199d5ef-c7d4-7cab-a194-b2c3afbaf8e8","","3074","","{""Q0"":3}","7","2","enjoyment_rating","","[0]"
"","","","","","html-keyboard-response","114","651834","0.0-92.0","62B7E1E5EE1949BF9EA1B04EF887873A","0199d60f-b471-791b-9a05-60942e64c204","0199d5ef-c7d4-7cab-a194-b2c3afbaf8e8","","null","<div style=""display: flex; justify-content: center; align-items: center;"">
                     <img src=""images/other/blank.png"" style=""width: 300px; height: 300px;"" />
                   </div>","null","0","0","blank","",""
"","","","","","html-keyboard-response","115","657848","0.0-93.0","62B7E1E5EE1949BF9EA1B04EF887873A","0199d60f-b471-791b-9a05-60942e64c204","0199d5ef-c7d4-7cab-a194-b2c3afbaf8e8","","null","<div style=""display: flex; justify-content: center; align-items: center;"">
                     <img src=""images/causal/causal_series_1/causal_series_1_a.png"" style=""width: 300px; height: 300px;"" />
                   </div>","null","1","2","A","",""
"","","","","","html-keyboard-response","116","663864","0.0-94.0","62B7E1E5EE1949BF9EA1B04EF887873A","0199d60f-b471-791b-9a05-60942e64c204","0199d5ef-c7d4-7cab-a194-b2c3afbaf8e8","","null","<div style=""display: flex; justify-content: center; align-items: center;"">
                     <img src=""images/causal/causal_series_1/causal_series_1_b.png"" style=""width: 300px; height: 300px;"" />
                   </div>","null","1","2","B","",""
"","","","","","html-keyboard-response","117","669870","0.0-95.0","62B7E1E5EE1949BF9EA1B04EF887873A","0199d60f-b471-791b-9a05-60942e64c204","0199d5ef-c7d4-7cab-a194-b2c3afbaf8e8","","null","<div style=""display: flex; justify-content: center; align-items: center;"">
                     <img src=""images/causal/causal_series_1/causal_series_1_c.png"" style=""width: 300px; height: 300px;"" />
                   </div>","null","1","2","C","",""
"","","","","","html-button-response","118","672045","0.0-96.0","62B7E1E5EE1949BF9EA1B04EF887873A","0199d60f-b471-791b-9a05-60942e64c204","0199d5ef-c7d4-7cab-a194-b2c3afbaf8e8","","2174","
        <div style=""display: flex; justify-content: center; align-items: center;"">
          <img src=""images/red_deck_2.png"" style=""width: 300px; height: 300px; margin-right: 10px;"" />
          <img src=""images/blue_deck_1.png"" style=""width: 300px; height: 300px;"" />
        </div>","0","1","2","choice","0",""
"","","","","","html-keyboard-response","119","678058","0.0-97.0-0.0-0.0","62B7E1E5EE1949BF9EA1B04EF887873A","0199d60f-b471-791b-9a05-60942e64c204","0199d5ef-c7d4-7cab-a194-b2c3afbaf8e8","","null","<div style=""display: flex; justify-content: center; align-items: center;"">
                     <img src=""images/causal/causal_series_1/causal_series_1_d.png"" style=""width: 300px; height: 300px;"" />
                   </div>","null","1","2","D","",""
"","","","","","html-keyboard-response","120","684066","0.0-97.0-0.0-1.0","62B7E1E5EE1949BF9EA1B04EF887873A","0199d60f-b471-791b-9a05-60942e64c204","0199d5ef-c7d4-7cab-a194-b2c3afbaf8e8","","null","<div style=""display: flex; justify-content: center; align-items: center;"">
                     <img src=""images/causal/causal_series_1/causal_series_1_e.png"" style=""width: 300px; height: 300px;"" />
                   </div>","null","1","2","E","",""
"","","","","","html-keyboard-response","121","690066","0.0-97.0-0.0-2.0","62B7E1E5EE1949BF9EA1B04EF887873A","0199d60f-b471-791b-9a05-60942e64c204","0199d5ef-c7d4-7cab-a194-b2c3afbaf8e8","","null","<div style=""display: flex; justify-content: center; align-items: center;"">
                     <img src=""images/causal/causal_series_1/causal_series_1_f.png"" style=""width: 300px; height: 300px;"" />
                   </div>","null","1","2","F","",""
"","","","","","survey-likert","122","691829","0.0-98.0","62B7E1E5EE1949BF9EA1B04EF887873A","0199d60f-b471-791b-9a05-60942e64c204","0199d5ef-c7d4-7cab-a194-b2c3afbaf8e8","","1762","","{""Q0"":3}","1","2","surprise_rating","","[0]"
"","","","","","survey-likert","123","694435","0.0-99.0","62B7E1E5EE1949BF9EA1B04EF887873A","0199d60f-b471-791b-9a05-60942e64c204","0199d5ef-c7d4-7cab-a194-b2c3afbaf8e8","","2606","","{""Q0"":3}","1","2","enjoyment_rating","","[0]"
"","","","","","html-keyboard-response","124","700444","0.0-100.0","62B7E1E5EE1949BF9EA1B04EF887873A","0199d60f-b471-791b-9a05-60942e64c204","0199d5ef-c7d4-7cab-a194-b2c3afbaf8e8","","null","<div style=""display: flex; justify-content: center; align-items: center;"">
                     <img src=""images/other/blank.png"" style=""width: 300px; height: 300px;"" />
                   </div>","null","0","0","blank","",""
"","","","","","html-keyboard-response","125","706459","0.0-101.0","62B7E1E5EE1949BF9EA1B04EF887873A","0199d60f-b471-791b-9a05-60942e64c204","0199d5ef-c7d4-7cab-a194-b2c3afbaf8e8","","null","<div style=""display: flex; justify-content: center; align-items: center;"">
                     <img src=""images/causal/causal_series_7/causal_series_7_a.png"" style=""width: 300px; height: 300px;"" />
                   </div>","null","7","1","A","",""
"","","","","","html-keyboard-response","126","712464","0.0-102.0","62B7E1E5EE1949BF9EA1B04EF887873A","0199d60f-b471-791b-9a05-60942e64c204","0199d5ef-c7d4-7cab-a194-b2c3afbaf8e8","","null","<div style=""display: flex; justify-content: center; align-items: center;"">
                     <img src=""images/causal/causal_series_7/causal_series_7_b.png"" style=""width: 300px; height: 300px;"" />
                   </div>","null","7","1","B","",""
"","","","","","html-keyboard-response","127","718471","0.0-103.0","62B7E1E5EE1949BF9EA1B04EF887873A","0199d60f-b471-791b-9a05-60942e64c204","0199d5ef-c7d4-7cab-a194-b2c3afbaf8e8","","null","<div style=""display: flex; justify-content: center; align-items: center;"">
                     <img src=""images/causal/causal_series_7/causal_series_7_c.png"" style=""width: 300px; height: 300px;"" />
                   </div>","null","7","1","C","",""
"","","","","","html-button-response","128","720517","0.0-104.0","62B7E1E5EE1949BF9EA1B04EF887873A","0199d60f-b471-791b-9a05-60942e64c204","0199d5ef-c7d4-7cab-a194-b2c3afbaf8e8","","2045","
        <div style=""display: flex; justify-content: center; align-items: center;"">
          <img src=""images/red_deck_2.png"" style=""width: 300px; height: 300px; margin-right: 10px;"" />
          <img src=""images/blue_deck_1.png"" style=""width: 300px; height: 300px;"" />
        </div>","0","7","1","choice","0",""
"","","","","","html-keyboard-response","129","726532","0.0-105.0-0.0-0.0","62B7E1E5EE1949BF9EA1B04EF887873A","0199d60f-b471-791b-9a05-60942e64c204","0199d5ef-c7d4-7cab-a194-b2c3afbaf8e8","","null","<div style=""display: flex; justify-content: center; align-items: center;"">
                     <img src=""images/causal/causal_series_7/causal_series_7_d.png"" style=""width: 300px; height: 300px;"" />
                   </div>","null","7","1","D","",""
"","","","","","html-keyboard-response","130","732540","0.0-105.0-0.0-1.0","62B7E1E5EE1949BF9EA1B04EF887873A","0199d60f-b471-791b-9a05-60942e64c204","0199d5ef-c7d4-7cab-a194-b2c3afbaf8e8","","null","<div style=""display: flex; justify-content: center; align-items: center;"">
                     <img src=""images/causal/causal_series_7/causal_series_7_e.png"" style=""width: 300px; height: 300px;"" />
                   </div>","null","7","1","E","",""
"","","","","","html-keyboard-response","131","738549","0.0-105.0-0.0-2.0","62B7E1E5EE1949BF9EA1B04EF887873A","0199d60f-b471-791b-9a05-60942e64c204","0199d5ef-c7d4-7cab-a194-b2c3afbaf8e8","","null","<div style=""display: flex; justify-content: center; align-items: center;"">
                     <img src=""images/causal/causal_series_7/causal_series_7_f.png"" style=""width: 300px; height: 300px;"" />
                   </div>","null","7","1","F","",""
"","","","","","survey-likert","132","744345","0.0-106.0","62B7E1E5EE1949BF9EA1B04EF887873A","0199d60f-b471-791b-9a05-60942e64c204","0199d5ef-c7d4-7cab-a194-b2c3afbaf8e8","","5795","","{""Q0"":2}","7","1","surprise_rating","","[0]"
"","","","","","survey-likert","133","745881","0.0-107.0","62B7E1E5EE1949BF9EA1B04EF887873A","0199d60f-b471-791b-9a05-60942e64c204","0199d5ef-c7d4-7cab-a194-b2c3afbaf8e8","","1536","","{""Q0"":3}","7","1","enjoyment_rating","","[0]"
"","","","","","html-keyboard-response","134","751889","0.0-108.0","62B7E1E5EE1949BF9EA1B04EF887873A","0199d60f-b471-791b-9a05-60942e64c204","0199d5ef-c7d4-7cab-a194-b2c3afbaf8e8","","null","<div style=""display: flex; justify-content: center; align-items: center;"">
                     <img src=""images/other/blank.png"" style=""width: 300px; height: 300px;"" />
                   </div>","null","0","0","blank","",""
"","","","","","html-keyboard-response","135","757890","0.0-109.0","62B7E1E5EE1949BF9EA1B04EF887873A","0199d60f-b471-791b-9a05-60942e64c204","0199d5ef-c7d4-7cab-a194-b2c3afbaf8e8","","null","<div style=""display: flex; justify-content: center; align-items: center;"">
                     <img src=""images/causal/causal_series_9/causal_series_9_a.png"" style=""width: 300px; height: 300px;"" />
                   </div>","null","9","2","A","",""
"","","","","","html-keyboard-response","136","763892","0.0-110.0","62B7E1E5EE1949BF9EA1B04EF887873A","0199d60f-b471-791b-9a05-60942e64c204","0199d5ef-c7d4-7cab-a194-b2c3afbaf8e8","","null","<div style=""display: flex; justify-content: center; align-items: center;"">
                     <img src=""images/causal/causal_series_9/causal_series_9_b.png"" style=""width: 300px; height: 300px;"" />
                   </div>","null","9","2","B","",""
"","","","","","html-keyboard-response","137","769896","0.0-111.0","62B7E1E5EE1949BF9EA1B04EF887873A","0199d60f-b471-791b-9a05-60942e64c204","0199d5ef-c7d4-7cab-a194-b2c3afbaf8e8","","null","<div style=""display: flex; justify-content: center; align-items: center;"">
                     <img src=""images/causal/causal_series_9/causal_series_9_c.png"" style=""width: 300px; height: 300px;"" />
                   </div>","null","9","2","C","",""
"","","","","","html-button-response","138","770753","0.0-112.0","62B7E1E5EE1949BF9EA1B04EF887873A","0199d60f-b471-791b-9a05-60942e64c204","0199d5ef-c7d4-7cab-a194-b2c3afbaf8e8","","856","
        <div style=""display: flex; justify-content: center; align-items: center;"">
          <img src=""images/red_deck_2.png"" style=""width: 300px; height: 300px; margin-right: 10px;"" />
          <img src=""images/blue_deck_1.png"" style=""width: 300px; height: 300px;"" />
        </div>","0","9","2","choice","0",""
"","","","","","html-keyboard-response","139","776764","0.0-113.0-0.0-0.0","62B7E1E5EE1949BF9EA1B04EF887873A","0199d60f-b471-791b-9a05-60942e64c204","0199d5ef-c7d4-7cab-a194-b2c3afbaf8e8","","null","<div style=""display: flex; justify-content: center; align-items: center;"">
                     <img src=""images/causal/causal_series_9/causal_series_9_d.png"" style=""width: 300px; height: 300px;"" />
                   </div>","null","9","2","D","",""
"","","","","","html-keyboard-response","140","782770","0.0-113.0-0.0-1.0","62B7E1E5EE1949BF9EA1B04EF887873A","0199d60f-b471-791b-9a05-60942e64c204","0199d5ef-c7d4-7cab-a194-b2c3afbaf8e8","","null","<div style=""display: flex; justify-content: center; align-items: center;"">
                     <img src=""images/causal/causal_series_9/causal_series_9_e.png"" style=""width: 300px; height: 300px;"" />
                   </div>","null","9","2","E","",""
"","","","","","html-keyboard-response","141","788773","0.0-113.0-0.0-2.0","62B7E1E5EE1949BF9EA1B04EF887873A","0199d60f-b471-791b-9a05-60942e64c204","0199d5ef-c7d4-7cab-a194-b2c3afbaf8e8","","null","<div style=""display: flex; justify-content: center; align-items: center;"">
                     <img src=""images/causal/causal_series_9/causal_series_9_f.png"" style=""width: 300px; height: 300px;"" />
                   </div>","null","9","2","F","",""
"","","","","","survey-likert","142","790153","0.0-114.0","62B7E1E5EE1949BF9EA1B04EF887873A","0199d60f-b471-791b-9a05-60942e64c204","0199d5ef-c7d4-7cab-a194-b2c3afbaf8e8","","1379","","{""Q0"":3}","9","2","surprise_rating","","[0]"
"","","","","","survey-likert","143","791211","0.0-115.0","62B7E1E5EE1949BF9EA1B04EF887873A","0199d60f-b471-791b-9a05-60942e64c204","0199d5ef-c7d4-7cab-a194-b2c3afbaf8e8","","1058","","{""Q0"":2}","9","2","enjoyment_rating","","[0]"
"","","","","","html-keyboard-response","144","797221","0.0-116.0","62B7E1E5EE1949BF9EA1B04EF887873A","0199d60f-b471-791b-9a05-60942e64c204","0199d5ef-c7d4-7cab-a194-b2c3afbaf8e8","","null","<div style=""display: flex; justify-content: center; align-items: center;"">
                     <img src=""images/other/blank.png"" style=""width: 300px; height: 300px;"" />
                   </div>","null","0","0","blank","",""
"","","","","","html-keyboard-response","145","803228","0.0-117.0","62B7E1E5EE1949BF9EA1B04EF887873A","0199d60f-b471-791b-9a05-60942e64c204","0199d5ef-c7d4-7cab-a194-b2c3afbaf8e8","","null","<div style=""display: flex; justify-content: center; align-items: center;"">
                     <img src=""images/causal/causal_series_1/causal_series_1_a.png"" style=""width: 300px; height: 300px;"" />
                   </div>","null","1","1","A","",""
"","","","","","html-keyboard-response","146","809231","0.0-118.0","62B7E1E5EE1949BF9EA1B04EF887873A","0199d60f-b471-791b-9a05-60942e64c204","0199d5ef-c7d4-7cab-a194-b2c3afbaf8e8","","null","<div style=""display: flex; justify-content: center; align-items: center;"">
                     <img src=""images/causal/causal_series_1/causal_series_1_b.png"" style=""width: 300px; height: 300px;"" />
                   </div>","null","1","1","B","",""
"","","","","","html-keyboard-response","147","815234","0.0-119.0","62B7E1E5EE1949BF9EA1B04EF887873A","0199d60f-b471-791b-9a05-60942e64c204","0199d5ef-c7d4-7cab-a194-b2c3afbaf8e8","","null","<div style=""display: flex; justify-content: center; align-items: center;"">
                     <img src=""images/causal/causal_series_1/causal_series_1_c.png"" style=""width: 300px; height: 300px;"" />
                   </div>","null","1","1","C","",""
"","","","","","html-button-response","148","816213","0.0-120.0","62B7E1E5EE1949BF9EA1B04EF887873A","0199d60f-b471-791b-9a05-60942e64c204","0199d5ef-c7d4-7cab-a194-b2c3afbaf8e8","","978","
        <div style=""display: flex; justify-content: center; align-items: center;"">
          <img src=""images/red_deck_2.png"" style=""width: 300px; height: 300px; margin-right: 10px;"" />
          <img src=""images/blue_deck_1.png"" style=""width: 300px; height: 300px;"" />
        </div>","0","1","1","choice","0",""
"","","","","","html-keyboard-response","149","822222","0.0-121.0-0.0-0.0","62B7E1E5EE1949BF9EA1B04EF887873A","0199d60f-b471-791b-9a05-60942e64c204","0199d5ef-c7d4-7cab-a194-b2c3afbaf8e8","","null","<div style=""display: flex; justify-content: center; align-items: center;"">
                     <img src=""images/causal/causal_series_1/causal_series_1_d.png"" style=""width: 300px; height: 300px;"" />
                   </div>","null","1","1","D","",""
"","","","","","html-keyboard-response","150","828236","0.0-121.0-0.0-1.0","62B7E1E5EE1949BF9EA1B04EF887873A","0199d60f-b471-791b-9a05-60942e64c204","0199d5ef-c7d4-7cab-a194-b2c3afbaf8e8","","null","<div style=""display: flex; justify-content: center; align-items: center;"">
                     <img src=""images/causal/causal_series_1/causal_series_1_e.png"" style=""width: 300px; height: 300px;"" />
                   </div>","null","1","1","E","",""
"","","","","","html-keyboard-response","151","834237","0.0-121.0-0.0-2.0","62B7E1E5EE1949BF9EA1B04EF887873A","0199d60f-b471-791b-9a05-60942e64c204","0199d5ef-c7d4-7cab-a194-b2c3afbaf8e8","","null","<div style=""display: flex; justify-content: center; align-items: center;"">
                     <img src=""images/causal/causal_series_1/causal_series_1_f.png"" style=""width: 300px; height: 300px;"" />
                   </div>","null","1","1","F","",""
"","","","","","survey-likert","152","836111","0.0-122.0","62B7E1E5EE1949BF9EA1B04EF887873A","0199d60f-b471-791b-9a05-60942e64c204","0199d5ef-c7d4-7cab-a194-b2c3afbaf8e8","","1873","","{""Q0"":3}","1","1","surprise_rating","","[0]"
"","","","","","survey-likert","153","837455","0.0-123.0","62B7E1E5EE1949BF9EA1B04EF887873A","0199d60f-b471-791b-9a05-60942e64c204","0199d5ef-c7d4-7cab-a194-b2c3afbaf8e8","","1344","","{""Q0"":3}","1","1","enjoyment_rating","","[0]"
"","","","","","html-keyboard-response","154","843463","0.0-124.0","62B7E1E5EE1949BF9EA1B04EF887873A","0199d60f-b471-791b-9a05-60942e64c204","0199d5ef-c7d4-7cab-a194-b2c3afbaf8e8","","null","<div style=""display: flex; justify-content: center; align-items: center;"">
                     <img src=""images/other/blank.png"" style=""width: 300px; height: 300px;"" />
                   </div>","null","0","0","blank","",""
"","","","","","html-keyboard-response","155","849475","0.0-125.0","62B7E1E5EE1949BF9EA1B04EF887873A","0199d60f-b471-791b-9a05-60942e64c204","0199d5ef-c7d4-7cab-a194-b2c3afbaf8e8","","null","<div style=""display: flex; justify-content: center; align-items: center;"">
                     <img src=""images/causal/causal_series_4/causal_series_4_a.png"" style=""width: 300px; height: 300px;"" />
                   </div>","null","4","2","A","",""
"","","","","","html-keyboard-response","156","855481","0.0-126.0","62B7E1E5EE1949BF9EA1B04EF887873A","0199d60f-b471-791b-9a05-60942e64c204","0199d5ef-c7d4-7cab-a194-b2c3afbaf8e8","","null","<div style=""display: flex; justify-content: center; align-items: center;"">
                     <img src=""images/causal/causal_series_4/causal_series_4_b.png"" style=""width: 300px; height: 300px;"" />
                   </div>","null","4","2","B","",""
"","","","","","html-keyboard-response","157","861490","0.0-127.0","62B7E1E5EE1949BF9EA1B04EF887873A","0199d60f-b471-791b-9a05-60942e64c204","0199d5ef-c7d4-7cab-a194-b2c3afbaf8e8","","null","<div style=""display: flex; justify-content: center; align-items: center;"">
                     <img src=""images/causal/causal_series_4/causal_series_4_c.png"" style=""width: 300px; height: 300px;"" />
                   </div>","null","4","2","C","",""
"","","","","","html-button-response","158","863631","0.0-128.0","62B7E1E5EE1949BF9EA1B04EF887873A","0199d60f-b471-791b-9a05-60942e64c204","0199d5ef-c7d4-7cab-a194-b2c3afbaf8e8","","2141","
        <div style=""display: flex; justify-content: center; align-items: center;"">
          <img src=""images/red_deck_2.png"" style=""width: 300px; height: 300px; margin-right: 10px;"" />
          <img src=""images/blue_deck_1.png"" style=""width: 300px; height: 300px;"" />
        </div>","1","4","2","choice","1",""
"","","","","","html-keyboard-response","159","869632","0.0-129.0-1.0-0.0","62B7E1E5EE1949BF9EA1B04EF887873A","0199d60f-b471-791b-9a05-60942e64c204","0199d5ef-c7d4-7cab-a194-b2c3afbaf8e8","","null","<div style=""display: flex; justify-content: center; align-items: center;"">
                     <img src=""images/semantic/semantic_series_4/semantic_series_4_d.png"" style=""width: 300px; height: 300px;"" />
                   </div>","null","4","2","D","",""
"","","","","","html-keyboard-response","160","875640","0.0-129.0-1.0-1.0","62B7E1E5EE1949BF9EA1B04EF887873A","0199d60f-b471-791b-9a05-60942e64c204","0199d5ef-c7d4-7cab-a194-b2c3afbaf8e8","","null","<div style=""display: flex; justify-content: center; align-items: center;"">
                     <img src=""images/semantic/semantic_series_4/semantic_series_4_e.png"" style=""width: 300px; height: 300px;"" />
                   </div>","null","4","2","E","",""
"","","","","","html-keyboard-response","161","881650","0.0-129.0-1.0-2.0","62B7E1E5EE1949BF9EA1B04EF887873A","0199d60f-b471-791b-9a05-60942e64c204","0199d5ef-c7d4-7cab-a194-b2c3afbaf8e8","","null","<div style=""display: flex; justify-content: center; align-items: center;"">
                     <img src=""images/semantic/semantic_series_4/semantic_series_4_f.png"" style=""width: 300px; height: 300px;"" />
                   </div>","null","4","2","F","",""
"","","","","","survey-likert","162","912405","0.0-130.0","62B7E1E5EE1949BF9EA1B04EF887873A","0199d60f-b471-791b-9a05-60942e64c204","0199d5ef-c7d4-7cab-a194-b2c3afbaf8e8","","30755","","{""Q0"":2}","4","2","surprise_rating","","[0]"
"","","","","","survey-likert","163","914363","0.0-131.0","62B7E1E5EE1949BF9EA1B04EF887873A","0199d60f-b471-791b-9a05-60942e64c204","0199d5ef-c7d4-7cab-a194-b2c3afbaf8e8","","1957","","{""Q0"":2}","4","2","enjoyment_rating","","[0]"
"","","","","","html-keyboard-response","164","920375","0.0-132.0","62B7E1E5EE1949BF9EA1B04EF887873A","0199d60f-b471-791b-9a05-60942e64c204","0199d5ef-c7d4-7cab-a194-b2c3afbaf8e8","","null","<div style=""display: flex; justify-content: center; align-items: center;"">
                     <img src=""images/other/blank.png"" style=""width: 300px; height: 300px;"" />
                   </div>","null","0","0","blank","",""
"","","","","","html-keyboard-response","165","926389","0.0-133.0","62B7E1E5EE1949BF9EA1B04EF887873A","0199d60f-b471-791b-9a05-60942e64c204","0199d5ef-c7d4-7cab-a194-b2c3afbaf8e8","","null","<div style=""display: flex; justify-content: center; align-items: center;"">
                     <img src=""images/causal/causal_series_3/causal_series_3_a.png"" style=""width: 300px; height: 300px;"" />
                   </div>","null","3","1","A","",""
"","","","","","html-keyboard-response","166","932391","0.0-134.0","62B7E1E5EE1949BF9EA1B04EF887873A","0199d60f-b471-791b-9a05-60942e64c204","0199d5ef-c7d4-7cab-a194-b2c3afbaf8e8","","null","<div style=""display: flex; justify-content: center; align-items: center;"">
                     <img src=""images/causal/causal_series_3/causal_series_3_b.png"" style=""width: 300px; height: 300px;"" />
                   </div>","null","3","1","B","",""
"","","","","","html-keyboard-response","167","938398","0.0-135.0","62B7E1E5EE1949BF9EA1B04EF887873A","0199d60f-b471-791b-9a05-60942e64c204","0199d5ef-c7d4-7cab-a194-b2c3afbaf8e8","","null","<div style=""display: flex; justify-content: center; align-items: center;"">
                     <img src=""images/causal/causal_series_3/causal_series_3_c.png"" style=""width: 300px; height: 300px;"" />
                   </div>","null","3","1","C","",""
"","","","","","html-button-response","168","939902","0.0-136.0","62B7E1E5EE1949BF9EA1B04EF887873A","0199d60f-b471-791b-9a05-60942e64c204","0199d5ef-c7d4-7cab-a194-b2c3afbaf8e8","","1503","
        <div style=""display: flex; justify-content: center; align-items: center;"">
          <img src=""images/red_deck_2.png"" style=""width: 300px; height: 300px; margin-right: 10px;"" />
          <img src=""images/blue_deck_1.png"" style=""width: 300px; height: 300px;"" />
        </div>","0","3","1","choice","0",""
"","","","","","html-keyboard-response","169","945902","0.0-137.0-0.0-0.0","62B7E1E5EE1949BF9EA1B04EF887873A","0199d60f-b471-791b-9a05-60942e64c204","0199d5ef-c7d4-7cab-a194-b2c3afbaf8e8","","null","<div style=""display: flex; justify-content: center; align-items: center;"">
                     <img src=""images/causal/causal_series_3/causal_series_3_d.png"" style=""width: 300px; height: 300px;"" />
                   </div>","null","3","1","D","",""
"","","","","","html-keyboard-response","170","951904","0.0-137.0-0.0-1.0","62B7E1E5EE1949BF9EA1B04EF887873A","0199d60f-b471-791b-9a05-60942e64c204","0199d5ef-c7d4-7cab-a194-b2c3afbaf8e8","","null","<div style=""display: flex; justify-content: center; align-items: center;"">
                     <img src=""images/causal/causal_series_3/causal_series_3_e.png"" style=""width: 300px; height: 300px;"" />
                   </div>","null","3","1","E","",""
"","","","","","html-keyboard-response","171","957904","0.0-137.0-0.0-2.0","62B7E1E5EE1949BF9EA1B04EF887873A","0199d60f-b471-791b-9a05-60942e64c204","0199d5ef-c7d4-7cab-a194-b2c3afbaf8e8","","null","<div style=""display: flex; justify-content: center; align-items: center;"">
                     <img src=""images/causal/causal_series_3/causal_series_3_f.png"" style=""width: 300px; height: 300px;"" />
                   </div>","null","3","1","F","",""
"","","","","","survey-likert","172","961658","0.0-138.0","62B7E1E5EE1949BF9EA1B04EF887873A","0199d60f-b471-791b-9a05-60942e64c204","0199d5ef-c7d4-7cab-a194-b2c3afbaf8e8","","3753","","{""Q0"":3}","3","1","surprise_rating","","[0]"
"","","","","","survey-likert","173","962636","0.0-139.0","62B7E1E5EE1949BF9EA1B04EF887873A","0199d60f-b471-791b-9a05-60942e64c204","0199d5ef-c7d4-7cab-a194-b2c3afbaf8e8","","978","","{""Q0"":2}","3","1","enjoyment_rating","","[0]"
"","","","","","html-keyboard-response","174","968638","0.0-140.0","62B7E1E5EE1949BF9EA1B04EF887873A","0199d60f-b471-791b-9a05-60942e64c204","0199d5ef-c7d4-7cab-a194-b2c3afbaf8e8","","null","<div style=""display: flex; justify-content: center; align-items: center;"">
                     <img src=""images/other/blank.png"" style=""width: 300px; height: 300px;"" />
                   </div>","null","0","0","blank","",""
"","","","","","html-keyboard-response","175","974639","0.0-141.0","62B7E1E5EE1949BF9EA1B04EF887873A","0199d60f-b471-791b-9a05-60942e64c204","0199d5ef-c7d4-7cab-a194-b2c3afbaf8e8","","null","<div style=""display: flex; justify-content: center; align-items: center;"">
                     <img src=""images/causal/causal_series_8/causal_series_8_a.png"" style=""width: 300px; height: 300px;"" />
                   </div>","null","8","1","A","",""
"","","","","","html-keyboard-response","176","980641","0.0-142.0","62B7E1E5EE1949BF9EA1B04EF887873A","0199d60f-b471-791b-9a05-60942e64c204","0199d5ef-c7d4-7cab-a194-b2c3afbaf8e8","","null","<div style=""display: flex; justify-content: center; align-items: center;"">
                     <img src=""images/causal/causal_series_8/causal_series_8_b.png"" style=""width: 300px; height: 300px;"" />
                   </div>","null","8","1","B","",""
"","","","","","html-keyboard-response","177","986643","0.0-143.0","62B7E1E5EE1949BF9EA1B04EF887873A","0199d60f-b471-791b-9a05-60942e64c204","0199d5ef-c7d4-7cab-a194-b2c3afbaf8e8","","null","<div style=""display: flex; justify-content: center; align-items: center;"">
                     <img src=""images/causal/causal_series_8/causal_series_8_c.png"" style=""width: 300px; height: 300px;"" />
                   </div>","null","8","1","C","",""
"","","","","","html-button-response","178","989242","0.0-144.0","62B7E1E5EE1949BF9EA1B04EF887873A","0199d60f-b471-791b-9a05-60942e64c204","0199d5ef-c7d4-7cab-a194-b2c3afbaf8e8","","2598","
        <div style=""display: flex; justify-content: center; align-items: center;"">
          <img src=""images/red_deck_2.png"" style=""width: 300px; height: 300px; margin-right: 10px;"" />
          <img src=""images/blue_deck_1.png"" style=""width: 300px; height: 300px;"" />
        </div>","1","8","1","choice","1",""
"","","","","","html-keyboard-response","179","995243","0.0-145.0-1.0-0.0","62B7E1E5EE1949BF9EA1B04EF887873A","0199d60f-b471-791b-9a05-60942e64c204","0199d5ef-c7d4-7cab-a194-b2c3afbaf8e8","","null","<div style=""display: flex; justify-content: center; align-items: center;"">
                     <img src=""images/semantic/semantic_series_8/semantic_series_8_d.png"" style=""width: 300px; height: 300px;"" />
                   </div>","null","8","1","D","",""
"","","","","","html-keyboard-response","180","1001243","0.0-145.0-1.0-1.0","62B7E1E5EE1949BF9EA1B04EF887873A","0199d60f-b471-791b-9a05-60942e64c204","0199d5ef-c7d4-7cab-a194-b2c3afbaf8e8","","null","<div style=""display: flex; justify-content: center; align-items: center;"">
                     <img src=""images/semantic/semantic_series_8/semantic_series_8_e.png"" style=""width: 300px; height: 300px;"" />
                   </div>","null","8","1","E","",""
"","","","","","html-keyboard-response","181","1007244","0.0-145.0-1.0-2.0","62B7E1E5EE1949BF9EA1B04EF887873A","0199d60f-b471-791b-9a05-60942e64c204","0199d5ef-c7d4-7cab-a194-b2c3afbaf8e8","","null","<div style=""display: flex; justify-content: center; align-items: center;"">
                     <img src=""images/semantic/semantic_series_8/semantic_series_8_f.png"" style=""width: 300px; height: 300px;"" />
                   </div>","null","8","1","F","",""
"","","","","","survey-likert","182","1012160","0.0-146.0","62B7E1E5EE1949BF9EA1B04EF887873A","0199d60f-b471-791b-9a05-60942e64c204","0199d5ef-c7d4-7cab-a194-b2c3afbaf8e8","","4915","","{""Q0"":2}","8","1","surprise_rating","","[0]"
"","","","","","survey-likert","183","1013972","0.0-147.0","62B7E1E5EE1949BF9EA1B04EF887873A","0199d60f-b471-791b-9a05-60942e64c204","0199d5ef-c7d4-7cab-a194-b2c3afbaf8e8","","1812","","{""Q0"":1}","8","1","enjoyment_rating","","[0]"
"","","","","","html-keyboard-response","184","1019974","0.0-148.0","62B7E1E5EE1949BF9EA1B04EF887873A","0199d60f-b471-791b-9a05-60942e64c204","0199d5ef-c7d4-7cab-a194-b2c3afbaf8e8","","null","<div style=""display: flex; justify-content: center; align-items: center;"">
                     <img src=""images/other/blank.png"" style=""width: 300px; height: 300px;"" />
                   </div>","null","0","0","blank","",""
"","","","","","html-keyboard-response","185","1025976","0.0-149.0","62B7E1E5EE1949BF9EA1B04EF887873A","0199d60f-b471-791b-9a05-60942e64c204","0199d5ef-c7d4-7cab-a194-b2c3afbaf8e8","","null","<div style=""display: flex; justify-content: center; align-items: center;"">
                     <img src=""images/causal/causal_series_2/causal_series_2_a.png"" style=""width: 300px; height: 300px;"" />
                   </div>","null","2","2","A","",""
"","","","","","html-keyboard-response","186","1031977","0.0-150.0","62B7E1E5EE1949BF9EA1B04EF887873A","0199d60f-b471-791b-9a05-60942e64c204","0199d5ef-c7d4-7cab-a194-b2c3afbaf8e8","","null","<div style=""display: flex; justify-content: center; align-items: center;"">
                     <img src=""images/causal/causal_series_2/causal_series_2_b.png"" style=""width: 300px; height: 300px;"" />
                   </div>","null","2","2","B","",""
"","","","","","html-keyboard-response","187","1037978","0.0-151.0","62B7E1E5EE1949BF9EA1B04EF887873A","0199d60f-b471-791b-9a05-60942e64c204","0199d5ef-c7d4-7cab-a194-b2c3afbaf8e8","","null","<div style=""display: flex; justify-content: center; align-items: center;"">
                     <img src=""images/causal/causal_series_2/causal_series_2_c.png"" style=""width: 300px; height: 300px;"" />
                   </div>","null","2","2","C","",""
"","","","","","html-button-response","188","1038908","0.0-152.0","62B7E1E5EE1949BF9EA1B04EF887873A","0199d60f-b471-791b-9a05-60942e64c204","0199d5ef-c7d4-7cab-a194-b2c3afbaf8e8","","929","
        <div style=""display: flex; justify-content: center; align-items: center;"">
          <img src=""images/red_deck_2.png"" style=""width: 300px; height: 300px; margin-right: 10px;"" />
          <img src=""images/blue_deck_1.png"" style=""width: 300px; height: 300px;"" />
        </div>","1","2","2","choice","1",""
"","","","","","html-keyboard-response","189","1044909","0.0-153.0-1.0-0.0","62B7E1E5EE1949BF9EA1B04EF887873A","0199d60f-b471-791b-9a05-60942e64c204","0199d5ef-c7d4-7cab-a194-b2c3afbaf8e8","","null","<div style=""display: flex; justify-content: center; align-items: center;"">
                     <img src=""images/semantic/semantic_series_2/semantic_series_2_d.png"" style=""width: 300px; height: 300px;"" />
                   </div>","null","2","2","D","",""
"","","","","","html-keyboard-response","190","1050910","0.0-153.0-1.0-1.0","62B7E1E5EE1949BF9EA1B04EF887873A","0199d60f-b471-791b-9a05-60942e64c204","0199d5ef-c7d4-7cab-a194-b2c3afbaf8e8","","null","<div style=""display: flex; justify-content: center; align-items: center;"">
                     <img src=""images/semantic/semantic_series_2/semantic_series_2_e.png"" style=""width: 300px; height: 300px;"" />
                   </div>","null","2","2","E","",""
"","","","","","html-keyboard-response","191","1056911","0.0-153.0-1.0-2.0","62B7E1E5EE1949BF9EA1B04EF887873A","0199d60f-b471-791b-9a05-60942e64c204","0199d5ef-c7d4-7cab-a194-b2c3afbaf8e8","","null","<div style=""display: flex; justify-content: center; align-items: center;"">
                     <img src=""images/semantic/semantic_series_2/semantic_series_2_f.png"" style=""width: 300px; height: 300px;"" />
                   </div>","null","2","2","F","",""
"","","","","","survey-likert","192","1060366","0.0-154.0","62B7E1E5EE1949BF9EA1B04EF887873A","0199d60f-b471-791b-9a05-60942e64c204","0199d5ef-c7d4-7cab-a194-b2c3afbaf8e8","","3454","","{""Q0"":2}","2","2","surprise_rating","","[0]"
"","","","","","survey-likert","193","1063138","0.0-155.0","62B7E1E5EE1949BF9EA1B04EF887873A","0199d60f-b471-791b-9a05-60942e64c204","0199d5ef-c7d4-7cab-a194-b2c3afbaf8e8","","2772","","{""Q0"":2}","2","2","enjoyment_rating","","[0]"
"","","","","","html-keyboard-response","194","1069140","0.0-156.0","62B7E1E5EE1949BF9EA1B04EF887873A","0199d60f-b471-791b-9a05-60942e64c204","0199d5ef-c7d4-7cab-a194-b2c3afbaf8e8","","null","<div style=""display: flex; justify-content: center; align-items: center;"">
                     <img src=""images/other/blank.png"" style=""width: 300px; height: 300px;"" />
                   </div>","null","0","0","blank","",""
"","","","","","html-keyboard-response","195","1075141","0.0-157.0","62B7E1E5EE1949BF9EA1B04EF887873A","0199d60f-b471-791b-9a05-60942e64c204","0199d5ef-c7d4-7cab-a194-b2c3afbaf8e8","","null","<div style=""display: flex; justify-content: center; align-items: center;"">
                     <img src=""images/causal/causal_series_6/causal_series_6_a.png"" style=""width: 300px; height: 300px;"" />
                   </div>","null","6","2","A","",""
"","","","","","html-keyboard-response","196","1081143","0.0-158.0","62B7E1E5EE1949BF9EA1B04EF887873A","0199d60f-b471-791b-9a05-60942e64c204","0199d5ef-c7d4-7cab-a194-b2c3afbaf8e8","","null","<div style=""display: flex; justify-content: center; align-items: center;"">
                     <img src=""images/causal/causal_series_6/causal_series_6_b.png"" style=""width: 300px; height: 300px;"" />
                   </div>","null","6","2","B","",""
"","","","","","html-keyboard-response","197","1087144","0.0-159.0","62B7E1E5EE1949BF9EA1B04EF887873A","0199d60f-b471-791b-9a05-60942e64c204","0199d5ef-c7d4-7cab-a194-b2c3afbaf8e8","","null","<div style=""display: flex; justify-content: center; align-items: center;"">
                     <img src=""images/causal/causal_series_6/causal_series_6_c.png"" style=""width: 300px; height: 300px;"" />
                   </div>","null","6","2","C","",""
"","","","","","html-button-response","198","1098164","0.0-160.0","62B7E1E5EE1949BF9EA1B04EF887873A","0199d60f-b471-791b-9a05-60942e64c204","0199d5ef-c7d4-7cab-a194-b2c3afbaf8e8","","11019","
        <div style=""display: flex; justify-content: center; align-items: center;"">
          <img src=""images/red_deck_2.png"" style=""width: 300px; height: 300px; margin-right: 10px;"" />
          <img src=""images/blue_deck_1.png"" style=""width: 300px; height: 300px;"" />
        </div>","1","6","2","choice","1",""
"","","","","","html-keyboard-response","199","1104165","0.0-161.0-1.0-0.0","62B7E1E5EE1949BF9EA1B04EF887873A","0199d60f-b471-791b-9a05-60942e64c204","0199d5ef-c7d4-7cab-a194-b2c3afbaf8e8","","null","<div style=""display: flex; justify-content: center; align-items: center;"">
                     <img src=""images/semantic/semantic_series_6/semantic_series_6_d.png"" style=""width: 300px; height: 300px;"" />
                   </div>","null","6","2","D","",""
"","","","","","html-keyboard-response","200","1110265","0.0-161.0-1.0-1.0","62B7E1E5EE1949BF9EA1B04EF887873A","0199d60f-b471-791b-9a05-60942e64c204","0199d5ef-c7d4-7cab-a194-b2c3afbaf8e8","","null","<div style=""display: flex; justify-content: center; align-items: center;"">
                     <img src=""images/semantic/semantic_series_6/semantic_series_6_e.png"" style=""width: 300px; height: 300px;"" />
                   </div>","null","6","2","E","",""
"","","","","","html-keyboard-response","201","1116265","0.0-161.0-1.0-2.0","62B7E1E5EE1949BF9EA1B04EF887873A","0199d60f-b471-791b-9a05-60942e64c204","0199d5ef-c7d4-7cab-a194-b2c3afbaf8e8","","null","<div style=""display: flex; justify-content: center; align-items: center;"">
                     <img src=""images/semantic/semantic_series_6/semantic_series_6_f.png"" style=""width: 300px; height: 300px;"" />
                   </div>","null","6","2","F","",""
"","","","","","survey-likert","202","1120012","0.0-162.0","62B7E1E5EE1949BF9EA1B04EF887873A","0199d60f-b471-791b-9a05-60942e64c204","0199d5ef-c7d4-7cab-a194-b2c3afbaf8e8","","3746","","{""Q0"":3}","6","2","surprise_rating","","[0]"
"","","","","","survey-likert","203","1121070","0.0-163.0","62B7E1E5EE1949BF9EA1B04EF887873A","0199d60f-b471-791b-9a05-60942e64c204","0199d5ef-c7d4-7cab-a194-b2c3afbaf8e8","","1057","","{""Q0"":2}","6","2","enjoyment_rating","","[0]"
"","","","","","html-keyboard-response","204","1127071","0.0-164.0","62B7E1E5EE1949BF9EA1B04EF887873A","0199d60f-b471-791b-9a05-60942e64c204","0199d5ef-c7d4-7cab-a194-b2c3afbaf8e8","","null","<div style=""display: flex; justify-content: center; align-items: center;"">
                     <img src=""images/other/blank.png"" style=""width: 300px; height: 300px;"" />
                   </div>","null","0","0","blank","",""
"","","","","","survey-text","205","1173664","0.0-165.0","62B7E1E5EE1949BF9EA1B04EF887873A","0199d60f-b471-791b-9a05-60942e64c204","0199d5ef-c7d4-7cab-a194-b2c3afbaf8e8","","46592","","{""Q0"":""The blue deck is in sequence while the red deck states random events.""}","","","","",""
"","","","","","html-button-response","206","1177894","0.0-166.0","62B7E1E5EE1949BF9EA1B04EF887873A","0199d60f-b471-791b-9a05-60942e64c204","0199d5ef-c7d4-7cab-a194-b2c3afbaf8e8","","4229","Which color deck do the following sentences continue the story from?","0","","","","",""
"","","","","","html-button-response","207","1179940","0.0-167.0","62B7E1E5EE1949BF9EA1B04EF887873A","0199d60f-b471-791b-9a05-60942e64c204","0199d5ef-c7d4-7cab-a194-b2c3afbaf8e8","","2046","Which color deck do the following sentences NOT follow the story from?","1","","","","",""
"","","","","","html-button-response","208","1183618","0.0-168.0","62B7E1E5EE1949BF9EA1B04EF887873A","0199d60f-b471-791b-9a05-60942e64c204","0199d5ef-c7d4-7cab-a194-b2c3afbaf8e8","","3678","Which type of deck did you prefer overall?","1","","","","",""
"","","","","","survey-text","209","1188874","0.0-169.0","62B7E1E5EE1949BF9EA1B04EF887873A","0199d60f-b471-791b-9a05-60942e64c204","0199d5ef-c7d4-7cab-a194-b2c3afbaf8e8","","5255","","{""Q0"":""MALE"",""Q1"":""22""}","","","","",""
"","","","","","instructions","210","1192476","0.0-170.0","62B7E1E5EE1949BF9EA1B04EF887873A","0199d60f-b471-791b-9a05-60942e64c204","0199d5ef-c7d4-7cab-a194-b2c3afbaf8e8","[{""page_index"":0,""viewing_time"":3601}]","3601","","","","","","",""
