"success","timeout","failed_images","failed_audio","failed_video","trial_type","trial_index","time_elapsed","internal_node_id","subject_id","study_id","session_id","view_history","rt","stimulus","response","series","repetition","phase","choice","question_order"
"true","false","[]","[]","[]","preload","0","573","0.0-0.0","BA4E4F5262844BAE94EDDA4A06349F22","0199db6a-db97-7756-bfee-1433d58d9e29","0199db60-0c70-7be3-948d-e21afdfd0731","","","","","","","","",""
"","","","","","instructions","1","5010","0.0-1.0","BA4E4F5262844BAE94EDDA4A06349F22","0199db6a-db97-7756-bfee-1433d58d9e29","0199db60-0c70-7be3-948d-e21afdfd0731","[{""page_index"":0,""viewing_time"":4437}]","4437","","","","","","",""
"","","","","","instructions","2","8197","0.0-2.0","BA4E4F5262844BAE94EDDA4A06349F22","0199db6a-db97-7756-bfee-1433d58d9e29","0199db60-0c70-7be3-948d-e21afdfd0731","[{""page_index"":0,""viewing_time"":3187}]","3187","","","","","","",""
"true","","","","","fullscreen","3","11307","0.0-3.0","BA4E4F5262844BAE94EDDA4A06349F22","0199db6a-db97-7756-bfee-1433d58d9e29","0199db60-0c70-7be3-948d-e21afdfd0731","","2107","","","","","","",""
"","","","","","instructions","4","34534","0.0-4.0","BA4E4F5262844BAE94EDDA4A06349F22","0199db6a-db97-7756-bfee-1433d58d9e29","0199db60-0c70-7be3-948d-e21afdfd0731","[{""page_index"":0,""viewing_time"":23226}]","23226","","","","","","",""
"","","","","","html-keyboard-response","5","40539","0.0-5.0","BA4E4F5262844BAE94EDDA4A06349F22","0199db6a-db97-7756-bfee-1433d58d9e29","0199db60-0c70-7be3-948d-e21afdfd0731","","null","<div style=""display: flex; justify-content: center; align-items: center;"">
                     <img src=""images/causal/causal_series_5/causal_series_5_a.png"" style=""width: 300px; height: 300px;"" />
                   </div>","null","5","1","A","",""
"","","","","","html-keyboard-response","6","46548","0.0-6.0","BA4E4F5262844BAE94EDDA4A06349F22","0199db6a-db97-7756-bfee-1433d58d9e29","0199db60-0c70-7be3-948d-e21afdfd0731","","null","<div style=""display: flex; justify-content: center; align-items: center;"">
                     <img src=""images/causal/causal_series_5/causal_series_5_b.png"" style=""width: 300px; height: 300px;"" />
                   </div>","null","5","1","B","",""
"","","","","","html-keyboard-response","7","52563","0.0-7.0","BA4E4F5262844BAE94EDDA4A06349F22","0199db6a-db97-7756-bfee-1433d58d9e29","0199db60-0c70-7be3-948d-e21afdfd0731","","null","<div style=""display: flex; justify-content: center; align-items: center;"">
                     <img src=""images/causal/causal_series_5/causal_series_5_c.png"" style=""width: 300px; height: 300px;"" />
                   </div>","null","5","1","C","",""
"","","","","","html-button-response","8","57152","0.0-8.0","BA4E4F5262844BAE94EDDA4A06349F22","0199db6a-db97-7756-bfee-1433d58d9e29","0199db60-0c70-7be3-948d-e21afdfd0731","","4588","
        <div style=""display: flex; justify-content: center; align-items: center;"">
          <img src=""images/red_deck_2.png"" style=""width: 300px; height: 300px; margin-right: 10px;"" />
          <img src=""images/blue_deck_1.png"" style=""width: 300px; height: 300px;"" />
        </div>","0","5","1","choice","0",""
"","","","","","html-keyboard-response","9","63166","0.0-9.0-0.0-0.0","BA4E4F5262844BAE94EDDA4A06349F22","0199db6a-db97-7756-bfee-1433d58d9e29","0199db60-0c70-7be3-948d-e21afdfd0731","","null","<div style=""display: flex; justify-content: center; align-items: center;"">
                     <img src=""images/causal/causal_series_5/causal_series_5_d.png"" style=""width: 300px; height: 300px;"" />
                   </div>","null","5","1","D","",""
"","","","","","survey-likert","10","68100","0.0-10.0","BA4E4F5262844BAE94EDDA4A06349F22","0199db6a-db97-7756-bfee-1433d58d9e29","0199db60-0c70-7be3-948d-e21afdfd0731","","4932","","{""Q0"":3}","5","1","surprise_rating","","[0]"
"","","","","","survey-likert","11","72385","0.0-11.0","BA4E4F5262844BAE94EDDA4A06349F22","0199db6a-db97-7756-bfee-1433d58d9e29","0199db60-0c70-7be3-948d-e21afdfd0731","","4285","","{""Q0"":3}","5","1","enjoyment_rating","","[0]"
"","","","","","html-keyboard-response","12","78387","0.0-12.0","BA4E4F5262844BAE94EDDA4A06349F22","0199db6a-db97-7756-bfee-1433d58d9e29","0199db60-0c70-7be3-948d-e21afdfd0731","","null","<div style=""display: flex; justify-content: center; align-items: center;"">
                     <img src=""images/other/blank.png"" style=""width: 300px; height: 300px;"" />
                   </div>","null","0","0","blank","",""
"","","","","","html-keyboard-response","13","84396","0.0-13.0","BA4E4F5262844BAE94EDDA4A06349F22","0199db6a-db97-7756-bfee-1433d58d9e29","0199db60-0c70-7be3-948d-e21afdfd0731","","null","<div style=""display: flex; justify-content: center; align-items: center;"">
                     <img src=""images/causal/causal_series_2/causal_series_2_a.png"" style=""width: 300px; height: 300px;"" />
                   </div>","null","2","1","A","",""
"","","","","","html-keyboard-response","14","90402","0.0-14.0","BA4E4F5262844BAE94EDDA4A06349F22","0199db6a-db97-7756-bfee-1433d58d9e29","0199db60-0c70-7be3-948d-e21afdfd0731","","null","<div style=""display: flex; justify-content: center; align-items: center;"">
                     <img src=""images/causal/causal_series_2/causal_series_2_b.png"" style=""width: 300px; height: 300px;"" />
                   </div>","null","2","1","B","",""
"","","","","","html-keyboard-response","15","96403","0.0-15.0","BA4E4F5262844BAE94EDDA4A06349F22","0199db6a-db97-7756-bfee-1433d58d9e29","0199db60-0c70-7be3-948d-e21afdfd0731","","null","<div style=""display: flex; justify-content: center; align-items: center;"">
                     <img src=""images/causal/causal_series_2/causal_series_2_c.png"" style=""width: 300px; height: 300px;"" />
                   </div>","null","2","1","C","",""
"","","","","","html-button-response","16","98674","0.0-16.0","BA4E4F5262844BAE94EDDA4A06349F22","0199db6a-db97-7756-bfee-1433d58d9e29","0199db60-0c70-7be3-948d-e21afdfd0731","","2271","
        <div style=""display: flex; justify-content: center; align-items: center;"">
          <img src=""images/red_deck_2.png"" style=""width: 300px; height: 300px; margin-right: 10px;"" />
          <img src=""images/blue_deck_1.png"" style=""width: 300px; height: 300px;"" />
        </div>","1","2","1","choice","1",""
"","","","","","html-keyboard-response","17","104679","0.0-17.0-1.0-0.0","BA4E4F5262844BAE94EDDA4A06349F22","0199db6a-db97-7756-bfee-1433d58d9e29","0199db60-0c70-7be3-948d-e21afdfd0731","","null","<div style=""display: flex; justify-content: center; align-items: center;"">
                     <img src=""images/semantic/semantic_series_2/semantic_series_2_d.png"" style=""width: 300px; height: 300px;"" />
                   </div>","null","2","1","D","",""
"","","","","","survey-likert","18","113309","0.0-18.0","BA4E4F5262844BAE94EDDA4A06349F22","0199db6a-db97-7756-bfee-1433d58d9e29","0199db60-0c70-7be3-948d-e21afdfd0731","","8630","","{""Q0"":2}","2","1","surprise_rating","","[0]"
"","","","","","survey-likert","19","117344","0.0-19.0","BA4E4F5262844BAE94EDDA4A06349F22","0199db6a-db97-7756-bfee-1433d58d9e29","0199db60-0c70-7be3-948d-e21afdfd0731","","4034","","{""Q0"":1}","2","1","enjoyment_rating","","[0]"
"","","","","","html-keyboard-response","20","123345","0.0-20.0","BA4E4F5262844BAE94EDDA4A06349F22","0199db6a-db97-7756-bfee-1433d58d9e29","0199db60-0c70-7be3-948d-e21afdfd0731","","null","<div style=""display: flex; justify-content: center; align-items: center;"">
                     <img src=""images/other/blank.png"" style=""width: 300px; height: 300px;"" />
                   </div>","null","0","0","blank","",""
"","","","","","html-keyboard-response","21","129357","0.0-21.0","BA4E4F5262844BAE94EDDA4A06349F22","0199db6a-db97-7756-bfee-1433d58d9e29","0199db60-0c70-7be3-948d-e21afdfd0731","","null","<div style=""display: flex; justify-content: center; align-items: center;"">
                     <img src=""images/causal/causal_series_9/causal_series_9_a.png"" style=""width: 300px; height: 300px;"" />
                   </div>","null","9","1","A","",""
"","","","","","html-keyboard-response","22","135360","0.0-22.0","BA4E4F5262844BAE94EDDA4A06349F22","0199db6a-db97-7756-bfee-1433d58d9e29","0199db60-0c70-7be3-948d-e21afdfd0731","","null","<div style=""display: flex; justify-content: center; align-items: center;"">
                     <img src=""images/causal/causal_series_9/causal_series_9_b.png"" style=""width: 300px; height: 300px;"" />
                   </div>","null","9","1","B","",""
"","","","","","html-keyboard-response","23","141368","0.0-23.0","BA4E4F5262844BAE94EDDA4A06349F22","0199db6a-db97-7756-bfee-1433d58d9e29","0199db60-0c70-7be3-948d-e21afdfd0731","","null","<div style=""display: flex; justify-content: center; align-items: center;"">
                     <img src=""images/causal/causal_series_9/causal_series_9_c.png"" style=""width: 300px; height: 300px;"" />
                   </div>","null","9","1","C","",""
"","","","","","html-button-response","24","142934","0.0-24.0","BA4E4F5262844BAE94EDDA4A06349F22","0199db6a-db97-7756-bfee-1433d58d9e29","0199db60-0c70-7be3-948d-e21afdfd0731","","1565","
        <div style=""display: flex; justify-content: center; align-items: center;"">
          <img src=""images/red_deck_2.png"" style=""width: 300px; height: 300px; margin-right: 10px;"" />
          <img src=""images/blue_deck_1.png"" style=""width: 300px; height: 300px;"" />
        </div>","0","9","1","choice","0",""
"","","","","","html-keyboard-response","25","148939","0.0-25.0-0.0-0.0","BA4E4F5262844BAE94EDDA4A06349F22","0199db6a-db97-7756-bfee-1433d58d9e29","0199db60-0c70-7be3-948d-e21afdfd0731","","null","<div style=""display: flex; justify-content: center; align-items: center;"">
                     <img src=""images/causal/causal_series_9/causal_series_9_d.png"" style=""width: 300px; height: 300px;"" />
                   </div>","null","9","1","D","",""
"","","","","","survey-likert","26","152137","0.0-26.0","BA4E4F5262844BAE94EDDA4A06349F22","0199db6a-db97-7756-bfee-1433d58d9e29","0199db60-0c70-7be3-948d-e21afdfd0731","","3198","","{""Q0"":3}","9","1","surprise_rating","","[0]"
"","","","","","survey-likert","27","156710","0.0-27.0","BA4E4F5262844BAE94EDDA4A06349F22","0199db6a-db97-7756-bfee-1433d58d9e29","0199db60-0c70-7be3-948d-e21afdfd0731","","4572","","{""Q0"":4}","9","1","enjoyment_rating","","[0]"
"","","","","","html-keyboard-response","28","162716","0.0-28.0","BA4E4F5262844BAE94EDDA4A06349F22","0199db6a-db97-7756-bfee-1433d58d9e29","0199db60-0c70-7be3-948d-e21afdfd0731","","null","<div style=""display: flex; justify-content: center; align-items: center;"">
                     <img src=""images/other/blank.png"" style=""width: 300px; height: 300px;"" />
                   </div>","null","0","0","blank","",""
"","","","","","html-keyboard-response","29","168726","0.0-29.0","BA4E4F5262844BAE94EDDA4A06349F22","0199db6a-db97-7756-bfee-1433d58d9e29","0199db60-0c70-7be3-948d-e21afdfd0731","","null","<div style=""display: flex; justify-content: center; align-items: center;"">
                     <img src=""images/causal/causal_series_6/causal_series_6_a.png"" style=""width: 300px; height: 300px;"" />
                   </div>","null","6","1","A","",""
"","","","","","html-keyboard-response","30","174742","0.0-30.0","BA4E4F5262844BAE94EDDA4A06349F22","0199db6a-db97-7756-bfee-1433d58d9e29","0199db60-0c70-7be3-948d-e21afdfd0731","","null","<div style=""display: flex; justify-content: center; align-items: center;"">
                     <img src=""images/causal/causal_series_6/causal_series_6_b.png"" style=""width: 300px; height: 300px;"" />
                   </div>","null","6","1","B","",""
"","","","","","html-keyboard-response","31","180745","0.0-31.0","BA4E4F5262844BAE94EDDA4A06349F22","0199db6a-db97-7756-bfee-1433d58d9e29","0199db60-0c70-7be3-948d-e21afdfd0731","","null","<div style=""display: flex; justify-content: center; align-items: center;"">
                     <img src=""images/causal/causal_series_6/causal_series_6_c.png"" style=""width: 300px; height: 300px;"" />
                   </div>","null","6","1","C","",""
"","","","","","html-button-response","32","181958","0.0-32.0","BA4E4F5262844BAE94EDDA4A06349F22","0199db6a-db97-7756-bfee-1433d58d9e29","0199db60-0c70-7be3-948d-e21afdfd0731","","1212","
        <div style=""display: flex; justify-content: center; align-items: center;"">
          <img src=""images/red_deck_2.png"" style=""width: 300px; height: 300px; margin-right: 10px;"" />
          <img src=""images/blue_deck_1.png"" style=""width: 300px; height: 300px;"" />
        </div>","0","6","1","choice","0",""
"","","","","","html-keyboard-response","33","187966","0.0-33.0-0.0-0.0","BA4E4F5262844BAE94EDDA4A06349F22","0199db6a-db97-7756-bfee-1433d58d9e29","0199db60-0c70-7be3-948d-e21afdfd0731","","null","<div style=""display: flex; justify-content: center; align-items: center;"">
                     <img src=""images/causal/causal_series_6/causal_series_6_d.png"" style=""width: 300px; height: 300px;"" />
                   </div>","null","6","1","D","",""
"","","","","","survey-likert","34","191135","0.0-34.0","BA4E4F5262844BAE94EDDA4A06349F22","0199db6a-db97-7756-bfee-1433d58d9e29","0199db60-0c70-7be3-948d-e21afdfd0731","","3169","","{""Q0"":0}","6","1","surprise_rating","","[0]"
"","","","","","survey-likert","35","195542","0.0-35.0","BA4E4F5262844BAE94EDDA4A06349F22","0199db6a-db97-7756-bfee-1433d58d9e29","0199db60-0c70-7be3-948d-e21afdfd0731","","4406","","{""Q0"":1}","6","1","enjoyment_rating","","[0]"
"","","","","","html-keyboard-response","36","201546","0.0-36.0","BA4E4F5262844BAE94EDDA4A06349F22","0199db6a-db97-7756-bfee-1433d58d9e29","0199db60-0c70-7be3-948d-e21afdfd0731","","null","<div style=""display: flex; justify-content: center; align-items: center;"">
                     <img src=""images/other/blank.png"" style=""width: 300px; height: 300px;"" />
                   </div>","null","0","0","blank","",""
"","","","","","html-keyboard-response","37","207558","0.0-37.0","BA4E4F5262844BAE94EDDA4A06349F22","0199db6a-db97-7756-bfee-1433d58d9e29","0199db60-0c70-7be3-948d-e21afdfd0731","","null","<div style=""display: flex; justify-content: center; align-items: center;"">
                     <img src=""images/causal/causal_series_4/causal_series_4_a.png"" style=""width: 300px; height: 300px;"" />
                   </div>","null","4","1","A","",""
"","","","","","html-keyboard-response","38","213563","0.0-38.0","BA4E4F5262844BAE94EDDA4A06349F22","0199db6a-db97-7756-bfee-1433d58d9e29","0199db60-0c70-7be3-948d-e21afdfd0731","","null","<div style=""display: flex; justify-content: center; align-items: center;"">
                     <img src=""images/causal/causal_series_4/causal_series_4_b.png"" style=""width: 300px; height: 300px;"" />
                   </div>","null","4","1","B","",""
"","","","","","html-keyboard-response","39","219569","0.0-39.0","BA4E4F5262844BAE94EDDA4A06349F22","0199db6a-db97-7756-bfee-1433d58d9e29","0199db60-0c70-7be3-948d-e21afdfd0731","","null","<div style=""display: flex; justify-content: center; align-items: center;"">
                     <img src=""images/causal/causal_series_4/causal_series_4_c.png"" style=""width: 300px; height: 300px;"" />
                   </div>","null","4","1","C","",""
"","","","","","html-button-response","40","221512","0.0-40.0","BA4E4F5262844BAE94EDDA4A06349F22","0199db6a-db97-7756-bfee-1433d58d9e29","0199db60-0c70-7be3-948d-e21afdfd0731","","1942","
        <div style=""display: flex; justify-content: center; align-items: center;"">
          <img src=""images/red_deck_2.png"" style=""width: 300px; height: 300px; margin-right: 10px;"" />
          <img src=""images/blue_deck_1.png"" style=""width: 300px; height: 300px;"" />
        </div>","1","4","1","choice","1",""
"","","","","","html-keyboard-response","41","227513","0.0-41.0-1.0-0.0","BA4E4F5262844BAE94EDDA4A06349F22","0199db6a-db97-7756-bfee-1433d58d9e29","0199db60-0c70-7be3-948d-e21afdfd0731","","null","<div style=""display: flex; justify-content: center; align-items: center;"">
                     <img src=""images/semantic/semantic_series_4/semantic_series_4_d.png"" style=""width: 300px; height: 300px;"" />
                   </div>","null","4","1","D","",""
"","","","","","survey-likert","42","230667","0.0-42.0","BA4E4F5262844BAE94EDDA4A06349F22","0199db6a-db97-7756-bfee-1433d58d9e29","0199db60-0c70-7be3-948d-e21afdfd0731","","3154","","{""Q0"":1}","4","1","surprise_rating","","[0]"
"","","","","","survey-likert","43","232173","0.0-43.0","BA4E4F5262844BAE94EDDA4A06349F22","0199db6a-db97-7756-bfee-1433d58d9e29","0199db60-0c70-7be3-948d-e21afdfd0731","","1505","","{""Q0"":1}","4","1","enjoyment_rating","","[0]"
"","","","","","html-keyboard-response","44","238177","0.0-44.0","BA4E4F5262844BAE94EDDA4A06349F22","0199db6a-db97-7756-bfee-1433d58d9e29","0199db60-0c70-7be3-948d-e21afdfd0731","","null","<div style=""display: flex; justify-content: center; align-items: center;"">
                     <img src=""images/other/blank.png"" style=""width: 300px; height: 300px;"" />
                   </div>","null","0","0","blank","",""
"","","","","","html-keyboard-response","45","244188","0.0-45.0","BA4E4F5262844BAE94EDDA4A06349F22","0199db6a-db97-7756-bfee-1433d58d9e29","0199db60-0c70-7be3-948d-e21afdfd0731","","null","<div style=""display: flex; justify-content: center; align-items: center;"">
                     <img src=""images/causal/causal_series_10/causal_series_10_a.png"" style=""width: 300px; height: 300px;"" />
                   </div>","null","10","1","A","",""
"","","","","","html-keyboard-response","46","250192","0.0-46.0","BA4E4F5262844BAE94EDDA4A06349F22","0199db6a-db97-7756-bfee-1433d58d9e29","0199db60-0c70-7be3-948d-e21afdfd0731","","null","<div style=""display: flex; justify-content: center; align-items: center;"">
                     <img src=""images/causal/causal_series_10/causal_series_10_b.png"" style=""width: 300px; height: 300px;"" />
                   </div>","null","10","1","B","",""
"","","","","","html-keyboard-response","47","256199","0.0-47.0","BA4E4F5262844BAE94EDDA4A06349F22","0199db6a-db97-7756-bfee-1433d58d9e29","0199db60-0c70-7be3-948d-e21afdfd0731","","null","<div style=""display: flex; justify-content: center; align-items: center;"">
                     <img src=""images/causal/causal_series_10/causal_series_10_c.png"" style=""width: 300px; height: 300px;"" />
                   </div>","null","10","1","C","",""
"","","","","","html-button-response","48","257133","0.0-48.0","BA4E4F5262844BAE94EDDA4A06349F22","0199db6a-db97-7756-bfee-1433d58d9e29","0199db60-0c70-7be3-948d-e21afdfd0731","","933","
        <div style=""display: flex; justify-content: center; align-items: center;"">
          <img src=""images/red_deck_2.png"" style=""width: 300px; height: 300px; margin-right: 10px;"" />
          <img src=""images/blue_deck_1.png"" style=""width: 300px; height: 300px;"" />
        </div>","1","10","1","choice","1",""
"","","","","","html-keyboard-response","49","263144","0.0-49.0-1.0-0.0","BA4E4F5262844BAE94EDDA4A06349F22","0199db6a-db97-7756-bfee-1433d58d9e29","0199db60-0c70-7be3-948d-e21afdfd0731","","null","<div style=""display: flex; justify-content: center; align-items: center;"">
                     <img src=""images/semantic/semantic_series_10/semantic_series_10_d.png"" style=""width: 300px; height: 300px;"" />
                   </div>","null","10","1","D","",""
"","","","","","survey-likert","50","268824","0.0-50.0","BA4E4F5262844BAE94EDDA4A06349F22","0199db6a-db97-7756-bfee-1433d58d9e29","0199db60-0c70-7be3-948d-e21afdfd0731","","5680","","{""Q0"":3}","10","1","surprise_rating","","[0]"
"","","","","","survey-likert","51","272549","0.0-51.0","BA4E4F5262844BAE94EDDA4A06349F22","0199db6a-db97-7756-bfee-1433d58d9e29","0199db60-0c70-7be3-948d-e21afdfd0731","","3724","","{""Q0"":2}","10","1","enjoyment_rating","","[0]"
"","","","","","html-keyboard-response","52","278551","0.0-52.0","BA4E4F5262844BAE94EDDA4A06349F22","0199db6a-db97-7756-bfee-1433d58d9e29","0199db60-0c70-7be3-948d-e21afdfd0731","","null","<div style=""display: flex; justify-content: center; align-items: center;"">
                     <img src=""images/other/blank.png"" style=""width: 300px; height: 300px;"" />
                   </div>","null","0","0","blank","",""
"","","","","","html-keyboard-response","53","284554","0.0-53.0","BA4E4F5262844BAE94EDDA4A06349F22","0199db6a-db97-7756-bfee-1433d58d9e29","0199db60-0c70-7be3-948d-e21afdfd0731","","null","<div style=""display: flex; justify-content: center; align-items: center;"">
                     <img src=""images/causal/causal_series_1/causal_series_1_a.png"" style=""width: 300px; height: 300px;"" />
                   </div>","null","1","1","A","",""
"","","","","","html-keyboard-response","54","290566","0.0-54.0","BA4E4F5262844BAE94EDDA4A06349F22","0199db6a-db97-7756-bfee-1433d58d9e29","0199db60-0c70-7be3-948d-e21afdfd0731","","null","<div style=""display: flex; justify-content: center; align-items: center;"">
                     <img src=""images/causal/causal_series_1/causal_series_1_b.png"" style=""width: 300px; height: 300px;"" />
                   </div>","null","1","1","B","",""
"","","","","","html-keyboard-response","55","296575","0.0-55.0","BA4E4F5262844BAE94EDDA4A06349F22","0199db6a-db97-7756-bfee-1433d58d9e29","0199db60-0c70-7be3-948d-e21afdfd0731","","null","<div style=""display: flex; justify-content: center; align-items: center;"">
                     <img src=""images/causal/causal_series_1/causal_series_1_c.png"" style=""width: 300px; height: 300px;"" />
                   </div>","null","1","1","C","",""
"","","","","","html-button-response","56","301136","0.0-56.0","BA4E4F5262844BAE94EDDA4A06349F22","0199db6a-db97-7756-bfee-1433d58d9e29","0199db60-0c70-7be3-948d-e21afdfd0731","","4560","
        <div style=""display: flex; justify-content: center; align-items: center;"">
          <img src=""images/red_deck_2.png"" style=""width: 300px; height: 300px; margin-right: 10px;"" />
          <img src=""images/blue_deck_1.png"" style=""width: 300px; height: 300px;"" />
        </div>","1","1","1","choice","1",""
"","","","","","html-keyboard-response","57","307145","0.0-57.0-1.0-0.0","BA4E4F5262844BAE94EDDA4A06349F22","0199db6a-db97-7756-bfee-1433d58d9e29","0199db60-0c70-7be3-948d-e21afdfd0731","","null","<div style=""display: flex; justify-content: center; align-items: center;"">
                     <img src=""images/semantic/semantic_series_1/semantic_series_1_d.png"" style=""width: 300px; height: 300px;"" />
                   </div>","null","1","1","D","",""
"","","","","","survey-likert","58","308934","0.0-58.0","BA4E4F5262844BAE94EDDA4A06349F22","0199db6a-db97-7756-bfee-1433d58d9e29","0199db60-0c70-7be3-948d-e21afdfd0731","","1789","","{""Q0"":2}","1","1","surprise_rating","","[0]"
"","","","","","survey-likert","59","310136","0.0-59.0","BA4E4F5262844BAE94EDDA4A06349F22","0199db6a-db97-7756-bfee-1433d58d9e29","0199db60-0c70-7be3-948d-e21afdfd0731","","1201","","{""Q0"":2}","1","1","enjoyment_rating","","[0]"
"","","","","","html-keyboard-response","60","316150","0.0-60.0","BA4E4F5262844BAE94EDDA4A06349F22","0199db6a-db97-7756-bfee-1433d58d9e29","0199db60-0c70-7be3-948d-e21afdfd0731","","null","<div style=""display: flex; justify-content: center; align-items: center;"">
                     <img src=""images/other/blank.png"" style=""width: 300px; height: 300px;"" />
                   </div>","null","0","0","blank","",""
"","","","","","html-keyboard-response","61","322161","0.0-61.0","BA4E4F5262844BAE94EDDA4A06349F22","0199db6a-db97-7756-bfee-1433d58d9e29","0199db60-0c70-7be3-948d-e21afdfd0731","","null","<div style=""display: flex; justify-content: center; align-items: center;"">
                     <img src=""images/causal/causal_series_3/causal_series_3_a.png"" style=""width: 300px; height: 300px;"" />
                   </div>","null","3","1","A","",""
"","","","","","html-keyboard-response","62","328163","0.0-62.0","BA4E4F5262844BAE94EDDA4A06349F22","0199db6a-db97-7756-bfee-1433d58d9e29","0199db60-0c70-7be3-948d-e21afdfd0731","","null","<div style=""display: flex; justify-content: center; align-items: center;"">
                     <img src=""images/causal/causal_series_3/causal_series_3_b.png"" style=""width: 300px; height: 300px;"" />
                   </div>","null","3","1","B","",""
"","","","","","html-keyboard-response","63","334174","0.0-63.0","BA4E4F5262844BAE94EDDA4A06349F22","0199db6a-db97-7756-bfee-1433d58d9e29","0199db60-0c70-7be3-948d-e21afdfd0731","","null","<div style=""display: flex; justify-content: center; align-items: center;"">
                     <img src=""images/causal/causal_series_3/causal_series_3_c.png"" style=""width: 300px; height: 300px;"" />
                   </div>","null","3","1","C","",""
"","","","","","html-button-response","64","334819","0.0-64.0","BA4E4F5262844BAE94EDDA4A06349F22","0199db6a-db97-7756-bfee-1433d58d9e29","0199db60-0c70-7be3-948d-e21afdfd0731","","644","
        <div style=""display: flex; justify-content: center; align-items: center;"">
          <img src=""images/red_deck_2.png"" style=""width: 300px; height: 300px; margin-right: 10px;"" />
          <img src=""images/blue_deck_1.png"" style=""width: 300px; height: 300px;"" />
        </div>","0","3","1","choice","0",""
"","","","","","html-keyboard-response","65","340825","0.0-65.0-0.0-0.0","BA4E4F5262844BAE94EDDA4A06349F22","0199db6a-db97-7756-bfee-1433d58d9e29","0199db60-0c70-7be3-948d-e21afdfd0731","","null","<div style=""display: flex; justify-content: center; align-items: center;"">
                     <img src=""images/causal/causal_series_3/causal_series_3_d.png"" style=""width: 300px; height: 300px;"" />
                   </div>","null","3","1","D","",""
"","","","","","survey-likert","66","345662","0.0-66.0","BA4E4F5262844BAE94EDDA4A06349F22","0199db6a-db97-7756-bfee-1433d58d9e29","0199db60-0c70-7be3-948d-e21afdfd0731","","4837","","{""Q0"":3}","3","1","surprise_rating","","[0]"
"","","","","","survey-likert","67","348212","0.0-67.0","BA4E4F5262844BAE94EDDA4A06349F22","0199db6a-db97-7756-bfee-1433d58d9e29","0199db60-0c70-7be3-948d-e21afdfd0731","","2549","","{""Q0"":3}","3","1","enjoyment_rating","","[0]"
"","","","","","html-keyboard-response","68","354224","0.0-68.0","BA4E4F5262844BAE94EDDA4A06349F22","0199db6a-db97-7756-bfee-1433d58d9e29","0199db60-0c70-7be3-948d-e21afdfd0731","","null","<div style=""display: flex; justify-content: center; align-items: center;"">
                     <img src=""images/other/blank.png"" style=""width: 300px; height: 300px;"" />
                   </div>","null","0","0","blank","",""
"","","","","","html-keyboard-response","69","360226","0.0-69.0","BA4E4F5262844BAE94EDDA4A06349F22","0199db6a-db97-7756-bfee-1433d58d9e29","0199db60-0c70-7be3-948d-e21afdfd0731","","null","<div style=""display: flex; justify-content: center; align-items: center;"">
                     <img src=""images/causal/causal_series_8/causal_series_8_a.png"" style=""width: 300px; height: 300px;"" />
                   </div>","null","8","1","A","",""
"","","","","","html-keyboard-response","70","366234","0.0-70.0","BA4E4F5262844BAE94EDDA4A06349F22","0199db6a-db97-7756-bfee-1433d58d9e29","0199db60-0c70-7be3-948d-e21afdfd0731","","null","<div style=""display: flex; justify-content: center; align-items: center;"">
                     <img src=""images/causal/causal_series_8/causal_series_8_b.png"" style=""width: 300px; height: 300px;"" />
                   </div>","null","8","1","B","",""
"","","","","","html-keyboard-response","71","372246","0.0-71.0","BA4E4F5262844BAE94EDDA4A06349F22","0199db6a-db97-7756-bfee-1433d58d9e29","0199db60-0c70-7be3-948d-e21afdfd0731","","null","<div style=""display: flex; justify-content: center; align-items: center;"">
                     <img src=""images/causal/causal_series_8/causal_series_8_c.png"" style=""width: 300px; height: 300px;"" />
                   </div>","null","8","1","C","",""
"","","","","","html-button-response","72","374547","0.0-72.0","BA4E4F5262844BAE94EDDA4A06349F22","0199db6a-db97-7756-bfee-1433d58d9e29","0199db60-0c70-7be3-948d-e21afdfd0731","","2300","
        <div style=""display: flex; justify-content: center; align-items: center;"">
          <img src=""images/red_deck_2.png"" style=""width: 300px; height: 300px; margin-right: 10px;"" />
          <img src=""images/blue_deck_1.png"" style=""width: 300px; height: 300px;"" />
        </div>","0","8","1","choice","0",""
"","","","","","html-keyboard-response","73","380562","0.0-73.0-0.0-0.0","BA4E4F5262844BAE94EDDA4A06349F22","0199db6a-db97-7756-bfee-1433d58d9e29","0199db60-0c70-7be3-948d-e21afdfd0731","","null","<div style=""display: flex; justify-content: center; align-items: center;"">
                     <img src=""images/causal/causal_series_8/causal_series_8_d.png"" style=""width: 300px; height: 300px;"" />
                   </div>","null","8","1","D","",""
"","","","","","survey-likert","74","396727","0.0-74.0","BA4E4F5262844BAE94EDDA4A06349F22","0199db6a-db97-7756-bfee-1433d58d9e29","0199db60-0c70-7be3-948d-e21afdfd0731","","16165","","{""Q0"":3}","8","1","surprise_rating","","[0]"
"","","","","","survey-likert","75","398053","0.0-75.0","BA4E4F5262844BAE94EDDA4A06349F22","0199db6a-db97-7756-bfee-1433d58d9e29","0199db60-0c70-7be3-948d-e21afdfd0731","","1325","","{""Q0"":4}","8","1","enjoyment_rating","","[0]"
"","","","","","html-keyboard-response","76","404056","0.0-76.0","BA4E4F5262844BAE94EDDA4A06349F22","0199db6a-db97-7756-bfee-1433d58d9e29","0199db60-0c70-7be3-948d-e21afdfd0731","","null","<div style=""display: flex; justify-content: center; align-items: center;"">
                     <img src=""images/other/blank.png"" style=""width: 300px; height: 300px;"" />
                   </div>","null","0","0","blank","",""
"","","","","","html-keyboard-response","77","410063","0.0-77.0","BA4E4F5262844BAE94EDDA4A06349F22","0199db6a-db97-7756-bfee-1433d58d9e29","0199db60-0c70-7be3-948d-e21afdfd0731","","null","<div style=""display: flex; justify-content: center; align-items: center;"">
                     <img src=""images/causal/causal_series_7/causal_series_7_a.png"" style=""width: 300px; height: 300px;"" />
                   </div>","null","7","1","A","",""
"","","","","","html-keyboard-response","78","416074","0.0-78.0","BA4E4F5262844BAE94EDDA4A06349F22","0199db6a-db97-7756-bfee-1433d58d9e29","0199db60-0c70-7be3-948d-e21afdfd0731","","null","<div style=""display: flex; justify-content: center; align-items: center;"">
                     <img src=""images/causal/causal_series_7/causal_series_7_b.png"" style=""width: 300px; height: 300px;"" />
                   </div>","null","7","1","B","",""
"","","","","","html-keyboard-response","79","422075","0.0-79.0","BA4E4F5262844BAE94EDDA4A06349F22","0199db6a-db97-7756-bfee-1433d58d9e29","0199db60-0c70-7be3-948d-e21afdfd0731","","null","<div style=""display: flex; justify-content: center; align-items: center;"">
                     <img src=""images/causal/causal_series_7/causal_series_7_c.png"" style=""width: 300px; height: 300px;"" />
                   </div>","null","7","1","C","",""
"","","","","","html-button-response","80","422733","0.0-80.0","BA4E4F5262844BAE94EDDA4A06349F22","0199db6a-db97-7756-bfee-1433d58d9e29","0199db60-0c70-7be3-948d-e21afdfd0731","","657","
        <div style=""display: flex; justify-content: center; align-items: center;"">
          <img src=""images/red_deck_2.png"" style=""width: 300px; height: 300px; margin-right: 10px;"" />
          <img src=""images/blue_deck_1.png"" style=""width: 300px; height: 300px;"" />
        </div>","1","7","1","choice","1",""
"","","","","","html-keyboard-response","81","428740","0.0-81.0-1.0-0.0","BA4E4F5262844BAE94EDDA4A06349F22","0199db6a-db97-7756-bfee-1433d58d9e29","0199db60-0c70-7be3-948d-e21afdfd0731","","null","<div style=""display: flex; justify-content: center; align-items: center;"">
                     <img src=""images/semantic/semantic_series_7/semantic_series_7_d.png"" style=""width: 300px; height: 300px;"" />
                   </div>","null","7","1","D","",""
"","","","","","survey-likert","82","432100","0.0-82.0","BA4E4F5262844BAE94EDDA4A06349F22","0199db6a-db97-7756-bfee-1433d58d9e29","0199db60-0c70-7be3-948d-e21afdfd0731","","3359","","{""Q0"":2}","7","1","surprise_rating","","[0]"
"","","","","","survey-likert","83","434266","0.0-83.0","BA4E4F5262844BAE94EDDA4A06349F22","0199db6a-db97-7756-bfee-1433d58d9e29","0199db60-0c70-7be3-948d-e21afdfd0731","","2166","","{""Q0"":2}","7","1","enjoyment_rating","","[0]"
"","","","","","html-keyboard-response","84","440274","0.0-84.0","BA4E4F5262844BAE94EDDA4A06349F22","0199db6a-db97-7756-bfee-1433d58d9e29","0199db60-0c70-7be3-948d-e21afdfd0731","","null","<div style=""display: flex; justify-content: center; align-items: center;"">
                     <img src=""images/other/blank.png"" style=""width: 300px; height: 300px;"" />
                   </div>","null","0","0","blank","",""
"","","","","","survey-text","85","526927","0.0-85.0","BA4E4F5262844BAE94EDDA4A06349F22","0199db6a-db97-7756-bfee-1433d58d9e29","0199db60-0c70-7be3-948d-e21afdfd0731","","86651","","{""Q0"":""The blue one continues the story while the red one adds new information to it. (I suspect there was actually no difference between the two though and you gave me only the illusion of choice)""}","","","","",""
"","","","","","html-button-response","86","534345","0.0-86.0","BA4E4F5262844BAE94EDDA4A06349F22","0199db6a-db97-7756-bfee-1433d58d9e29","0199db60-0c70-7be3-948d-e21afdfd0731","","7418","Which color deck do the following sentences continue the story from?","0","","","","",""
"","","","","","html-button-response","87","542105","0.0-87.0","BA4E4F5262844BAE94EDDA4A06349F22","0199db6a-db97-7756-bfee-1433d58d9e29","0199db60-0c70-7be3-948d-e21afdfd0731","","7760","Which color deck do the following sentences NOT follow the story from?","1","","","","",""
"","","","","","html-button-response","88","546088","0.0-88.0","BA4E4F5262844BAE94EDDA4A06349F22","0199db6a-db97-7756-bfee-1433d58d9e29","0199db60-0c70-7be3-948d-e21afdfd0731","","3982","Which type of deck did you prefer overall?","1","","","","",""
"","","","","","survey-text","89","552753","0.0-89.0","BA4E4F5262844BAE94EDDA4A06349F22","0199db6a-db97-7756-bfee-1433d58d9e29","0199db60-0c70-7be3-948d-e21afdfd0731","","6663","","{""Q0"":""Male"",""Q1"":""20""}","","","","",""
"","","","","","instructions","90","558051","0.0-90.0","BA4E4F5262844BAE94EDDA4A06349F22","0199db6a-db97-7756-bfee-1433d58d9e29","0199db60-0c70-7be3-948d-e21afdfd0731","[{""page_index"":0,""viewing_time"":5297}]","5297","","","","","","",""
