"success","timeout","failed_images","failed_audio","failed_video","trial_type","trial_index","time_elapsed","internal_node_id","subject_id","study_id","session_id","view_history","rt","stimulus","response","series","repetition","phase","choice","question_order"
"true","false","[]","[]","[]","preload","0","399","0.0-0.0","04B1CF06A3DA4539BBF84AAC8D474244","0199d676-59a1-723c-9aaf-d9a224d7b4f3","0199d675-8795-765b-adc2-c813de8cd3d1","","","","","","","","",""
"","","","","","instructions","1","7350","0.0-1.0","04B1CF06A3DA4539BBF84AAC8D474244","0199d676-59a1-723c-9aaf-d9a224d7b4f3","0199d675-8795-765b-adc2-c813de8cd3d1","[{""page_index"":0,""viewing_time"":6950}]","6950","","","","","","",""
"","","","","","instructions","2","10729","0.0-2.0","04B1CF06A3DA4539BBF84AAC8D474244","0199d676-59a1-723c-9aaf-d9a224d7b4f3","0199d675-8795-765b-adc2-c813de8cd3d1","[{""page_index"":0,""viewing_time"":3379}]","3379","","","","","","",""
"true","","","","","fullscreen","3","13390","0.0-3.0","04B1CF06A3DA4539BBF84AAC8D474244","0199d676-59a1-723c-9aaf-d9a224d7b4f3","0199d675-8795-765b-adc2-c813de8cd3d1","","1659","","","","","","",""
"","","","","","instructions","4","25985","0.0-4.0","04B1CF06A3DA4539BBF84AAC8D474244","0199d676-59a1-723c-9aaf-d9a224d7b4f3","0199d675-8795-765b-adc2-c813de8cd3d1","[{""page_index"":0,""viewing_time"":12595}]","12595","","","","","","",""
"","","","","","html-keyboard-response","5","31986","0.0-5.0","04B1CF06A3DA4539BBF84AAC8D474244","0199d676-59a1-723c-9aaf-d9a224d7b4f3","0199d675-8795-765b-adc2-c813de8cd3d1","","null","<div style=""display: flex; justify-content: center; align-items: center;"">
                     <img src=""images/causal/causal_series_7/causal_series_7_a.png"" style=""width: 300px; height: 300px;"" />
                   </div>","null","7","2","A","",""
"","","","","","html-button-response","6","38360","0.0-6.0","04B1CF06A3DA4539BBF84AAC8D474244","0199d676-59a1-723c-9aaf-d9a224d7b4f3","0199d675-8795-765b-adc2-c813de8cd3d1","","6374","
        <div style=""display: flex; justify-content: center; align-items: center;"">
          <img src=""images/red_deck_2.png"" style=""width: 300px; height: 300px; margin-right: 10px;"" />
          <img src=""images/blue_deck_1.png"" style=""width: 300px; height: 300px;"" />
        </div>","0","7","2","choice","0",""
"","","","","","html-keyboard-response","7","44361","0.0-7.0-0.0-0.0","04B1CF06A3DA4539BBF84AAC8D474244","0199d676-59a1-723c-9aaf-d9a224d7b4f3","0199d675-8795-765b-adc2-c813de8cd3d1","","null","<div style=""display: flex; justify-content: center; align-items: center;"">
                     <img src=""images/causal/causal_series_7/causal_series_7_b.png"" style=""width: 300px; height: 300px;"" />
                   </div>","null","7","2","B","",""
"","","","","","html-keyboard-response","8","50361","0.0-7.0-0.0-1.0","04B1CF06A3DA4539BBF84AAC8D474244","0199d676-59a1-723c-9aaf-d9a224d7b4f3","0199d675-8795-765b-adc2-c813de8cd3d1","","null","<div style=""display: flex; justify-content: center; align-items: center;"">
                     <img src=""images/causal/causal_series_7/causal_series_7_c.png"" style=""width: 300px; height: 300px;"" />
                   </div>","null","7","2","C","",""
"","","","","","html-keyboard-response","9","56362","0.0-7.0-0.0-2.0","04B1CF06A3DA4539BBF84AAC8D474244","0199d676-59a1-723c-9aaf-d9a224d7b4f3","0199d675-8795-765b-adc2-c813de8cd3d1","","null","<div style=""display: flex; justify-content: center; align-items: center;"">
                     <img src=""images/causal/causal_series_7/causal_series_7_d.png"" style=""width: 300px; height: 300px;"" />
                   </div>","null","7","2","D","",""
"","","","","","survey-likert","10","72413","0.0-8.0","04B1CF06A3DA4539BBF84AAC8D474244","0199d676-59a1-723c-9aaf-d9a224d7b4f3","0199d675-8795-765b-adc2-c813de8cd3d1","","16051","","{""Q0"":2}","7","2","surprise_rating","","[0]"
"","","","","","survey-likert","11","78144","0.0-9.0","04B1CF06A3DA4539BBF84AAC8D474244","0199d676-59a1-723c-9aaf-d9a224d7b4f3","0199d675-8795-765b-adc2-c813de8cd3d1","","5731","","{""Q0"":1}","7","2","enjoyment_rating","","[0]"
"","","","","","html-keyboard-response","12","84145","0.0-10.0","04B1CF06A3DA4539BBF84AAC8D474244","0199d676-59a1-723c-9aaf-d9a224d7b4f3","0199d675-8795-765b-adc2-c813de8cd3d1","","null","<div style=""display: flex; justify-content: center; align-items: center;"">
                     <img src=""images/other/blank.png"" style=""width: 300px; height: 300px;"" />
                   </div>","null","0","0","blank","",""
"","","","","","html-keyboard-response","13","90145","0.0-11.0","04B1CF06A3DA4539BBF84AAC8D474244","0199d676-59a1-723c-9aaf-d9a224d7b4f3","0199d675-8795-765b-adc2-c813de8cd3d1","","null","<div style=""display: flex; justify-content: center; align-items: center;"">
                     <img src=""images/causal/causal_series_10/causal_series_10_a.png"" style=""width: 300px; height: 300px;"" />
                   </div>","null","10","2","A","",""
"","","","","","html-button-response","14","91592","0.0-12.0","04B1CF06A3DA4539BBF84AAC8D474244","0199d676-59a1-723c-9aaf-d9a224d7b4f3","0199d675-8795-765b-adc2-c813de8cd3d1","","1446","
        <div style=""display: flex; justify-content: center; align-items: center;"">
          <img src=""images/red_deck_2.png"" style=""width: 300px; height: 300px; margin-right: 10px;"" />
          <img src=""images/blue_deck_1.png"" style=""width: 300px; height: 300px;"" />
        </div>","1","10","2","choice","1",""
"","","","","","html-keyboard-response","15","97593","0.0-13.0-1.0-0.0","04B1CF06A3DA4539BBF84AAC8D474244","0199d676-59a1-723c-9aaf-d9a224d7b4f3","0199d675-8795-765b-adc2-c813de8cd3d1","","null","<div style=""display: flex; justify-content: center; align-items: center;"">
                     <img src=""images/semantic/semantic_series_10/semantic_series_10_b.png"" style=""width: 300px; height: 300px;"" />
                   </div>","null","10","2","B","",""
"","","","","","html-keyboard-response","16","103593","0.0-13.0-1.0-1.0","04B1CF06A3DA4539BBF84AAC8D474244","0199d676-59a1-723c-9aaf-d9a224d7b4f3","0199d675-8795-765b-adc2-c813de8cd3d1","","null","<div style=""display: flex; justify-content: center; align-items: center;"">
                     <img src=""images/semantic/semantic_series_10/semantic_series_10_c.png"" style=""width: 300px; height: 300px;"" />
                   </div>","null","10","2","C","",""
"","","","","","html-keyboard-response","17","109594","0.0-13.0-1.0-2.0","04B1CF06A3DA4539BBF84AAC8D474244","0199d676-59a1-723c-9aaf-d9a224d7b4f3","0199d675-8795-765b-adc2-c813de8cd3d1","","null","<div style=""display: flex; justify-content: center; align-items: center;"">
                     <img src=""images/semantic/semantic_series_10/semantic_series_10_d.png"" style=""width: 300px; height: 300px;"" />
                   </div>","null","10","2","D","",""
"","","","","","survey-likert","18","114828","0.0-14.0","04B1CF06A3DA4539BBF84AAC8D474244","0199d676-59a1-723c-9aaf-d9a224d7b4f3","0199d675-8795-765b-adc2-c813de8cd3d1","","5234","","{""Q0"":1}","10","2","surprise_rating","","[0]"
"","","","","","survey-likert","19","118149","0.0-15.0","04B1CF06A3DA4539BBF84AAC8D474244","0199d676-59a1-723c-9aaf-d9a224d7b4f3","0199d675-8795-765b-adc2-c813de8cd3d1","","3321","","{""Q0"":1}","10","2","enjoyment_rating","","[0]"
"","","","","","html-keyboard-response","20","124150","0.0-16.0","04B1CF06A3DA4539BBF84AAC8D474244","0199d676-59a1-723c-9aaf-d9a224d7b4f3","0199d675-8795-765b-adc2-c813de8cd3d1","","null","<div style=""display: flex; justify-content: center; align-items: center;"">
                     <img src=""images/other/blank.png"" style=""width: 300px; height: 300px;"" />
                   </div>","null","0","0","blank","",""
"","","","","","html-keyboard-response","21","130150","0.0-17.0","04B1CF06A3DA4539BBF84AAC8D474244","0199d676-59a1-723c-9aaf-d9a224d7b4f3","0199d675-8795-765b-adc2-c813de8cd3d1","","null","<div style=""display: flex; justify-content: center; align-items: center;"">
                     <img src=""images/causal/causal_series_4/causal_series_4_a.png"" style=""width: 300px; height: 300px;"" />
                   </div>","null","4","1","A","",""
"","","","","","html-button-response","22","131785","0.0-18.0","04B1CF06A3DA4539BBF84AAC8D474244","0199d676-59a1-723c-9aaf-d9a224d7b4f3","0199d675-8795-765b-adc2-c813de8cd3d1","","1634","
        <div style=""display: flex; justify-content: center; align-items: center;"">
          <img src=""images/red_deck_2.png"" style=""width: 300px; height: 300px; margin-right: 10px;"" />
          <img src=""images/blue_deck_1.png"" style=""width: 300px; height: 300px;"" />
        </div>","1","4","1","choice","1",""
"","","","","","html-keyboard-response","23","137785","0.0-19.0-1.0-0.0","04B1CF06A3DA4539BBF84AAC8D474244","0199d676-59a1-723c-9aaf-d9a224d7b4f3","0199d675-8795-765b-adc2-c813de8cd3d1","","null","<div style=""display: flex; justify-content: center; align-items: center;"">
                     <img src=""images/semantic/semantic_series_4/semantic_series_4_b.png"" style=""width: 300px; height: 300px;"" />
                   </div>","null","4","1","B","",""
"","","","","","html-keyboard-response","24","143786","0.0-19.0-1.0-1.0","04B1CF06A3DA4539BBF84AAC8D474244","0199d676-59a1-723c-9aaf-d9a224d7b4f3","0199d675-8795-765b-adc2-c813de8cd3d1","","null","<div style=""display: flex; justify-content: center; align-items: center;"">
                     <img src=""images/semantic/semantic_series_4/semantic_series_4_c.png"" style=""width: 300px; height: 300px;"" />
                   </div>","null","4","1","C","",""
"","","","","","html-keyboard-response","25","149786","0.0-19.0-1.0-2.0","04B1CF06A3DA4539BBF84AAC8D474244","0199d676-59a1-723c-9aaf-d9a224d7b4f3","0199d675-8795-765b-adc2-c813de8cd3d1","","null","<div style=""display: flex; justify-content: center; align-items: center;"">
                     <img src=""images/semantic/semantic_series_4/semantic_series_4_d.png"" style=""width: 300px; height: 300px;"" />
                   </div>","null","4","1","D","",""
"","","","","","survey-likert","26","154717","0.0-20.0","04B1CF06A3DA4539BBF84AAC8D474244","0199d676-59a1-723c-9aaf-d9a224d7b4f3","0199d675-8795-765b-adc2-c813de8cd3d1","","4930","","{""Q0"":2}","4","1","surprise_rating","","[0]"
"","","","","","survey-likert","27","162747","0.0-21.0","04B1CF06A3DA4539BBF84AAC8D474244","0199d676-59a1-723c-9aaf-d9a224d7b4f3","0199d675-8795-765b-adc2-c813de8cd3d1","","8029","","{""Q0"":2}","4","1","enjoyment_rating","","[0]"
"","","","","","html-keyboard-response","28","168747","0.0-22.0","04B1CF06A3DA4539BBF84AAC8D474244","0199d676-59a1-723c-9aaf-d9a224d7b4f3","0199d675-8795-765b-adc2-c813de8cd3d1","","null","<div style=""display: flex; justify-content: center; align-items: center;"">
                     <img src=""images/other/blank.png"" style=""width: 300px; height: 300px;"" />
                   </div>","null","0","0","blank","",""
"","","","","","html-keyboard-response","29","174748","0.0-23.0","04B1CF06A3DA4539BBF84AAC8D474244","0199d676-59a1-723c-9aaf-d9a224d7b4f3","0199d675-8795-765b-adc2-c813de8cd3d1","","null","<div style=""display: flex; justify-content: center; align-items: center;"">
                     <img src=""images/causal/causal_series_2/causal_series_2_a.png"" style=""width: 300px; height: 300px;"" />
                   </div>","null","2","2","A","",""
"","","","","","html-button-response","30","176379","0.0-24.0","04B1CF06A3DA4539BBF84AAC8D474244","0199d676-59a1-723c-9aaf-d9a224d7b4f3","0199d675-8795-765b-adc2-c813de8cd3d1","","1631","
        <div style=""display: flex; justify-content: center; align-items: center;"">
          <img src=""images/red_deck_2.png"" style=""width: 300px; height: 300px; margin-right: 10px;"" />
          <img src=""images/blue_deck_1.png"" style=""width: 300px; height: 300px;"" />
        </div>","0","2","2","choice","0",""
"","","","","","html-keyboard-response","31","182380","0.0-25.0-0.0-0.0","04B1CF06A3DA4539BBF84AAC8D474244","0199d676-59a1-723c-9aaf-d9a224d7b4f3","0199d675-8795-765b-adc2-c813de8cd3d1","","null","<div style=""display: flex; justify-content: center; align-items: center;"">
                     <img src=""images/causal/causal_series_2/causal_series_2_b.png"" style=""width: 300px; height: 300px;"" />
                   </div>","null","2","2","B","",""
"","","","","","html-keyboard-response","32","188380","0.0-25.0-0.0-1.0","04B1CF06A3DA4539BBF84AAC8D474244","0199d676-59a1-723c-9aaf-d9a224d7b4f3","0199d675-8795-765b-adc2-c813de8cd3d1","","null","<div style=""display: flex; justify-content: center; align-items: center;"">
                     <img src=""images/causal/causal_series_2/causal_series_2_c.png"" style=""width: 300px; height: 300px;"" />
                   </div>","null","2","2","C","",""
"","","","","","html-keyboard-response","33","194380","0.0-25.0-0.0-2.0","04B1CF06A3DA4539BBF84AAC8D474244","0199d676-59a1-723c-9aaf-d9a224d7b4f3","0199d675-8795-765b-adc2-c813de8cd3d1","","null","<div style=""display: flex; justify-content: center; align-items: center;"">
                     <img src=""images/causal/causal_series_2/causal_series_2_d.png"" style=""width: 300px; height: 300px;"" />
                   </div>","null","2","2","D","",""
"","","","","","survey-likert","34","198638","0.0-26.0","04B1CF06A3DA4539BBF84AAC8D474244","0199d676-59a1-723c-9aaf-d9a224d7b4f3","0199d675-8795-765b-adc2-c813de8cd3d1","","4257","","{""Q0"":2}","2","2","surprise_rating","","[0]"
"","","","","","survey-likert","35","200584","0.0-27.0","04B1CF06A3DA4539BBF84AAC8D474244","0199d676-59a1-723c-9aaf-d9a224d7b4f3","0199d675-8795-765b-adc2-c813de8cd3d1","","1945","","{""Q0"":3}","2","2","enjoyment_rating","","[0]"
"","","","","","html-keyboard-response","36","206584","0.0-28.0","04B1CF06A3DA4539BBF84AAC8D474244","0199d676-59a1-723c-9aaf-d9a224d7b4f3","0199d675-8795-765b-adc2-c813de8cd3d1","","null","<div style=""display: flex; justify-content: center; align-items: center;"">
                     <img src=""images/other/blank.png"" style=""width: 300px; height: 300px;"" />
                   </div>","null","0","0","blank","",""
"","","","","","html-keyboard-response","37","212585","0.0-29.0","04B1CF06A3DA4539BBF84AAC8D474244","0199d676-59a1-723c-9aaf-d9a224d7b4f3","0199d675-8795-765b-adc2-c813de8cd3d1","","null","<div style=""display: flex; justify-content: center; align-items: center;"">
                     <img src=""images/causal/causal_series_8/causal_series_8_a.png"" style=""width: 300px; height: 300px;"" />
                   </div>","null","8","1","A","",""
"","","","","","html-button-response","38","213491","0.0-30.0","04B1CF06A3DA4539BBF84AAC8D474244","0199d676-59a1-723c-9aaf-d9a224d7b4f3","0199d675-8795-765b-adc2-c813de8cd3d1","","905","
        <div style=""display: flex; justify-content: center; align-items: center;"">
          <img src=""images/red_deck_2.png"" style=""width: 300px; height: 300px; margin-right: 10px;"" />
          <img src=""images/blue_deck_1.png"" style=""width: 300px; height: 300px;"" />
        </div>","0","8","1","choice","0",""
"","","","","","html-keyboard-response","39","219491","0.0-31.0-0.0-0.0","04B1CF06A3DA4539BBF84AAC8D474244","0199d676-59a1-723c-9aaf-d9a224d7b4f3","0199d675-8795-765b-adc2-c813de8cd3d1","","null","<div style=""display: flex; justify-content: center; align-items: center;"">
                     <img src=""images/causal/causal_series_8/causal_series_8_b.png"" style=""width: 300px; height: 300px;"" />
                   </div>","null","8","1","B","",""
"","","","","","html-keyboard-response","40","225491","0.0-31.0-0.0-1.0","04B1CF06A3DA4539BBF84AAC8D474244","0199d676-59a1-723c-9aaf-d9a224d7b4f3","0199d675-8795-765b-adc2-c813de8cd3d1","","null","<div style=""display: flex; justify-content: center; align-items: center;"">
                     <img src=""images/causal/causal_series_8/causal_series_8_c.png"" style=""width: 300px; height: 300px;"" />
                   </div>","null","8","1","C","",""
"","","","","","html-keyboard-response","41","231492","0.0-31.0-0.0-2.0","04B1CF06A3DA4539BBF84AAC8D474244","0199d676-59a1-723c-9aaf-d9a224d7b4f3","0199d675-8795-765b-adc2-c813de8cd3d1","","null","<div style=""display: flex; justify-content: center; align-items: center;"">
                     <img src=""images/causal/causal_series_8/causal_series_8_d.png"" style=""width: 300px; height: 300px;"" />
                   </div>","null","8","1","D","",""
"","","","","","survey-likert","42","238666","0.0-32.0","04B1CF06A3DA4539BBF84AAC8D474244","0199d676-59a1-723c-9aaf-d9a224d7b4f3","0199d675-8795-765b-adc2-c813de8cd3d1","","7173","","{""Q0"":2}","8","1","surprise_rating","","[0]"
"","","","","","survey-likert","43","240618","0.0-33.0","04B1CF06A3DA4539BBF84AAC8D474244","0199d676-59a1-723c-9aaf-d9a224d7b4f3","0199d675-8795-765b-adc2-c813de8cd3d1","","1952","","{""Q0"":2}","8","1","enjoyment_rating","","[0]"
"","","","","","html-keyboard-response","44","246619","0.0-34.0","04B1CF06A3DA4539BBF84AAC8D474244","0199d676-59a1-723c-9aaf-d9a224d7b4f3","0199d675-8795-765b-adc2-c813de8cd3d1","","null","<div style=""display: flex; justify-content: center; align-items: center;"">
                     <img src=""images/other/blank.png"" style=""width: 300px; height: 300px;"" />
                   </div>","null","0","0","blank","",""
"","","","","","html-keyboard-response","45","252620","0.0-35.0","04B1CF06A3DA4539BBF84AAC8D474244","0199d676-59a1-723c-9aaf-d9a224d7b4f3","0199d675-8795-765b-adc2-c813de8cd3d1","","null","<div style=""display: flex; justify-content: center; align-items: center;"">
                     <img src=""images/causal/causal_series_2/causal_series_2_a.png"" style=""width: 300px; height: 300px;"" />
                   </div>","null","2","1","A","",""
"","","","","","html-button-response","46","254216","0.0-36.0","04B1CF06A3DA4539BBF84AAC8D474244","0199d676-59a1-723c-9aaf-d9a224d7b4f3","0199d675-8795-765b-adc2-c813de8cd3d1","","1596","
        <div style=""display: flex; justify-content: center; align-items: center;"">
          <img src=""images/red_deck_2.png"" style=""width: 300px; height: 300px; margin-right: 10px;"" />
          <img src=""images/blue_deck_1.png"" style=""width: 300px; height: 300px;"" />
        </div>","1","2","1","choice","1",""
"","","","","","html-keyboard-response","47","260216","0.0-37.0-1.0-0.0","04B1CF06A3DA4539BBF84AAC8D474244","0199d676-59a1-723c-9aaf-d9a224d7b4f3","0199d675-8795-765b-adc2-c813de8cd3d1","","null","<div style=""display: flex; justify-content: center; align-items: center;"">
                     <img src=""images/semantic/semantic_series_2/semantic_series_2_b.png"" style=""width: 300px; height: 300px;"" />
                   </div>","null","2","1","B","",""
"","","","","","html-keyboard-response","48","266217","0.0-37.0-1.0-1.0","04B1CF06A3DA4539BBF84AAC8D474244","0199d676-59a1-723c-9aaf-d9a224d7b4f3","0199d675-8795-765b-adc2-c813de8cd3d1","","null","<div style=""display: flex; justify-content: center; align-items: center;"">
                     <img src=""images/semantic/semantic_series_2/semantic_series_2_c.png"" style=""width: 300px; height: 300px;"" />
                   </div>","null","2","1","C","",""
"","","","","","html-keyboard-response","49","272217","0.0-37.0-1.0-2.0","04B1CF06A3DA4539BBF84AAC8D474244","0199d676-59a1-723c-9aaf-d9a224d7b4f3","0199d675-8795-765b-adc2-c813de8cd3d1","","null","<div style=""display: flex; justify-content: center; align-items: center;"">
                     <img src=""images/semantic/semantic_series_2/semantic_series_2_d.png"" style=""width: 300px; height: 300px;"" />
                   </div>","null","2","1","D","",""
"","","","","","survey-likert","50","275343","0.0-38.0","04B1CF06A3DA4539BBF84AAC8D474244","0199d676-59a1-723c-9aaf-d9a224d7b4f3","0199d675-8795-765b-adc2-c813de8cd3d1","","3125","","{""Q0"":0}","2","1","surprise_rating","","[0]"
"","","","","","survey-likert","51","278625","0.0-39.0","04B1CF06A3DA4539BBF84AAC8D474244","0199d676-59a1-723c-9aaf-d9a224d7b4f3","0199d675-8795-765b-adc2-c813de8cd3d1","","3282","","{""Q0"":1}","2","1","enjoyment_rating","","[0]"
"","","","","","html-keyboard-response","52","284625","0.0-40.0","04B1CF06A3DA4539BBF84AAC8D474244","0199d676-59a1-723c-9aaf-d9a224d7b4f3","0199d675-8795-765b-adc2-c813de8cd3d1","","null","<div style=""display: flex; justify-content: center; align-items: center;"">
                     <img src=""images/other/blank.png"" style=""width: 300px; height: 300px;"" />
                   </div>","null","0","0","blank","",""
"","","","","","html-keyboard-response","53","290626","0.0-41.0","04B1CF06A3DA4539BBF84AAC8D474244","0199d676-59a1-723c-9aaf-d9a224d7b4f3","0199d675-8795-765b-adc2-c813de8cd3d1","","null","<div style=""display: flex; justify-content: center; align-items: center;"">
                     <img src=""images/causal/causal_series_3/causal_series_3_a.png"" style=""width: 300px; height: 300px;"" />
                   </div>","null","3","2","A","",""
"","","","","","html-button-response","54","292476","0.0-42.0","04B1CF06A3DA4539BBF84AAC8D474244","0199d676-59a1-723c-9aaf-d9a224d7b4f3","0199d675-8795-765b-adc2-c813de8cd3d1","","1850","
        <div style=""display: flex; justify-content: center; align-items: center;"">
          <img src=""images/red_deck_2.png"" style=""width: 300px; height: 300px; margin-right: 10px;"" />
          <img src=""images/blue_deck_1.png"" style=""width: 300px; height: 300px;"" />
        </div>","0","3","2","choice","0",""
"","","","","","html-keyboard-response","55","298477","0.0-43.0-0.0-0.0","04B1CF06A3DA4539BBF84AAC8D474244","0199d676-59a1-723c-9aaf-d9a224d7b4f3","0199d675-8795-765b-adc2-c813de8cd3d1","","null","<div style=""display: flex; justify-content: center; align-items: center;"">
                     <img src=""images/causal/causal_series_3/causal_series_3_b.png"" style=""width: 300px; height: 300px;"" />
                   </div>","null","3","2","B","",""
"","","","","","html-keyboard-response","56","304477","0.0-43.0-0.0-1.0","04B1CF06A3DA4539BBF84AAC8D474244","0199d676-59a1-723c-9aaf-d9a224d7b4f3","0199d675-8795-765b-adc2-c813de8cd3d1","","null","<div style=""display: flex; justify-content: center; align-items: center;"">
                     <img src=""images/causal/causal_series_3/causal_series_3_c.png"" style=""width: 300px; height: 300px;"" />
                   </div>","null","3","2","C","",""
"","","","","","html-keyboard-response","57","310477","0.0-43.0-0.0-2.0","04B1CF06A3DA4539BBF84AAC8D474244","0199d676-59a1-723c-9aaf-d9a224d7b4f3","0199d675-8795-765b-adc2-c813de8cd3d1","","null","<div style=""display: flex; justify-content: center; align-items: center;"">
                     <img src=""images/causal/causal_series_3/causal_series_3_d.png"" style=""width: 300px; height: 300px;"" />
                   </div>","null","3","2","D","",""
"","","","","","survey-likert","58","312696","0.0-44.0","04B1CF06A3DA4539BBF84AAC8D474244","0199d676-59a1-723c-9aaf-d9a224d7b4f3","0199d675-8795-765b-adc2-c813de8cd3d1","","2218","","{""Q0"":3}","3","2","surprise_rating","","[0]"
"","","","","","survey-likert","59","314954","0.0-45.0","04B1CF06A3DA4539BBF84AAC8D474244","0199d676-59a1-723c-9aaf-d9a224d7b4f3","0199d675-8795-765b-adc2-c813de8cd3d1","","2257","","{""Q0"":3}","3","2","enjoyment_rating","","[0]"
"","","","","","html-keyboard-response","60","320955","0.0-46.0","04B1CF06A3DA4539BBF84AAC8D474244","0199d676-59a1-723c-9aaf-d9a224d7b4f3","0199d675-8795-765b-adc2-c813de8cd3d1","","null","<div style=""display: flex; justify-content: center; align-items: center;"">
                     <img src=""images/other/blank.png"" style=""width: 300px; height: 300px;"" />
                   </div>","null","0","0","blank","",""
"","","","","","html-keyboard-response","61","326955","0.0-47.0","04B1CF06A3DA4539BBF84AAC8D474244","0199d676-59a1-723c-9aaf-d9a224d7b4f3","0199d675-8795-765b-adc2-c813de8cd3d1","","null","<div style=""display: flex; justify-content: center; align-items: center;"">
                     <img src=""images/causal/causal_series_4/causal_series_4_a.png"" style=""width: 300px; height: 300px;"" />
                   </div>","null","4","2","A","",""
"","","","","","html-button-response","62","328130","0.0-48.0","04B1CF06A3DA4539BBF84AAC8D474244","0199d676-59a1-723c-9aaf-d9a224d7b4f3","0199d675-8795-765b-adc2-c813de8cd3d1","","1174","
        <div style=""display: flex; justify-content: center; align-items: center;"">
          <img src=""images/red_deck_2.png"" style=""width: 300px; height: 300px; margin-right: 10px;"" />
          <img src=""images/blue_deck_1.png"" style=""width: 300px; height: 300px;"" />
        </div>","1","4","2","choice","1",""
"","","","","","html-keyboard-response","63","334130","0.0-49.0-1.0-0.0","04B1CF06A3DA4539BBF84AAC8D474244","0199d676-59a1-723c-9aaf-d9a224d7b4f3","0199d675-8795-765b-adc2-c813de8cd3d1","","null","<div style=""display: flex; justify-content: center; align-items: center;"">
                     <img src=""images/semantic/semantic_series_4/semantic_series_4_b.png"" style=""width: 300px; height: 300px;"" />
                   </div>","null","4","2","B","",""
"","","","","","html-keyboard-response","64","340130","0.0-49.0-1.0-1.0","04B1CF06A3DA4539BBF84AAC8D474244","0199d676-59a1-723c-9aaf-d9a224d7b4f3","0199d675-8795-765b-adc2-c813de8cd3d1","","null","<div style=""display: flex; justify-content: center; align-items: center;"">
                     <img src=""images/semantic/semantic_series_4/semantic_series_4_c.png"" style=""width: 300px; height: 300px;"" />
                   </div>","null","4","2","C","",""
"","","","","","html-keyboard-response","65","346131","0.0-49.0-1.0-2.0","04B1CF06A3DA4539BBF84AAC8D474244","0199d676-59a1-723c-9aaf-d9a224d7b4f3","0199d675-8795-765b-adc2-c813de8cd3d1","","null","<div style=""display: flex; justify-content: center; align-items: center;"">
                     <img src=""images/semantic/semantic_series_4/semantic_series_4_d.png"" style=""width: 300px; height: 300px;"" />
                   </div>","null","4","2","D","",""
"","","","","","survey-likert","66","350741","0.0-50.0","04B1CF06A3DA4539BBF84AAC8D474244","0199d676-59a1-723c-9aaf-d9a224d7b4f3","0199d675-8795-765b-adc2-c813de8cd3d1","","4610","","{""Q0"":0}","4","2","surprise_rating","","[0]"
"","","","","","survey-likert","67","353102","0.0-51.0","04B1CF06A3DA4539BBF84AAC8D474244","0199d676-59a1-723c-9aaf-d9a224d7b4f3","0199d675-8795-765b-adc2-c813de8cd3d1","","2360","","{""Q0"":2}","4","2","enjoyment_rating","","[0]"
"","","","","","html-keyboard-response","68","359103","0.0-52.0","04B1CF06A3DA4539BBF84AAC8D474244","0199d676-59a1-723c-9aaf-d9a224d7b4f3","0199d675-8795-765b-adc2-c813de8cd3d1","","null","<div style=""display: flex; justify-content: center; align-items: center;"">
                     <img src=""images/other/blank.png"" style=""width: 300px; height: 300px;"" />
                   </div>","null","0","0","blank","",""
"","","","","","html-keyboard-response","69","365103","0.0-53.0","04B1CF06A3DA4539BBF84AAC8D474244","0199d676-59a1-723c-9aaf-d9a224d7b4f3","0199d675-8795-765b-adc2-c813de8cd3d1","","null","<div style=""display: flex; justify-content: center; align-items: center;"">
                     <img src=""images/causal/causal_series_10/causal_series_10_a.png"" style=""width: 300px; height: 300px;"" />
                   </div>","null","10","1","A","",""
"","","","","","html-button-response","70","366178","0.0-54.0","04B1CF06A3DA4539BBF84AAC8D474244","0199d676-59a1-723c-9aaf-d9a224d7b4f3","0199d675-8795-765b-adc2-c813de8cd3d1","","1074","
        <div style=""display: flex; justify-content: center; align-items: center;"">
          <img src=""images/red_deck_2.png"" style=""width: 300px; height: 300px; margin-right: 10px;"" />
          <img src=""images/blue_deck_1.png"" style=""width: 300px; height: 300px;"" />
        </div>","0","10","1","choice","0",""
"","","","","","html-keyboard-response","71","372178","0.0-55.0-0.0-0.0","04B1CF06A3DA4539BBF84AAC8D474244","0199d676-59a1-723c-9aaf-d9a224d7b4f3","0199d675-8795-765b-adc2-c813de8cd3d1","","null","<div style=""display: flex; justify-content: center; align-items: center;"">
                     <img src=""images/causal/causal_series_10/causal_series_10_b.png"" style=""width: 300px; height: 300px;"" />
                   </div>","null","10","1","B","",""
"","","","","","html-keyboard-response","72","378179","0.0-55.0-0.0-1.0","04B1CF06A3DA4539BBF84AAC8D474244","0199d676-59a1-723c-9aaf-d9a224d7b4f3","0199d675-8795-765b-adc2-c813de8cd3d1","","null","<div style=""display: flex; justify-content: center; align-items: center;"">
                     <img src=""images/causal/causal_series_10/causal_series_10_c.png"" style=""width: 300px; height: 300px;"" />
                   </div>","null","10","1","C","",""
"","","","","","html-keyboard-response","73","384179","0.0-55.0-0.0-2.0","04B1CF06A3DA4539BBF84AAC8D474244","0199d676-59a1-723c-9aaf-d9a224d7b4f3","0199d675-8795-765b-adc2-c813de8cd3d1","","null","<div style=""display: flex; justify-content: center; align-items: center;"">
                     <img src=""images/causal/causal_series_10/causal_series_10_d.png"" style=""width: 300px; height: 300px;"" />
                   </div>","null","10","1","D","",""
"","","","","","survey-likert","74","388167","0.0-56.0","04B1CF06A3DA4539BBF84AAC8D474244","0199d676-59a1-723c-9aaf-d9a224d7b4f3","0199d675-8795-765b-adc2-c813de8cd3d1","","3987","","{""Q0"":2}","10","1","surprise_rating","","[0]"
"","","","","","survey-likert","75","391363","0.0-57.0","04B1CF06A3DA4539BBF84AAC8D474244","0199d676-59a1-723c-9aaf-d9a224d7b4f3","0199d675-8795-765b-adc2-c813de8cd3d1","","3196","","{""Q0"":2}","10","1","enjoyment_rating","","[0]"
"","","","","","html-keyboard-response","76","397363","0.0-58.0","04B1CF06A3DA4539BBF84AAC8D474244","0199d676-59a1-723c-9aaf-d9a224d7b4f3","0199d675-8795-765b-adc2-c813de8cd3d1","","null","<div style=""display: flex; justify-content: center; align-items: center;"">
                     <img src=""images/other/blank.png"" style=""width: 300px; height: 300px;"" />
                   </div>","null","0","0","blank","",""
"","","","","","html-keyboard-response","77","403364","0.0-59.0","04B1CF06A3DA4539BBF84AAC8D474244","0199d676-59a1-723c-9aaf-d9a224d7b4f3","0199d675-8795-765b-adc2-c813de8cd3d1","","null","<div style=""display: flex; justify-content: center; align-items: center;"">
                     <img src=""images/causal/causal_series_1/causal_series_1_a.png"" style=""width: 300px; height: 300px;"" />
                   </div>","null","1","2","A","",""
"","","","","","html-button-response","78","404345","0.0-60.0","04B1CF06A3DA4539BBF84AAC8D474244","0199d676-59a1-723c-9aaf-d9a224d7b4f3","0199d675-8795-765b-adc2-c813de8cd3d1","","981","
        <div style=""display: flex; justify-content: center; align-items: center;"">
          <img src=""images/red_deck_2.png"" style=""width: 300px; height: 300px; margin-right: 10px;"" />
          <img src=""images/blue_deck_1.png"" style=""width: 300px; height: 300px;"" />
        </div>","0","1","2","choice","0",""
"","","","","","html-keyboard-response","79","410346","0.0-61.0-0.0-0.0","04B1CF06A3DA4539BBF84AAC8D474244","0199d676-59a1-723c-9aaf-d9a224d7b4f3","0199d675-8795-765b-adc2-c813de8cd3d1","","null","<div style=""display: flex; justify-content: center; align-items: center;"">
                     <img src=""images/causal/causal_series_1/causal_series_1_b.png"" style=""width: 300px; height: 300px;"" />
                   </div>","null","1","2","B","",""
"","","","","","html-keyboard-response","80","416346","0.0-61.0-0.0-1.0","04B1CF06A3DA4539BBF84AAC8D474244","0199d676-59a1-723c-9aaf-d9a224d7b4f3","0199d675-8795-765b-adc2-c813de8cd3d1","","null","<div style=""display: flex; justify-content: center; align-items: center;"">
                     <img src=""images/causal/causal_series_1/causal_series_1_c.png"" style=""width: 300px; height: 300px;"" />
                   </div>","null","1","2","C","",""
"","","","","","html-keyboard-response","81","422346","0.0-61.0-0.0-2.0","04B1CF06A3DA4539BBF84AAC8D474244","0199d676-59a1-723c-9aaf-d9a224d7b4f3","0199d675-8795-765b-adc2-c813de8cd3d1","","null","<div style=""display: flex; justify-content: center; align-items: center;"">
                     <img src=""images/causal/causal_series_1/causal_series_1_d.png"" style=""width: 300px; height: 300px;"" />
                   </div>","null","1","2","D","",""
"","","","","","survey-likert","82","424904","0.0-62.0","04B1CF06A3DA4539BBF84AAC8D474244","0199d676-59a1-723c-9aaf-d9a224d7b4f3","0199d675-8795-765b-adc2-c813de8cd3d1","","2557","","{""Q0"":3}","1","2","surprise_rating","","[0]"
"","","","","","survey-likert","83","432860","0.0-63.0","04B1CF06A3DA4539BBF84AAC8D474244","0199d676-59a1-723c-9aaf-d9a224d7b4f3","0199d675-8795-765b-adc2-c813de8cd3d1","","7955","","{""Q0"":2}","1","2","enjoyment_rating","","[0]"
"","","","","","html-keyboard-response","84","438861","0.0-64.0","04B1CF06A3DA4539BBF84AAC8D474244","0199d676-59a1-723c-9aaf-d9a224d7b4f3","0199d675-8795-765b-adc2-c813de8cd3d1","","null","<div style=""display: flex; justify-content: center; align-items: center;"">
                     <img src=""images/other/blank.png"" style=""width: 300px; height: 300px;"" />
                   </div>","null","0","0","blank","",""
"","","","","","html-keyboard-response","85","444861","0.0-65.0","04B1CF06A3DA4539BBF84AAC8D474244","0199d676-59a1-723c-9aaf-d9a224d7b4f3","0199d675-8795-765b-adc2-c813de8cd3d1","","null","<div style=""display: flex; justify-content: center; align-items: center;"">
                     <img src=""images/causal/causal_series_1/causal_series_1_a.png"" style=""width: 300px; height: 300px;"" />
                   </div>","null","1","1","A","",""
"","","","","","html-button-response","86","445958","0.0-66.0","04B1CF06A3DA4539BBF84AAC8D474244","0199d676-59a1-723c-9aaf-d9a224d7b4f3","0199d675-8795-765b-adc2-c813de8cd3d1","","1097","
        <div style=""display: flex; justify-content: center; align-items: center;"">
          <img src=""images/red_deck_2.png"" style=""width: 300px; height: 300px; margin-right: 10px;"" />
          <img src=""images/blue_deck_1.png"" style=""width: 300px; height: 300px;"" />
        </div>","1","1","1","choice","1",""
"","","","","","html-keyboard-response","87","451959","0.0-67.0-1.0-0.0","04B1CF06A3DA4539BBF84AAC8D474244","0199d676-59a1-723c-9aaf-d9a224d7b4f3","0199d675-8795-765b-adc2-c813de8cd3d1","","null","<div style=""display: flex; justify-content: center; align-items: center;"">
                     <img src=""images/semantic/semantic_series_1/semantic_series_1_b.png"" style=""width: 300px; height: 300px;"" />
                   </div>","null","1","1","B","",""
"","","","","","html-keyboard-response","88","457959","0.0-67.0-1.0-1.0","04B1CF06A3DA4539BBF84AAC8D474244","0199d676-59a1-723c-9aaf-d9a224d7b4f3","0199d675-8795-765b-adc2-c813de8cd3d1","","null","<div style=""display: flex; justify-content: center; align-items: center;"">
                     <img src=""images/semantic/semantic_series_1/semantic_series_1_c.png"" style=""width: 300px; height: 300px;"" />
                   </div>","null","1","1","C","",""
"","","","","","html-keyboard-response","89","463960","0.0-67.0-1.0-2.0","04B1CF06A3DA4539BBF84AAC8D474244","0199d676-59a1-723c-9aaf-d9a224d7b4f3","0199d675-8795-765b-adc2-c813de8cd3d1","","null","<div style=""display: flex; justify-content: center; align-items: center;"">
                     <img src=""images/semantic/semantic_series_1/semantic_series_1_d.png"" style=""width: 300px; height: 300px;"" />
                   </div>","null","1","1","D","",""
"","","","","","survey-likert","90","466875","0.0-68.0","04B1CF06A3DA4539BBF84AAC8D474244","0199d676-59a1-723c-9aaf-d9a224d7b4f3","0199d675-8795-765b-adc2-c813de8cd3d1","","2915","","{""Q0"":1}","1","1","surprise_rating","","[0]"
"","","","","","survey-likert","91","468531","0.0-69.0","04B1CF06A3DA4539BBF84AAC8D474244","0199d676-59a1-723c-9aaf-d9a224d7b4f3","0199d675-8795-765b-adc2-c813de8cd3d1","","1655","","{""Q0"":1}","1","1","enjoyment_rating","","[0]"
"","","","","","html-keyboard-response","92","474532","0.0-70.0","04B1CF06A3DA4539BBF84AAC8D474244","0199d676-59a1-723c-9aaf-d9a224d7b4f3","0199d675-8795-765b-adc2-c813de8cd3d1","","null","<div style=""display: flex; justify-content: center; align-items: center;"">
                     <img src=""images/other/blank.png"" style=""width: 300px; height: 300px;"" />
                   </div>","null","0","0","blank","",""
"","","","","","html-keyboard-response","93","480532","0.0-71.0","04B1CF06A3DA4539BBF84AAC8D474244","0199d676-59a1-723c-9aaf-d9a224d7b4f3","0199d675-8795-765b-adc2-c813de8cd3d1","","null","<div style=""display: flex; justify-content: center; align-items: center;"">
                     <img src=""images/causal/causal_series_5/causal_series_5_a.png"" style=""width: 300px; height: 300px;"" />
                   </div>","null","5","2","A","",""
"","","","","","html-button-response","94","497258","0.0-72.0","04B1CF06A3DA4539BBF84AAC8D474244","0199d676-59a1-723c-9aaf-d9a224d7b4f3","0199d675-8795-765b-adc2-c813de8cd3d1","","16726","
        <div style=""display: flex; justify-content: center; align-items: center;"">
          <img src=""images/red_deck_2.png"" style=""width: 300px; height: 300px; margin-right: 10px;"" />
          <img src=""images/blue_deck_1.png"" style=""width: 300px; height: 300px;"" />
        </div>","0","5","2","choice","0",""
"","","","","","html-keyboard-response","95","503259","0.0-73.0-0.0-0.0","04B1CF06A3DA4539BBF84AAC8D474244","0199d676-59a1-723c-9aaf-d9a224d7b4f3","0199d675-8795-765b-adc2-c813de8cd3d1","","null","<div style=""display: flex; justify-content: center; align-items: center;"">
                     <img src=""images/causal/causal_series_5/causal_series_5_b.png"" style=""width: 300px; height: 300px;"" />
                   </div>","null","5","2","B","",""
"","","","","","html-keyboard-response","96","509259","0.0-73.0-0.0-1.0","04B1CF06A3DA4539BBF84AAC8D474244","0199d676-59a1-723c-9aaf-d9a224d7b4f3","0199d675-8795-765b-adc2-c813de8cd3d1","","null","<div style=""display: flex; justify-content: center; align-items: center;"">
                     <img src=""images/causal/causal_series_5/causal_series_5_c.png"" style=""width: 300px; height: 300px;"" />
                   </div>","null","5","2","C","",""
"","","","","","html-keyboard-response","97","515260","0.0-73.0-0.0-2.0","04B1CF06A3DA4539BBF84AAC8D474244","0199d676-59a1-723c-9aaf-d9a224d7b4f3","0199d675-8795-765b-adc2-c813de8cd3d1","","null","<div style=""display: flex; justify-content: center; align-items: center;"">
                     <img src=""images/causal/causal_series_5/causal_series_5_d.png"" style=""width: 300px; height: 300px;"" />
                   </div>","null","5","2","D","",""
"","","","","","survey-likert","98","518241","0.0-74.0","04B1CF06A3DA4539BBF84AAC8D474244","0199d676-59a1-723c-9aaf-d9a224d7b4f3","0199d675-8795-765b-adc2-c813de8cd3d1","","2981","","{""Q0"":2}","5","2","surprise_rating","","[0]"
"","","","","","survey-likert","99","520619","0.0-75.0","04B1CF06A3DA4539BBF84AAC8D474244","0199d676-59a1-723c-9aaf-d9a224d7b4f3","0199d675-8795-765b-adc2-c813de8cd3d1","","2377","","{""Q0"":2}","5","2","enjoyment_rating","","[0]"
"","","","","","html-keyboard-response","100","526620","0.0-76.0","04B1CF06A3DA4539BBF84AAC8D474244","0199d676-59a1-723c-9aaf-d9a224d7b4f3","0199d675-8795-765b-adc2-c813de8cd3d1","","null","<div style=""display: flex; justify-content: center; align-items: center;"">
                     <img src=""images/other/blank.png"" style=""width: 300px; height: 300px;"" />
                   </div>","null","0","0","blank","",""
"","","","","","html-keyboard-response","101","532620","0.0-77.0","04B1CF06A3DA4539BBF84AAC8D474244","0199d676-59a1-723c-9aaf-d9a224d7b4f3","0199d675-8795-765b-adc2-c813de8cd3d1","","null","<div style=""display: flex; justify-content: center; align-items: center;"">
                     <img src=""images/causal/causal_series_5/causal_series_5_a.png"" style=""width: 300px; height: 300px;"" />
                   </div>","null","5","1","A","",""
"","","","","","html-button-response","102","533833","0.0-78.0","04B1CF06A3DA4539BBF84AAC8D474244","0199d676-59a1-723c-9aaf-d9a224d7b4f3","0199d675-8795-765b-adc2-c813de8cd3d1","","1212","
        <div style=""display: flex; justify-content: center; align-items: center;"">
          <img src=""images/red_deck_2.png"" style=""width: 300px; height: 300px; margin-right: 10px;"" />
          <img src=""images/blue_deck_1.png"" style=""width: 300px; height: 300px;"" />
        </div>","1","5","1","choice","1",""
"","","","","","html-keyboard-response","103","539833","0.0-79.0-1.0-0.0","04B1CF06A3DA4539BBF84AAC8D474244","0199d676-59a1-723c-9aaf-d9a224d7b4f3","0199d675-8795-765b-adc2-c813de8cd3d1","","null","<div style=""display: flex; justify-content: center; align-items: center;"">
                     <img src=""images/semantic/semantic_series_5/semantic_series_5_b.png"" style=""width: 300px; height: 300px;"" />
                   </div>","null","5","1","B","",""
"","","","","","html-keyboard-response","104","545834","0.0-79.0-1.0-1.0","04B1CF06A3DA4539BBF84AAC8D474244","0199d676-59a1-723c-9aaf-d9a224d7b4f3","0199d675-8795-765b-adc2-c813de8cd3d1","","null","<div style=""display: flex; justify-content: center; align-items: center;"">
                     <img src=""images/semantic/semantic_series_5/semantic_series_5_c.png"" style=""width: 300px; height: 300px;"" />
                   </div>","null","5","1","C","",""
"","","","","","html-keyboard-response","105","551834","0.0-79.0-1.0-2.0","04B1CF06A3DA4539BBF84AAC8D474244","0199d676-59a1-723c-9aaf-d9a224d7b4f3","0199d675-8795-765b-adc2-c813de8cd3d1","","null","<div style=""display: flex; justify-content: center; align-items: center;"">
                     <img src=""images/semantic/semantic_series_5/semantic_series_5_d.png"" style=""width: 300px; height: 300px;"" />
                   </div>","null","5","1","D","",""
"","","","","","survey-likert","106","553791","0.0-80.0","04B1CF06A3DA4539BBF84AAC8D474244","0199d676-59a1-723c-9aaf-d9a224d7b4f3","0199d675-8795-765b-adc2-c813de8cd3d1","","1956","","{""Q0"":3}","5","1","surprise_rating","","[0]"
"","","","","","survey-likert","107","555138","0.0-81.0","04B1CF06A3DA4539BBF84AAC8D474244","0199d676-59a1-723c-9aaf-d9a224d7b4f3","0199d675-8795-765b-adc2-c813de8cd3d1","","1346","","{""Q0"":2}","5","1","enjoyment_rating","","[0]"
"","","","","","html-keyboard-response","108","561138","0.0-82.0","04B1CF06A3DA4539BBF84AAC8D474244","0199d676-59a1-723c-9aaf-d9a224d7b4f3","0199d675-8795-765b-adc2-c813de8cd3d1","","null","<div style=""display: flex; justify-content: center; align-items: center;"">
                     <img src=""images/other/blank.png"" style=""width: 300px; height: 300px;"" />
                   </div>","null","0","0","blank","",""
"","","","","","html-keyboard-response","109","567139","0.0-83.0","04B1CF06A3DA4539BBF84AAC8D474244","0199d676-59a1-723c-9aaf-d9a224d7b4f3","0199d675-8795-765b-adc2-c813de8cd3d1","","null","<div style=""display: flex; justify-content: center; align-items: center;"">
                     <img src=""images/causal/causal_series_6/causal_series_6_a.png"" style=""width: 300px; height: 300px;"" />
                   </div>","null","6","1","A","",""
"","","","","","html-button-response","110","568024","0.0-84.0","04B1CF06A3DA4539BBF84AAC8D474244","0199d676-59a1-723c-9aaf-d9a224d7b4f3","0199d675-8795-765b-adc2-c813de8cd3d1","","885","
        <div style=""display: flex; justify-content: center; align-items: center;"">
          <img src=""images/red_deck_2.png"" style=""width: 300px; height: 300px; margin-right: 10px;"" />
          <img src=""images/blue_deck_1.png"" style=""width: 300px; height: 300px;"" />
        </div>","1","6","1","choice","1",""
"","","","","","html-keyboard-response","111","574025","0.0-85.0-1.0-0.0","04B1CF06A3DA4539BBF84AAC8D474244","0199d676-59a1-723c-9aaf-d9a224d7b4f3","0199d675-8795-765b-adc2-c813de8cd3d1","","null","<div style=""display: flex; justify-content: center; align-items: center;"">
                     <img src=""images/semantic/semantic_series_6/semantic_series_6_b.png"" style=""width: 300px; height: 300px;"" />
                   </div>","null","6","1","B","",""
"","","","","","html-keyboard-response","112","580025","0.0-85.0-1.0-1.0","04B1CF06A3DA4539BBF84AAC8D474244","0199d676-59a1-723c-9aaf-d9a224d7b4f3","0199d675-8795-765b-adc2-c813de8cd3d1","","null","<div style=""display: flex; justify-content: center; align-items: center;"">
                     <img src=""images/semantic/semantic_series_6/semantic_series_6_c.png"" style=""width: 300px; height: 300px;"" />
                   </div>","null","6","1","C","",""
"","","","","","html-keyboard-response","113","586026","0.0-85.0-1.0-2.0","04B1CF06A3DA4539BBF84AAC8D474244","0199d676-59a1-723c-9aaf-d9a224d7b4f3","0199d675-8795-765b-adc2-c813de8cd3d1","","null","<div style=""display: flex; justify-content: center; align-items: center;"">
                     <img src=""images/semantic/semantic_series_6/semantic_series_6_d.png"" style=""width: 300px; height: 300px;"" />
                   </div>","null","6","1","D","",""
"","","","","","survey-likert","114","588678","0.0-86.0","04B1CF06A3DA4539BBF84AAC8D474244","0199d676-59a1-723c-9aaf-d9a224d7b4f3","0199d675-8795-765b-adc2-c813de8cd3d1","","2652","","{""Q0"":0}","6","1","surprise_rating","","[0]"
"","","","","","survey-likert","115","591217","0.0-87.0","04B1CF06A3DA4539BBF84AAC8D474244","0199d676-59a1-723c-9aaf-d9a224d7b4f3","0199d675-8795-765b-adc2-c813de8cd3d1","","2539","","{""Q0"":2}","6","1","enjoyment_rating","","[0]"
"","","","","","html-keyboard-response","116","597218","0.0-88.0","04B1CF06A3DA4539BBF84AAC8D474244","0199d676-59a1-723c-9aaf-d9a224d7b4f3","0199d675-8795-765b-adc2-c813de8cd3d1","","null","<div style=""display: flex; justify-content: center; align-items: center;"">
                     <img src=""images/other/blank.png"" style=""width: 300px; height: 300px;"" />
                   </div>","null","0","0","blank","",""
"","","","","","html-keyboard-response","117","603218","0.0-89.0","04B1CF06A3DA4539BBF84AAC8D474244","0199d676-59a1-723c-9aaf-d9a224d7b4f3","0199d675-8795-765b-adc2-c813de8cd3d1","","null","<div style=""display: flex; justify-content: center; align-items: center;"">
                     <img src=""images/causal/causal_series_8/causal_series_8_a.png"" style=""width: 300px; height: 300px;"" />
                   </div>","null","8","2","A","",""
"","","","","","html-button-response","118","604341","0.0-90.0","04B1CF06A3DA4539BBF84AAC8D474244","0199d676-59a1-723c-9aaf-d9a224d7b4f3","0199d675-8795-765b-adc2-c813de8cd3d1","","1122","
        <div style=""display: flex; justify-content: center; align-items: center;"">
          <img src=""images/red_deck_2.png"" style=""width: 300px; height: 300px; margin-right: 10px;"" />
          <img src=""images/blue_deck_1.png"" style=""width: 300px; height: 300px;"" />
        </div>","1","8","2","choice","1",""
"","","","","","html-keyboard-response","119","610341","0.0-91.0-1.0-0.0","04B1CF06A3DA4539BBF84AAC8D474244","0199d676-59a1-723c-9aaf-d9a224d7b4f3","0199d675-8795-765b-adc2-c813de8cd3d1","","null","<div style=""display: flex; justify-content: center; align-items: center;"">
                     <img src=""images/semantic/semantic_series_8/semantic_series_8_b.png"" style=""width: 300px; height: 300px;"" />
                   </div>","null","8","2","B","",""
"","","","","","html-keyboard-response","120","616342","0.0-91.0-1.0-1.0","04B1CF06A3DA4539BBF84AAC8D474244","0199d676-59a1-723c-9aaf-d9a224d7b4f3","0199d675-8795-765b-adc2-c813de8cd3d1","","null","<div style=""display: flex; justify-content: center; align-items: center;"">
                     <img src=""images/semantic/semantic_series_8/semantic_series_8_c.png"" style=""width: 300px; height: 300px;"" />
                   </div>","null","8","2","C","",""
"","","","","","html-keyboard-response","121","622342","0.0-91.0-1.0-2.0","04B1CF06A3DA4539BBF84AAC8D474244","0199d676-59a1-723c-9aaf-d9a224d7b4f3","0199d675-8795-765b-adc2-c813de8cd3d1","","null","<div style=""display: flex; justify-content: center; align-items: center;"">
                     <img src=""images/semantic/semantic_series_8/semantic_series_8_d.png"" style=""width: 300px; height: 300px;"" />
                   </div>","null","8","2","D","",""
"","","","","","survey-likert","122","627240","0.0-92.0","04B1CF06A3DA4539BBF84AAC8D474244","0199d676-59a1-723c-9aaf-d9a224d7b4f3","0199d675-8795-765b-adc2-c813de8cd3d1","","4897","","{""Q0"":3}","8","2","surprise_rating","","[0]"
"","","","","","survey-likert","123","630509","0.0-93.0","04B1CF06A3DA4539BBF84AAC8D474244","0199d676-59a1-723c-9aaf-d9a224d7b4f3","0199d675-8795-765b-adc2-c813de8cd3d1","","3269","","{""Q0"":2}","8","2","enjoyment_rating","","[0]"
"","","","","","html-keyboard-response","124","636510","0.0-94.0","04B1CF06A3DA4539BBF84AAC8D474244","0199d676-59a1-723c-9aaf-d9a224d7b4f3","0199d675-8795-765b-adc2-c813de8cd3d1","","null","<div style=""display: flex; justify-content: center; align-items: center;"">
                     <img src=""images/other/blank.png"" style=""width: 300px; height: 300px;"" />
                   </div>","null","0","0","blank","",""
"","","","","","html-keyboard-response","125","642510","0.0-95.0","04B1CF06A3DA4539BBF84AAC8D474244","0199d676-59a1-723c-9aaf-d9a224d7b4f3","0199d675-8795-765b-adc2-c813de8cd3d1","","null","<div style=""display: flex; justify-content: center; align-items: center;"">
                     <img src=""images/causal/causal_series_9/causal_series_9_a.png"" style=""width: 300px; height: 300px;"" />
                   </div>","null","9","1","A","",""
"","","","","","html-button-response","126","643996","0.0-96.0","04B1CF06A3DA4539BBF84AAC8D474244","0199d676-59a1-723c-9aaf-d9a224d7b4f3","0199d675-8795-765b-adc2-c813de8cd3d1","","1485","
        <div style=""display: flex; justify-content: center; align-items: center;"">
          <img src=""images/red_deck_2.png"" style=""width: 300px; height: 300px; margin-right: 10px;"" />
          <img src=""images/blue_deck_1.png"" style=""width: 300px; height: 300px;"" />
        </div>","0","9","1","choice","0",""
"","","","","","html-keyboard-response","127","649996","0.0-97.0-0.0-0.0","04B1CF06A3DA4539BBF84AAC8D474244","0199d676-59a1-723c-9aaf-d9a224d7b4f3","0199d675-8795-765b-adc2-c813de8cd3d1","","null","<div style=""display: flex; justify-content: center; align-items: center;"">
                     <img src=""images/causal/causal_series_9/causal_series_9_b.png"" style=""width: 300px; height: 300px;"" />
                   </div>","null","9","1","B","",""
"","","","","","html-keyboard-response","128","655997","0.0-97.0-0.0-1.0","04B1CF06A3DA4539BBF84AAC8D474244","0199d676-59a1-723c-9aaf-d9a224d7b4f3","0199d675-8795-765b-adc2-c813de8cd3d1","","null","<div style=""display: flex; justify-content: center; align-items: center;"">
                     <img src=""images/causal/causal_series_9/causal_series_9_c.png"" style=""width: 300px; height: 300px;"" />
                   </div>","null","9","1","C","",""
"","","","","","html-keyboard-response","129","661997","0.0-97.0-0.0-2.0","04B1CF06A3DA4539BBF84AAC8D474244","0199d676-59a1-723c-9aaf-d9a224d7b4f3","0199d675-8795-765b-adc2-c813de8cd3d1","","null","<div style=""display: flex; justify-content: center; align-items: center;"">
                     <img src=""images/causal/causal_series_9/causal_series_9_d.png"" style=""width: 300px; height: 300px;"" />
                   </div>","null","9","1","D","",""
"","","","","","survey-likert","130","663924","0.0-98.0","04B1CF06A3DA4539BBF84AAC8D474244","0199d676-59a1-723c-9aaf-d9a224d7b4f3","0199d675-8795-765b-adc2-c813de8cd3d1","","1926","","{""Q0"":4}","9","1","surprise_rating","","[0]"
"","","","","","survey-likert","131","666499","0.0-99.0","04B1CF06A3DA4539BBF84AAC8D474244","0199d676-59a1-723c-9aaf-d9a224d7b4f3","0199d675-8795-765b-adc2-c813de8cd3d1","","2575","","{""Q0"":3}","9","1","enjoyment_rating","","[0]"
"","","","","","html-keyboard-response","132","672499","0.0-100.0","04B1CF06A3DA4539BBF84AAC8D474244","0199d676-59a1-723c-9aaf-d9a224d7b4f3","0199d675-8795-765b-adc2-c813de8cd3d1","","null","<div style=""display: flex; justify-content: center; align-items: center;"">
                     <img src=""images/other/blank.png"" style=""width: 300px; height: 300px;"" />
                   </div>","null","0","0","blank","",""
"","","","","","html-keyboard-response","133","678500","0.0-101.0","04B1CF06A3DA4539BBF84AAC8D474244","0199d676-59a1-723c-9aaf-d9a224d7b4f3","0199d675-8795-765b-adc2-c813de8cd3d1","","null","<div style=""display: flex; justify-content: center; align-items: center;"">
                     <img src=""images/causal/causal_series_3/causal_series_3_a.png"" style=""width: 300px; height: 300px;"" />
                   </div>","null","3","1","A","",""
"","","","","","html-button-response","134","679470","0.0-102.0","04B1CF06A3DA4539BBF84AAC8D474244","0199d676-59a1-723c-9aaf-d9a224d7b4f3","0199d675-8795-765b-adc2-c813de8cd3d1","","969","
        <div style=""display: flex; justify-content: center; align-items: center;"">
          <img src=""images/red_deck_2.png"" style=""width: 300px; height: 300px; margin-right: 10px;"" />
          <img src=""images/blue_deck_1.png"" style=""width: 300px; height: 300px;"" />
        </div>","1","3","1","choice","1",""
"","","","","","html-keyboard-response","135","685470","0.0-103.0-1.0-0.0","04B1CF06A3DA4539BBF84AAC8D474244","0199d676-59a1-723c-9aaf-d9a224d7b4f3","0199d675-8795-765b-adc2-c813de8cd3d1","","null","<div style=""display: flex; justify-content: center; align-items: center;"">
                     <img src=""images/semantic/semantic_series_3/semantic_series_3_b.png"" style=""width: 300px; height: 300px;"" />
                   </div>","null","3","1","B","",""
"","","","","","html-keyboard-response","136","691471","0.0-103.0-1.0-1.0","04B1CF06A3DA4539BBF84AAC8D474244","0199d676-59a1-723c-9aaf-d9a224d7b4f3","0199d675-8795-765b-adc2-c813de8cd3d1","","null","<div style=""display: flex; justify-content: center; align-items: center;"">
                     <img src=""images/semantic/semantic_series_3/semantic_series_3_c.png"" style=""width: 300px; height: 300px;"" />
                   </div>","null","3","1","C","",""
"","","","","","html-keyboard-response","137","697471","0.0-103.0-1.0-2.0","04B1CF06A3DA4539BBF84AAC8D474244","0199d676-59a1-723c-9aaf-d9a224d7b4f3","0199d675-8795-765b-adc2-c813de8cd3d1","","null","<div style=""display: flex; justify-content: center; align-items: center;"">
                     <img src=""images/semantic/semantic_series_3/semantic_series_3_d.png"" style=""width: 300px; height: 300px;"" />
                   </div>","null","3","1","D","",""
"","","","","","survey-likert","138","699466","0.0-104.0","04B1CF06A3DA4539BBF84AAC8D474244","0199d676-59a1-723c-9aaf-d9a224d7b4f3","0199d675-8795-765b-adc2-c813de8cd3d1","","1995","","{""Q0"":3}","3","1","surprise_rating","","[0]"
"","","","","","survey-likert","139","700716","0.0-105.0","04B1CF06A3DA4539BBF84AAC8D474244","0199d676-59a1-723c-9aaf-d9a224d7b4f3","0199d675-8795-765b-adc2-c813de8cd3d1","","1250","","{""Q0"":2}","3","1","enjoyment_rating","","[0]"
"","","","","","html-keyboard-response","140","706717","0.0-106.0","04B1CF06A3DA4539BBF84AAC8D474244","0199d676-59a1-723c-9aaf-d9a224d7b4f3","0199d675-8795-765b-adc2-c813de8cd3d1","","null","<div style=""display: flex; justify-content: center; align-items: center;"">
                     <img src=""images/other/blank.png"" style=""width: 300px; height: 300px;"" />
                   </div>","null","0","0","blank","",""
"","","","","","html-keyboard-response","141","712717","0.0-107.0","04B1CF06A3DA4539BBF84AAC8D474244","0199d676-59a1-723c-9aaf-d9a224d7b4f3","0199d675-8795-765b-adc2-c813de8cd3d1","","null","<div style=""display: flex; justify-content: center; align-items: center;"">
                     <img src=""images/causal/causal_series_9/causal_series_9_a.png"" style=""width: 300px; height: 300px;"" />
                   </div>","null","9","2","A","",""
"","","","","","html-button-response","142","713498","0.0-108.0","04B1CF06A3DA4539BBF84AAC8D474244","0199d676-59a1-723c-9aaf-d9a224d7b4f3","0199d675-8795-765b-adc2-c813de8cd3d1","","780","
        <div style=""display: flex; justify-content: center; align-items: center;"">
          <img src=""images/red_deck_2.png"" style=""width: 300px; height: 300px; margin-right: 10px;"" />
          <img src=""images/blue_deck_1.png"" style=""width: 300px; height: 300px;"" />
        </div>","1","9","2","choice","1",""
"","","","","","html-keyboard-response","143","719498","0.0-109.0-1.0-0.0","04B1CF06A3DA4539BBF84AAC8D474244","0199d676-59a1-723c-9aaf-d9a224d7b4f3","0199d675-8795-765b-adc2-c813de8cd3d1","","null","<div style=""display: flex; justify-content: center; align-items: center;"">
                     <img src=""images/semantic/semantic_series_9/semantic_series_9_b.png"" style=""width: 300px; height: 300px;"" />
                   </div>","null","9","2","B","",""
"","","","","","html-keyboard-response","144","725499","0.0-109.0-1.0-1.0","04B1CF06A3DA4539BBF84AAC8D474244","0199d676-59a1-723c-9aaf-d9a224d7b4f3","0199d675-8795-765b-adc2-c813de8cd3d1","","null","<div style=""display: flex; justify-content: center; align-items: center;"">
                     <img src=""images/semantic/semantic_series_9/semantic_series_9_c.png"" style=""width: 300px; height: 300px;"" />
                   </div>","null","9","2","C","",""
"","","","","","html-keyboard-response","145","731499","0.0-109.0-1.0-2.0","04B1CF06A3DA4539BBF84AAC8D474244","0199d676-59a1-723c-9aaf-d9a224d7b4f3","0199d675-8795-765b-adc2-c813de8cd3d1","","null","<div style=""display: flex; justify-content: center; align-items: center;"">
                     <img src=""images/semantic/semantic_series_9/semantic_series_9_d.png"" style=""width: 300px; height: 300px;"" />
                   </div>","null","9","2","D","",""
"","","","","","survey-likert","146","733607","0.0-110.0","04B1CF06A3DA4539BBF84AAC8D474244","0199d676-59a1-723c-9aaf-d9a224d7b4f3","0199d675-8795-765b-adc2-c813de8cd3d1","","2107","","{""Q0"":1}","9","2","surprise_rating","","[0]"
"","","","","","survey-likert","147","735262","0.0-111.0","04B1CF06A3DA4539BBF84AAC8D474244","0199d676-59a1-723c-9aaf-d9a224d7b4f3","0199d675-8795-765b-adc2-c813de8cd3d1","","1655","","{""Q0"":1}","9","2","enjoyment_rating","","[0]"
"","","","","","html-keyboard-response","148","741262","0.0-112.0","04B1CF06A3DA4539BBF84AAC8D474244","0199d676-59a1-723c-9aaf-d9a224d7b4f3","0199d675-8795-765b-adc2-c813de8cd3d1","","null","<div style=""display: flex; justify-content: center; align-items: center;"">
                     <img src=""images/other/blank.png"" style=""width: 300px; height: 300px;"" />
                   </div>","null","0","0","blank","",""
"","","","","","html-keyboard-response","149","747262","0.0-113.0","04B1CF06A3DA4539BBF84AAC8D474244","0199d676-59a1-723c-9aaf-d9a224d7b4f3","0199d675-8795-765b-adc2-c813de8cd3d1","","null","<div style=""display: flex; justify-content: center; align-items: center;"">
                     <img src=""images/causal/causal_series_7/causal_series_7_a.png"" style=""width: 300px; height: 300px;"" />
                   </div>","null","7","1","A","",""
"","","","","","html-button-response","150","748170","0.0-114.0","04B1CF06A3DA4539BBF84AAC8D474244","0199d676-59a1-723c-9aaf-d9a224d7b4f3","0199d675-8795-765b-adc2-c813de8cd3d1","","907","
        <div style=""display: flex; justify-content: center; align-items: center;"">
          <img src=""images/red_deck_2.png"" style=""width: 300px; height: 300px; margin-right: 10px;"" />
          <img src=""images/blue_deck_1.png"" style=""width: 300px; height: 300px;"" />
        </div>","1","7","1","choice","1",""
"","","","","","html-keyboard-response","151","754171","0.0-115.0-1.0-0.0","04B1CF06A3DA4539BBF84AAC8D474244","0199d676-59a1-723c-9aaf-d9a224d7b4f3","0199d675-8795-765b-adc2-c813de8cd3d1","","null","<div style=""display: flex; justify-content: center; align-items: center;"">
                     <img src=""images/semantic/semantic_series_7/semantic_series_7_b.png"" style=""width: 300px; height: 300px;"" />
                   </div>","null","7","1","B","",""
"","","","","","html-keyboard-response","152","760171","0.0-115.0-1.0-1.0","04B1CF06A3DA4539BBF84AAC8D474244","0199d676-59a1-723c-9aaf-d9a224d7b4f3","0199d675-8795-765b-adc2-c813de8cd3d1","","null","<div style=""display: flex; justify-content: center; align-items: center;"">
                     <img src=""images/semantic/semantic_series_7/semantic_series_7_c.png"" style=""width: 300px; height: 300px;"" />
                   </div>","null","7","1","C","",""
"","","","","","html-keyboard-response","153","766171","0.0-115.0-1.0-2.0","04B1CF06A3DA4539BBF84AAC8D474244","0199d676-59a1-723c-9aaf-d9a224d7b4f3","0199d675-8795-765b-adc2-c813de8cd3d1","","null","<div style=""display: flex; justify-content: center; align-items: center;"">
                     <img src=""images/semantic/semantic_series_7/semantic_series_7_d.png"" style=""width: 300px; height: 300px;"" />
                   </div>","null","7","1","D","",""
"","","","","","survey-likert","154","770647","0.0-116.0","04B1CF06A3DA4539BBF84AAC8D474244","0199d676-59a1-723c-9aaf-d9a224d7b4f3","0199d675-8795-765b-adc2-c813de8cd3d1","","4475","","{""Q0"":3}","7","1","surprise_rating","","[0]"
"","","","","","survey-likert","155","772364","0.0-117.0","04B1CF06A3DA4539BBF84AAC8D474244","0199d676-59a1-723c-9aaf-d9a224d7b4f3","0199d675-8795-765b-adc2-c813de8cd3d1","","1716","","{""Q0"":4}","7","1","enjoyment_rating","","[0]"
"","","","","","html-keyboard-response","156","778364","0.0-118.0","04B1CF06A3DA4539BBF84AAC8D474244","0199d676-59a1-723c-9aaf-d9a224d7b4f3","0199d675-8795-765b-adc2-c813de8cd3d1","","null","<div style=""display: flex; justify-content: center; align-items: center;"">
                     <img src=""images/other/blank.png"" style=""width: 300px; height: 300px;"" />
                   </div>","null","0","0","blank","",""
"","","","","","html-keyboard-response","157","784365","0.0-119.0","04B1CF06A3DA4539BBF84AAC8D474244","0199d676-59a1-723c-9aaf-d9a224d7b4f3","0199d675-8795-765b-adc2-c813de8cd3d1","","null","<div style=""display: flex; justify-content: center; align-items: center;"">
                     <img src=""images/causal/causal_series_6/causal_series_6_a.png"" style=""width: 300px; height: 300px;"" />
                   </div>","null","6","2","A","",""
"","","","","","html-button-response","158","785408","0.0-120.0","04B1CF06A3DA4539BBF84AAC8D474244","0199d676-59a1-723c-9aaf-d9a224d7b4f3","0199d675-8795-765b-adc2-c813de8cd3d1","","1042","
        <div style=""display: flex; justify-content: center; align-items: center;"">
          <img src=""images/red_deck_2.png"" style=""width: 300px; height: 300px; margin-right: 10px;"" />
          <img src=""images/blue_deck_1.png"" style=""width: 300px; height: 300px;"" />
        </div>","0","6","2","choice","0",""
"","","","","","html-keyboard-response","159","791408","0.0-121.0-0.0-0.0","04B1CF06A3DA4539BBF84AAC8D474244","0199d676-59a1-723c-9aaf-d9a224d7b4f3","0199d675-8795-765b-adc2-c813de8cd3d1","","null","<div style=""display: flex; justify-content: center; align-items: center;"">
                     <img src=""images/causal/causal_series_6/causal_series_6_b.png"" style=""width: 300px; height: 300px;"" />
                   </div>","null","6","2","B","",""
"","","","","","html-keyboard-response","160","797408","0.0-121.0-0.0-1.0","04B1CF06A3DA4539BBF84AAC8D474244","0199d676-59a1-723c-9aaf-d9a224d7b4f3","0199d675-8795-765b-adc2-c813de8cd3d1","","null","<div style=""display: flex; justify-content: center; align-items: center;"">
                     <img src=""images/causal/causal_series_6/causal_series_6_c.png"" style=""width: 300px; height: 300px;"" />
                   </div>","null","6","2","C","",""
"","","","","","html-keyboard-response","161","803409","0.0-121.0-0.0-2.0","04B1CF06A3DA4539BBF84AAC8D474244","0199d676-59a1-723c-9aaf-d9a224d7b4f3","0199d675-8795-765b-adc2-c813de8cd3d1","","null","<div style=""display: flex; justify-content: center; align-items: center;"">
                     <img src=""images/causal/causal_series_6/causal_series_6_d.png"" style=""width: 300px; height: 300px;"" />
                   </div>","null","6","2","D","",""
"","","","","","survey-likert","162","805875","0.0-122.0","04B1CF06A3DA4539BBF84AAC8D474244","0199d676-59a1-723c-9aaf-d9a224d7b4f3","0199d675-8795-765b-adc2-c813de8cd3d1","","2466","","{""Q0"":1}","6","2","surprise_rating","","[0]"
"","","","","","survey-likert","163","808047","0.0-123.0","04B1CF06A3DA4539BBF84AAC8D474244","0199d676-59a1-723c-9aaf-d9a224d7b4f3","0199d675-8795-765b-adc2-c813de8cd3d1","","2172","","{""Q0"":1}","6","2","enjoyment_rating","","[0]"
"","","","","","html-keyboard-response","164","814048","0.0-124.0","04B1CF06A3DA4539BBF84AAC8D474244","0199d676-59a1-723c-9aaf-d9a224d7b4f3","0199d675-8795-765b-adc2-c813de8cd3d1","","null","<div style=""display: flex; justify-content: center; align-items: center;"">
                     <img src=""images/other/blank.png"" style=""width: 300px; height: 300px;"" />
                   </div>","null","0","0","blank","",""
"","","","","","survey-text","165","842847","0.0-125.0","04B1CF06A3DA4539BBF84AAC8D474244","0199d676-59a1-723c-9aaf-d9a224d7b4f3","0199d675-8795-765b-adc2-c813de8cd3d1","","28797","","{""Q0"":""One of them is a sequence of events and the other is somewhat random events taking place in a general area""}","","","","",""
"","","","","","html-button-response","166","853062","0.0-126.0","04B1CF06A3DA4539BBF84AAC8D474244","0199d676-59a1-723c-9aaf-d9a224d7b4f3","0199d675-8795-765b-adc2-c813de8cd3d1","","10214","Which color deck do the following sentences continue the story from?","0","","","","",""
"","","","","","html-button-response","167","855169","0.0-127.0","04B1CF06A3DA4539BBF84AAC8D474244","0199d676-59a1-723c-9aaf-d9a224d7b4f3","0199d675-8795-765b-adc2-c813de8cd3d1","","2107","Which color deck do the following sentences NOT follow the story from?","1","","","","",""
"","","","","","html-button-response","168","869290","0.0-128.0","04B1CF06A3DA4539BBF84AAC8D474244","0199d676-59a1-723c-9aaf-d9a224d7b4f3","0199d675-8795-765b-adc2-c813de8cd3d1","","14121","Which type of deck did you prefer overall?","1","","","","",""
"","","","","","survey-text","169","875088","0.0-129.0","04B1CF06A3DA4539BBF84AAC8D474244","0199d676-59a1-723c-9aaf-d9a224d7b4f3","0199d675-8795-765b-adc2-c813de8cd3d1","","5797","","{""Q0"":""MALE"",""Q1"":""26""}","","","","",""
"","","","","","instructions","170","878064","0.0-130.0","04B1CF06A3DA4539BBF84AAC8D474244","0199d676-59a1-723c-9aaf-d9a224d7b4f3","0199d675-8795-765b-adc2-c813de8cd3d1","[{""page_index"":0,""viewing_time"":2975}]","2976","","","","","","",""
