"success","timeout","failed_images","failed_audio","failed_video","trial_type","trial_index","time_elapsed","internal_node_id","subject_id","study_id","session_id","view_history","rt","stimulus","response","series","repetition","phase","choice","question_order"
"true","false","[]","[]","[]","preload","0","1690","0.0-0.0","054016E0CC444E54BC1FA85CEF54151D","0199d5ff-80bb-7e1a-ab40-8ea5c7f0ea69","0199d5ef-c7d4-7cab-a194-b2c3afbaf8e8","","","","","","","","",""
"","","","","","instructions","1","4286","0.0-1.0","054016E0CC444E54BC1FA85CEF54151D","0199d5ff-80bb-7e1a-ab40-8ea5c7f0ea69","0199d5ef-c7d4-7cab-a194-b2c3afbaf8e8","[{""page_index"":0,""viewing_time"":2595}]","2595","","","","","","",""
"","","","","","instructions","2","16439","0.0-2.0","054016E0CC444E54BC1FA85CEF54151D","0199d5ff-80bb-7e1a-ab40-8ea5c7f0ea69","0199d5ef-c7d4-7cab-a194-b2c3afbaf8e8","[{""page_index"":0,""viewing_time"":12152}]","12152","","","","","","",""
"true","","","","","fullscreen","3","18824","0.0-3.0","054016E0CC444E54BC1FA85CEF54151D","0199d5ff-80bb-7e1a-ab40-8ea5c7f0ea69","0199d5ef-c7d4-7cab-a194-b2c3afbaf8e8","","1380","","","","","","",""
"","","","","","instructions","4","32908","0.0-4.0","054016E0CC444E54BC1FA85CEF54151D","0199d5ff-80bb-7e1a-ab40-8ea5c7f0ea69","0199d5ef-c7d4-7cab-a194-b2c3afbaf8e8","[{""page_index"":0,""viewing_time"":14083}]","14083","","","","","","",""
"","","","","","html-keyboard-response","5","38910","0.0-5.0","054016E0CC444E54BC1FA85CEF54151D","0199d5ff-80bb-7e1a-ab40-8ea5c7f0ea69","0199d5ef-c7d4-7cab-a194-b2c3afbaf8e8","","null","<div style=""display: flex; justify-content: center; align-items: center;"">
                     <img src=""images/causal/causal_series_3/causal_series_3_a.png"" style=""width: 300px; height: 300px;"" />
                   </div>","null","3","1","A","",""
"","","","","","html-keyboard-response","6","44912","0.0-6.0","054016E0CC444E54BC1FA85CEF54151D","0199d5ff-80bb-7e1a-ab40-8ea5c7f0ea69","0199d5ef-c7d4-7cab-a194-b2c3afbaf8e8","","null","<div style=""display: flex; justify-content: center; align-items: center;"">
                     <img src=""images/causal/causal_series_3/causal_series_3_b.png"" style=""width: 300px; height: 300px;"" />
                   </div>","null","3","1","B","",""
"","","","","","html-keyboard-response","7","50914","0.0-7.0","054016E0CC444E54BC1FA85CEF54151D","0199d5ff-80bb-7e1a-ab40-8ea5c7f0ea69","0199d5ef-c7d4-7cab-a194-b2c3afbaf8e8","","null","<div style=""display: flex; justify-content: center; align-items: center;"">
                     <img src=""images/causal/causal_series_3/causal_series_3_c.png"" style=""width: 300px; height: 300px;"" />
                   </div>","null","3","1","C","",""
"","","","","","html-button-response","8","52968","0.0-8.0","054016E0CC444E54BC1FA85CEF54151D","0199d5ff-80bb-7e1a-ab40-8ea5c7f0ea69","0199d5ef-c7d4-7cab-a194-b2c3afbaf8e8","","2053","
        <div style=""display: flex; justify-content: center; align-items: center;"">
          <img src=""images/red_deck_2.png"" style=""width: 300px; height: 300px; margin-right: 10px;"" />
          <img src=""images/blue_deck_1.png"" style=""width: 300px; height: 300px;"" />
        </div>","1","3","1","choice","1",""
"","","","","","html-keyboard-response","9","58969","0.0-9.0-1.0-0.0","054016E0CC444E54BC1FA85CEF54151D","0199d5ff-80bb-7e1a-ab40-8ea5c7f0ea69","0199d5ef-c7d4-7cab-a194-b2c3afbaf8e8","","null","<div style=""display: flex; justify-content: center; align-items: center;"">
                     <img src=""images/semantic/semantic_series_3/semantic_series_3_d.png"" style=""width: 300px; height: 300px;"" />
                   </div>","null","3","1","D","",""
"","","","","","html-keyboard-response","10","64971","0.0-9.0-1.0-1.0","054016E0CC444E54BC1FA85CEF54151D","0199d5ff-80bb-7e1a-ab40-8ea5c7f0ea69","0199d5ef-c7d4-7cab-a194-b2c3afbaf8e8","","null","<div style=""display: flex; justify-content: center; align-items: center;"">
                     <img src=""images/semantic/semantic_series_3/semantic_series_3_e.png"" style=""width: 300px; height: 300px;"" />
                   </div>","null","3","1","E","",""
"","","","","","html-keyboard-response","11","70973","0.0-9.0-1.0-2.0","054016E0CC444E54BC1FA85CEF54151D","0199d5ff-80bb-7e1a-ab40-8ea5c7f0ea69","0199d5ef-c7d4-7cab-a194-b2c3afbaf8e8","","null","<div style=""display: flex; justify-content: center; align-items: center;"">
                     <img src=""images/semantic/semantic_series_3/semantic_series_3_f.png"" style=""width: 300px; height: 300px;"" />
                   </div>","null","3","1","F","",""
"","","","","","survey-likert","12","76481","0.0-10.0","054016E0CC444E54BC1FA85CEF54151D","0199d5ff-80bb-7e1a-ab40-8ea5c7f0ea69","0199d5ef-c7d4-7cab-a194-b2c3afbaf8e8","","5506","","{""Q0"":2}","3","1","surprise_rating","","[0]"
"","","","","","survey-likert","13","80545","0.0-11.0","054016E0CC444E54BC1FA85CEF54151D","0199d5ff-80bb-7e1a-ab40-8ea5c7f0ea69","0199d5ef-c7d4-7cab-a194-b2c3afbaf8e8","","4063","","{""Q0"":2}","3","1","enjoyment_rating","","[0]"
"","","","","","html-keyboard-response","14","86546","0.0-12.0","054016E0CC444E54BC1FA85CEF54151D","0199d5ff-80bb-7e1a-ab40-8ea5c7f0ea69","0199d5ef-c7d4-7cab-a194-b2c3afbaf8e8","","null","<div style=""display: flex; justify-content: center; align-items: center;"">
                     <img src=""images/other/blank.png"" style=""width: 300px; height: 300px;"" />
                   </div>","null","0","0","blank","",""
"","","","","","html-keyboard-response","15","92549","0.0-13.0","054016E0CC444E54BC1FA85CEF54151D","0199d5ff-80bb-7e1a-ab40-8ea5c7f0ea69","0199d5ef-c7d4-7cab-a194-b2c3afbaf8e8","","null","<div style=""display: flex; justify-content: center; align-items: center;"">
                     <img src=""images/causal/causal_series_1/causal_series_1_a.png"" style=""width: 300px; height: 300px;"" />
                   </div>","null","1","2","A","",""
"","","","","","html-keyboard-response","16","98551","0.0-14.0","054016E0CC444E54BC1FA85CEF54151D","0199d5ff-80bb-7e1a-ab40-8ea5c7f0ea69","0199d5ef-c7d4-7cab-a194-b2c3afbaf8e8","","null","<div style=""display: flex; justify-content: center; align-items: center;"">
                     <img src=""images/causal/causal_series_1/causal_series_1_b.png"" style=""width: 300px; height: 300px;"" />
                   </div>","null","1","2","B","",""
"","","","","","html-keyboard-response","17","104553","0.0-15.0","054016E0CC444E54BC1FA85CEF54151D","0199d5ff-80bb-7e1a-ab40-8ea5c7f0ea69","0199d5ef-c7d4-7cab-a194-b2c3afbaf8e8","","null","<div style=""display: flex; justify-content: center; align-items: center;"">
                     <img src=""images/causal/causal_series_1/causal_series_1_c.png"" style=""width: 300px; height: 300px;"" />
                   </div>","null","1","2","C","",""
"","","","","","html-button-response","18","105982","0.0-16.0","054016E0CC444E54BC1FA85CEF54151D","0199d5ff-80bb-7e1a-ab40-8ea5c7f0ea69","0199d5ef-c7d4-7cab-a194-b2c3afbaf8e8","","1429","
        <div style=""display: flex; justify-content: center; align-items: center;"">
          <img src=""images/red_deck_2.png"" style=""width: 300px; height: 300px; margin-right: 10px;"" />
          <img src=""images/blue_deck_1.png"" style=""width: 300px; height: 300px;"" />
        </div>","0","1","2","choice","0",""
"","","","","","html-keyboard-response","19","111984","0.0-17.0-0.0-0.0","054016E0CC444E54BC1FA85CEF54151D","0199d5ff-80bb-7e1a-ab40-8ea5c7f0ea69","0199d5ef-c7d4-7cab-a194-b2c3afbaf8e8","","null","<div style=""display: flex; justify-content: center; align-items: center;"">
                     <img src=""images/causal/causal_series_1/causal_series_1_d.png"" style=""width: 300px; height: 300px;"" />
                   </div>","null","1","2","D","",""
"","","","","","html-keyboard-response","20","117987","0.0-17.0-0.0-1.0","054016E0CC444E54BC1FA85CEF54151D","0199d5ff-80bb-7e1a-ab40-8ea5c7f0ea69","0199d5ef-c7d4-7cab-a194-b2c3afbaf8e8","","null","<div style=""display: flex; justify-content: center; align-items: center;"">
                     <img src=""images/causal/causal_series_1/causal_series_1_e.png"" style=""width: 300px; height: 300px;"" />
                   </div>","null","1","2","E","",""
"","","","","","html-keyboard-response","21","123989","0.0-17.0-0.0-2.0","054016E0CC444E54BC1FA85CEF54151D","0199d5ff-80bb-7e1a-ab40-8ea5c7f0ea69","0199d5ef-c7d4-7cab-a194-b2c3afbaf8e8","","null","<div style=""display: flex; justify-content: center; align-items: center;"">
                     <img src=""images/causal/causal_series_1/causal_series_1_f.png"" style=""width: 300px; height: 300px;"" />
                   </div>","null","1","2","F","",""
"","","","","","survey-likert","22","129033","0.0-18.0","054016E0CC444E54BC1FA85CEF54151D","0199d5ff-80bb-7e1a-ab40-8ea5c7f0ea69","0199d5ef-c7d4-7cab-a194-b2c3afbaf8e8","","5043","","{""Q0"":4}","1","2","surprise_rating","","[0]"
"","","","","","survey-likert","23","131597","0.0-19.0","054016E0CC444E54BC1FA85CEF54151D","0199d5ff-80bb-7e1a-ab40-8ea5c7f0ea69","0199d5ef-c7d4-7cab-a194-b2c3afbaf8e8","","2563","","{""Q0"":4}","1","2","enjoyment_rating","","[0]"
"","","","","","html-keyboard-response","24","137600","0.0-20.0","054016E0CC444E54BC1FA85CEF54151D","0199d5ff-80bb-7e1a-ab40-8ea5c7f0ea69","0199d5ef-c7d4-7cab-a194-b2c3afbaf8e8","","null","<div style=""display: flex; justify-content: center; align-items: center;"">
                     <img src=""images/other/blank.png"" style=""width: 300px; height: 300px;"" />
                   </div>","null","0","0","blank","",""
"","","","","","html-keyboard-response","25","143601","0.0-21.0","054016E0CC444E54BC1FA85CEF54151D","0199d5ff-80bb-7e1a-ab40-8ea5c7f0ea69","0199d5ef-c7d4-7cab-a194-b2c3afbaf8e8","","null","<div style=""display: flex; justify-content: center; align-items: center;"">
                     <img src=""images/causal/causal_series_10/causal_series_10_a.png"" style=""width: 300px; height: 300px;"" />
                   </div>","null","10","2","A","",""
"","","","","","html-keyboard-response","26","149603","0.0-22.0","054016E0CC444E54BC1FA85CEF54151D","0199d5ff-80bb-7e1a-ab40-8ea5c7f0ea69","0199d5ef-c7d4-7cab-a194-b2c3afbaf8e8","","null","<div style=""display: flex; justify-content: center; align-items: center;"">
                     <img src=""images/causal/causal_series_10/causal_series_10_b.png"" style=""width: 300px; height: 300px;"" />
                   </div>","null","10","2","B","",""
"","","","","","html-keyboard-response","27","155604","0.0-23.0","054016E0CC444E54BC1FA85CEF54151D","0199d5ff-80bb-7e1a-ab40-8ea5c7f0ea69","0199d5ef-c7d4-7cab-a194-b2c3afbaf8e8","","null","<div style=""display: flex; justify-content: center; align-items: center;"">
                     <img src=""images/causal/causal_series_10/causal_series_10_c.png"" style=""width: 300px; height: 300px;"" />
                   </div>","null","10","2","C","",""
"","","","","","html-button-response","28","156734","0.0-24.0","054016E0CC444E54BC1FA85CEF54151D","0199d5ff-80bb-7e1a-ab40-8ea5c7f0ea69","0199d5ef-c7d4-7cab-a194-b2c3afbaf8e8","","1129","
        <div style=""display: flex; justify-content: center; align-items: center;"">
          <img src=""images/red_deck_2.png"" style=""width: 300px; height: 300px; margin-right: 10px;"" />
          <img src=""images/blue_deck_1.png"" style=""width: 300px; height: 300px;"" />
        </div>","0","10","2","choice","0",""
"","","","","","html-keyboard-response","29","162736","0.0-25.0-0.0-0.0","054016E0CC444E54BC1FA85CEF54151D","0199d5ff-80bb-7e1a-ab40-8ea5c7f0ea69","0199d5ef-c7d4-7cab-a194-b2c3afbaf8e8","","null","<div style=""display: flex; justify-content: center; align-items: center;"">
                     <img src=""images/causal/causal_series_10/causal_series_10_d.png"" style=""width: 300px; height: 300px;"" />
                   </div>","null","10","2","D","",""
"","","","","","html-keyboard-response","30","168738","0.0-25.0-0.0-1.0","054016E0CC444E54BC1FA85CEF54151D","0199d5ff-80bb-7e1a-ab40-8ea5c7f0ea69","0199d5ef-c7d4-7cab-a194-b2c3afbaf8e8","","null","<div style=""display: flex; justify-content: center; align-items: center;"">
                     <img src=""images/causal/causal_series_10/causal_series_10_e.png"" style=""width: 300px; height: 300px;"" />
                   </div>","null","10","2","E","",""
"","","","","","html-keyboard-response","31","174740","0.0-25.0-0.0-2.0","054016E0CC444E54BC1FA85CEF54151D","0199d5ff-80bb-7e1a-ab40-8ea5c7f0ea69","0199d5ef-c7d4-7cab-a194-b2c3afbaf8e8","","null","<div style=""display: flex; justify-content: center; align-items: center;"">
                     <img src=""images/causal/causal_series_10/causal_series_10_f.png"" style=""width: 300px; height: 300px;"" />
                   </div>","null","10","2","F","",""
"","","","","","survey-likert","32","177537","0.0-26.0","054016E0CC444E54BC1FA85CEF54151D","0199d5ff-80bb-7e1a-ab40-8ea5c7f0ea69","0199d5ef-c7d4-7cab-a194-b2c3afbaf8e8","","2796","","{""Q0"":3}","10","2","surprise_rating","","[0]"
"","","","","","survey-likert","33","179687","0.0-27.0","054016E0CC444E54BC1FA85CEF54151D","0199d5ff-80bb-7e1a-ab40-8ea5c7f0ea69","0199d5ef-c7d4-7cab-a194-b2c3afbaf8e8","","2150","","{""Q0"":4}","10","2","enjoyment_rating","","[0]"
"","","","","","html-keyboard-response","34","185689","0.0-28.0","054016E0CC444E54BC1FA85CEF54151D","0199d5ff-80bb-7e1a-ab40-8ea5c7f0ea69","0199d5ef-c7d4-7cab-a194-b2c3afbaf8e8","","null","<div style=""display: flex; justify-content: center; align-items: center;"">
                     <img src=""images/other/blank.png"" style=""width: 300px; height: 300px;"" />
                   </div>","null","0","0","blank","",""
"","","","","","html-keyboard-response","35","191691","0.0-29.0","054016E0CC444E54BC1FA85CEF54151D","0199d5ff-80bb-7e1a-ab40-8ea5c7f0ea69","0199d5ef-c7d4-7cab-a194-b2c3afbaf8e8","","null","<div style=""display: flex; justify-content: center; align-items: center;"">
                     <img src=""images/causal/causal_series_8/causal_series_8_a.png"" style=""width: 300px; height: 300px;"" />
                   </div>","null","8","2","A","",""
"","","","","","html-keyboard-response","36","197693","0.0-30.0","054016E0CC444E54BC1FA85CEF54151D","0199d5ff-80bb-7e1a-ab40-8ea5c7f0ea69","0199d5ef-c7d4-7cab-a194-b2c3afbaf8e8","","null","<div style=""display: flex; justify-content: center; align-items: center;"">
                     <img src=""images/causal/causal_series_8/causal_series_8_b.png"" style=""width: 300px; height: 300px;"" />
                   </div>","null","8","2","B","",""
"","","","","","html-keyboard-response","37","203693","0.0-31.0","054016E0CC444E54BC1FA85CEF54151D","0199d5ff-80bb-7e1a-ab40-8ea5c7f0ea69","0199d5ef-c7d4-7cab-a194-b2c3afbaf8e8","","null","<div style=""display: flex; justify-content: center; align-items: center;"">
                     <img src=""images/causal/causal_series_8/causal_series_8_c.png"" style=""width: 300px; height: 300px;"" />
                   </div>","null","8","2","C","",""
"","","","","","html-button-response","38","205061","0.0-32.0","054016E0CC444E54BC1FA85CEF54151D","0199d5ff-80bb-7e1a-ab40-8ea5c7f0ea69","0199d5ef-c7d4-7cab-a194-b2c3afbaf8e8","","1367","
        <div style=""display: flex; justify-content: center; align-items: center;"">
          <img src=""images/red_deck_2.png"" style=""width: 300px; height: 300px; margin-right: 10px;"" />
          <img src=""images/blue_deck_1.png"" style=""width: 300px; height: 300px;"" />
        </div>","0","8","2","choice","0",""
"","","","","","html-keyboard-response","39","211063","0.0-33.0-0.0-0.0","054016E0CC444E54BC1FA85CEF54151D","0199d5ff-80bb-7e1a-ab40-8ea5c7f0ea69","0199d5ef-c7d4-7cab-a194-b2c3afbaf8e8","","null","<div style=""display: flex; justify-content: center; align-items: center;"">
                     <img src=""images/causal/causal_series_8/causal_series_8_d.png"" style=""width: 300px; height: 300px;"" />
                   </div>","null","8","2","D","",""
"","","","","","html-keyboard-response","40","217065","0.0-33.0-0.0-1.0","054016E0CC444E54BC1FA85CEF54151D","0199d5ff-80bb-7e1a-ab40-8ea5c7f0ea69","0199d5ef-c7d4-7cab-a194-b2c3afbaf8e8","","null","<div style=""display: flex; justify-content: center; align-items: center;"">
                     <img src=""images/causal/causal_series_8/causal_series_8_e.png"" style=""width: 300px; height: 300px;"" />
                   </div>","null","8","2","E","",""
"","","","","","html-keyboard-response","41","223067","0.0-33.0-0.0-2.0","054016E0CC444E54BC1FA85CEF54151D","0199d5ff-80bb-7e1a-ab40-8ea5c7f0ea69","0199d5ef-c7d4-7cab-a194-b2c3afbaf8e8","","null","<div style=""display: flex; justify-content: center; align-items: center;"">
                     <img src=""images/causal/causal_series_8/causal_series_8_f.png"" style=""width: 300px; height: 300px;"" />
                   </div>","null","8","2","F","",""
"","","","","","survey-likert","42","225876","0.0-34.0","054016E0CC444E54BC1FA85CEF54151D","0199d5ff-80bb-7e1a-ab40-8ea5c7f0ea69","0199d5ef-c7d4-7cab-a194-b2c3afbaf8e8","","2808","","{""Q0"":3}","8","2","surprise_rating","","[0]"
"","","","","","survey-likert","43","228892","0.0-35.0","054016E0CC444E54BC1FA85CEF54151D","0199d5ff-80bb-7e1a-ab40-8ea5c7f0ea69","0199d5ef-c7d4-7cab-a194-b2c3afbaf8e8","","3015","","{""Q0"":3}","8","2","enjoyment_rating","","[0]"
"","","","","","html-keyboard-response","44","234893","0.0-36.0","054016E0CC444E54BC1FA85CEF54151D","0199d5ff-80bb-7e1a-ab40-8ea5c7f0ea69","0199d5ef-c7d4-7cab-a194-b2c3afbaf8e8","","null","<div style=""display: flex; justify-content: center; align-items: center;"">
                     <img src=""images/other/blank.png"" style=""width: 300px; height: 300px;"" />
                   </div>","null","0","0","blank","",""
"","","","","","html-keyboard-response","45","240895","0.0-37.0","054016E0CC444E54BC1FA85CEF54151D","0199d5ff-80bb-7e1a-ab40-8ea5c7f0ea69","0199d5ef-c7d4-7cab-a194-b2c3afbaf8e8","","null","<div style=""display: flex; justify-content: center; align-items: center;"">
                     <img src=""images/causal/causal_series_1/causal_series_1_a.png"" style=""width: 300px; height: 300px;"" />
                   </div>","null","1","1","A","",""
"","","","","","html-keyboard-response","46","246898","0.0-38.0","054016E0CC444E54BC1FA85CEF54151D","0199d5ff-80bb-7e1a-ab40-8ea5c7f0ea69","0199d5ef-c7d4-7cab-a194-b2c3afbaf8e8","","null","<div style=""display: flex; justify-content: center; align-items: center;"">
                     <img src=""images/causal/causal_series_1/causal_series_1_b.png"" style=""width: 300px; height: 300px;"" />
                   </div>","null","1","1","B","",""
"","","","","","html-keyboard-response","47","252900","0.0-39.0","054016E0CC444E54BC1FA85CEF54151D","0199d5ff-80bb-7e1a-ab40-8ea5c7f0ea69","0199d5ef-c7d4-7cab-a194-b2c3afbaf8e8","","null","<div style=""display: flex; justify-content: center; align-items: center;"">
                     <img src=""images/causal/causal_series_1/causal_series_1_c.png"" style=""width: 300px; height: 300px;"" />
                   </div>","null","1","1","C","",""
"","","","","","html-button-response","48","253844","0.0-40.0","054016E0CC444E54BC1FA85CEF54151D","0199d5ff-80bb-7e1a-ab40-8ea5c7f0ea69","0199d5ef-c7d4-7cab-a194-b2c3afbaf8e8","","943","
        <div style=""display: flex; justify-content: center; align-items: center;"">
          <img src=""images/red_deck_2.png"" style=""width: 300px; height: 300px; margin-right: 10px;"" />
          <img src=""images/blue_deck_1.png"" style=""width: 300px; height: 300px;"" />
        </div>","1","1","1","choice","1",""
"","","","","","html-keyboard-response","49","259847","0.0-41.0-1.0-0.0","054016E0CC444E54BC1FA85CEF54151D","0199d5ff-80bb-7e1a-ab40-8ea5c7f0ea69","0199d5ef-c7d4-7cab-a194-b2c3afbaf8e8","","null","<div style=""display: flex; justify-content: center; align-items: center;"">
                     <img src=""images/semantic/semantic_series_1/semantic_series_1_d.png"" style=""width: 300px; height: 300px;"" />
                   </div>","null","1","1","D","",""
"","","","","","html-keyboard-response","50","265853","0.0-41.0-1.0-1.0","054016E0CC444E54BC1FA85CEF54151D","0199d5ff-80bb-7e1a-ab40-8ea5c7f0ea69","0199d5ef-c7d4-7cab-a194-b2c3afbaf8e8","","null","<div style=""display: flex; justify-content: center; align-items: center;"">
                     <img src=""images/semantic/semantic_series_1/semantic_series_1_e.png"" style=""width: 300px; height: 300px;"" />
                   </div>","null","1","1","E","",""
"","","","","","html-keyboard-response","51","271859","0.0-41.0-1.0-2.0","054016E0CC444E54BC1FA85CEF54151D","0199d5ff-80bb-7e1a-ab40-8ea5c7f0ea69","0199d5ef-c7d4-7cab-a194-b2c3afbaf8e8","","null","<div style=""display: flex; justify-content: center; align-items: center;"">
                     <img src=""images/semantic/semantic_series_1/semantic_series_1_f.png"" style=""width: 300px; height: 300px;"" />
                   </div>","null","1","1","F","",""
"","","","","","survey-likert","52","277380","0.0-42.0","054016E0CC444E54BC1FA85CEF54151D","0199d5ff-80bb-7e1a-ab40-8ea5c7f0ea69","0199d5ef-c7d4-7cab-a194-b2c3afbaf8e8","","5517","","{""Q0"":2}","1","1","surprise_rating","","[0]"
"","","","","","survey-likert","53","279160","0.0-43.0","054016E0CC444E54BC1FA85CEF54151D","0199d5ff-80bb-7e1a-ab40-8ea5c7f0ea69","0199d5ef-c7d4-7cab-a194-b2c3afbaf8e8","","1779","","{""Q0"":1}","1","1","enjoyment_rating","","[0]"
"","","","","","html-keyboard-response","54","285164","0.0-44.0","054016E0CC444E54BC1FA85CEF54151D","0199d5ff-80bb-7e1a-ab40-8ea5c7f0ea69","0199d5ef-c7d4-7cab-a194-b2c3afbaf8e8","","null","<div style=""display: flex; justify-content: center; align-items: center;"">
                     <img src=""images/other/blank.png"" style=""width: 300px; height: 300px;"" />
                   </div>","null","0","0","blank","",""
"","","","","","html-keyboard-response","55","291167","0.0-45.0","054016E0CC444E54BC1FA85CEF54151D","0199d5ff-80bb-7e1a-ab40-8ea5c7f0ea69","0199d5ef-c7d4-7cab-a194-b2c3afbaf8e8","","null","<div style=""display: flex; justify-content: center; align-items: center;"">
                     <img src=""images/causal/causal_series_3/causal_series_3_a.png"" style=""width: 300px; height: 300px;"" />
                   </div>","null","3","2","A","",""
"","","","","","html-keyboard-response","56","297170","0.0-46.0","054016E0CC444E54BC1FA85CEF54151D","0199d5ff-80bb-7e1a-ab40-8ea5c7f0ea69","0199d5ef-c7d4-7cab-a194-b2c3afbaf8e8","","null","<div style=""display: flex; justify-content: center; align-items: center;"">
                     <img src=""images/causal/causal_series_3/causal_series_3_b.png"" style=""width: 300px; height: 300px;"" />
                   </div>","null","3","2","B","",""
"","","","","","html-keyboard-response","57","303172","0.0-47.0","054016E0CC444E54BC1FA85CEF54151D","0199d5ff-80bb-7e1a-ab40-8ea5c7f0ea69","0199d5ef-c7d4-7cab-a194-b2c3afbaf8e8","","null","<div style=""display: flex; justify-content: center; align-items: center;"">
                     <img src=""images/causal/causal_series_3/causal_series_3_c.png"" style=""width: 300px; height: 300px;"" />
                   </div>","null","3","2","C","",""
"","","","","","html-button-response","58","304399","0.0-48.0","054016E0CC444E54BC1FA85CEF54151D","0199d5ff-80bb-7e1a-ab40-8ea5c7f0ea69","0199d5ef-c7d4-7cab-a194-b2c3afbaf8e8","","1226","
        <div style=""display: flex; justify-content: center; align-items: center;"">
          <img src=""images/red_deck_2.png"" style=""width: 300px; height: 300px; margin-right: 10px;"" />
          <img src=""images/blue_deck_1.png"" style=""width: 300px; height: 300px;"" />
        </div>","0","3","2","choice","0",""
"","","","","","html-keyboard-response","59","310401","0.0-49.0-0.0-0.0","054016E0CC444E54BC1FA85CEF54151D","0199d5ff-80bb-7e1a-ab40-8ea5c7f0ea69","0199d5ef-c7d4-7cab-a194-b2c3afbaf8e8","","null","<div style=""display: flex; justify-content: center; align-items: center;"">
                     <img src=""images/causal/causal_series_3/causal_series_3_d.png"" style=""width: 300px; height: 300px;"" />
                   </div>","null","3","2","D","",""
"","","","","","html-keyboard-response","60","316404","0.0-49.0-0.0-1.0","054016E0CC444E54BC1FA85CEF54151D","0199d5ff-80bb-7e1a-ab40-8ea5c7f0ea69","0199d5ef-c7d4-7cab-a194-b2c3afbaf8e8","","null","<div style=""display: flex; justify-content: center; align-items: center;"">
                     <img src=""images/causal/causal_series_3/causal_series_3_e.png"" style=""width: 300px; height: 300px;"" />
                   </div>","null","3","2","E","",""
"","","","","","html-keyboard-response","61","322405","0.0-49.0-0.0-2.0","054016E0CC444E54BC1FA85CEF54151D","0199d5ff-80bb-7e1a-ab40-8ea5c7f0ea69","0199d5ef-c7d4-7cab-a194-b2c3afbaf8e8","","null","<div style=""display: flex; justify-content: center; align-items: center;"">
                     <img src=""images/causal/causal_series_3/causal_series_3_f.png"" style=""width: 300px; height: 300px;"" />
                   </div>","null","3","2","F","",""
"","","","","","survey-likert","62","325367","0.0-50.0","054016E0CC444E54BC1FA85CEF54151D","0199d5ff-80bb-7e1a-ab40-8ea5c7f0ea69","0199d5ef-c7d4-7cab-a194-b2c3afbaf8e8","","2962","","{""Q0"":3}","3","2","surprise_rating","","[0]"
"","","","","","survey-likert","63","326987","0.0-51.0","054016E0CC444E54BC1FA85CEF54151D","0199d5ff-80bb-7e1a-ab40-8ea5c7f0ea69","0199d5ef-c7d4-7cab-a194-b2c3afbaf8e8","","1618","","{""Q0"":3}","3","2","enjoyment_rating","","[0]"
"","","","","","html-keyboard-response","64","332989","0.0-52.0","054016E0CC444E54BC1FA85CEF54151D","0199d5ff-80bb-7e1a-ab40-8ea5c7f0ea69","0199d5ef-c7d4-7cab-a194-b2c3afbaf8e8","","null","<div style=""display: flex; justify-content: center; align-items: center;"">
                     <img src=""images/other/blank.png"" style=""width: 300px; height: 300px;"" />
                   </div>","null","0","0","blank","",""
"","","","","","html-keyboard-response","65","338991","0.0-53.0","054016E0CC444E54BC1FA85CEF54151D","0199d5ff-80bb-7e1a-ab40-8ea5c7f0ea69","0199d5ef-c7d4-7cab-a194-b2c3afbaf8e8","","null","<div style=""display: flex; justify-content: center; align-items: center;"">
                     <img src=""images/causal/causal_series_9/causal_series_9_a.png"" style=""width: 300px; height: 300px;"" />
                   </div>","null","9","1","A","",""
"","","","","","html-keyboard-response","66","344992","0.0-54.0","054016E0CC444E54BC1FA85CEF54151D","0199d5ff-80bb-7e1a-ab40-8ea5c7f0ea69","0199d5ef-c7d4-7cab-a194-b2c3afbaf8e8","","null","<div style=""display: flex; justify-content: center; align-items: center;"">
                     <img src=""images/causal/causal_series_9/causal_series_9_b.png"" style=""width: 300px; height: 300px;"" />
                   </div>","null","9","1","B","",""
"","","","","","html-keyboard-response","67","350994","0.0-55.0","054016E0CC444E54BC1FA85CEF54151D","0199d5ff-80bb-7e1a-ab40-8ea5c7f0ea69","0199d5ef-c7d4-7cab-a194-b2c3afbaf8e8","","null","<div style=""display: flex; justify-content: center; align-items: center;"">
                     <img src=""images/causal/causal_series_9/causal_series_9_c.png"" style=""width: 300px; height: 300px;"" />
                   </div>","null","9","1","C","",""
"","","","","","html-button-response","68","352441","0.0-56.0","054016E0CC444E54BC1FA85CEF54151D","0199d5ff-80bb-7e1a-ab40-8ea5c7f0ea69","0199d5ef-c7d4-7cab-a194-b2c3afbaf8e8","","1447","
        <div style=""display: flex; justify-content: center; align-items: center;"">
          <img src=""images/red_deck_2.png"" style=""width: 300px; height: 300px; margin-right: 10px;"" />
          <img src=""images/blue_deck_1.png"" style=""width: 300px; height: 300px;"" />
        </div>","0","9","1","choice","0",""
"","","","","","html-keyboard-response","69","358443","0.0-57.0-0.0-0.0","054016E0CC444E54BC1FA85CEF54151D","0199d5ff-80bb-7e1a-ab40-8ea5c7f0ea69","0199d5ef-c7d4-7cab-a194-b2c3afbaf8e8","","null","<div style=""display: flex; justify-content: center; align-items: center;"">
                     <img src=""images/causal/causal_series_9/causal_series_9_d.png"" style=""width: 300px; height: 300px;"" />
                   </div>","null","9","1","D","",""
"","","","","","html-keyboard-response","70","364445","0.0-57.0-0.0-1.0","054016E0CC444E54BC1FA85CEF54151D","0199d5ff-80bb-7e1a-ab40-8ea5c7f0ea69","0199d5ef-c7d4-7cab-a194-b2c3afbaf8e8","","null","<div style=""display: flex; justify-content: center; align-items: center;"">
                     <img src=""images/causal/causal_series_9/causal_series_9_e.png"" style=""width: 300px; height: 300px;"" />
                   </div>","null","9","1","E","",""
"","","","","","html-keyboard-response","71","370447","0.0-57.0-0.0-2.0","054016E0CC444E54BC1FA85CEF54151D","0199d5ff-80bb-7e1a-ab40-8ea5c7f0ea69","0199d5ef-c7d4-7cab-a194-b2c3afbaf8e8","","null","<div style=""display: flex; justify-content: center; align-items: center;"">
                     <img src=""images/causal/causal_series_9/causal_series_9_f.png"" style=""width: 300px; height: 300px;"" />
                   </div>","null","9","1","F","",""
"","","","","","survey-likert","72","374872","0.0-58.0","054016E0CC444E54BC1FA85CEF54151D","0199d5ff-80bb-7e1a-ab40-8ea5c7f0ea69","0199d5ef-c7d4-7cab-a194-b2c3afbaf8e8","","4425","","{""Q0"":3}","9","1","surprise_rating","","[0]"
"","","","","","survey-likert","73","378074","0.0-59.0","054016E0CC444E54BC1FA85CEF54151D","0199d5ff-80bb-7e1a-ab40-8ea5c7f0ea69","0199d5ef-c7d4-7cab-a194-b2c3afbaf8e8","","3201","","{""Q0"":2}","9","1","enjoyment_rating","","[0]"
"","","","","","html-keyboard-response","74","384076","0.0-60.0","054016E0CC444E54BC1FA85CEF54151D","0199d5ff-80bb-7e1a-ab40-8ea5c7f0ea69","0199d5ef-c7d4-7cab-a194-b2c3afbaf8e8","","null","<div style=""display: flex; justify-content: center; align-items: center;"">
                     <img src=""images/other/blank.png"" style=""width: 300px; height: 300px;"" />
                   </div>","null","0","0","blank","",""
"","","","","","html-keyboard-response","75","390078","0.0-61.0","054016E0CC444E54BC1FA85CEF54151D","0199d5ff-80bb-7e1a-ab40-8ea5c7f0ea69","0199d5ef-c7d4-7cab-a194-b2c3afbaf8e8","","null","<div style=""display: flex; justify-content: center; align-items: center;"">
                     <img src=""images/causal/causal_series_6/causal_series_6_a.png"" style=""width: 300px; height: 300px;"" />
                   </div>","null","6","2","A","",""
"","","","","","html-keyboard-response","76","396080","0.0-62.0","054016E0CC444E54BC1FA85CEF54151D","0199d5ff-80bb-7e1a-ab40-8ea5c7f0ea69","0199d5ef-c7d4-7cab-a194-b2c3afbaf8e8","","null","<div style=""display: flex; justify-content: center; align-items: center;"">
                     <img src=""images/causal/causal_series_6/causal_series_6_b.png"" style=""width: 300px; height: 300px;"" />
                   </div>","null","6","2","B","",""
"","","","","","html-keyboard-response","77","402082","0.0-63.0","054016E0CC444E54BC1FA85CEF54151D","0199d5ff-80bb-7e1a-ab40-8ea5c7f0ea69","0199d5ef-c7d4-7cab-a194-b2c3afbaf8e8","","null","<div style=""display: flex; justify-content: center; align-items: center;"">
                     <img src=""images/causal/causal_series_6/causal_series_6_c.png"" style=""width: 300px; height: 300px;"" />
                   </div>","null","6","2","C","",""
"","","","","","html-button-response","78","405299","0.0-64.0","054016E0CC444E54BC1FA85CEF54151D","0199d5ff-80bb-7e1a-ab40-8ea5c7f0ea69","0199d5ef-c7d4-7cab-a194-b2c3afbaf8e8","","3216","
        <div style=""display: flex; justify-content: center; align-items: center;"">
          <img src=""images/red_deck_2.png"" style=""width: 300px; height: 300px; margin-right: 10px;"" />
          <img src=""images/blue_deck_1.png"" style=""width: 300px; height: 300px;"" />
        </div>","0","6","2","choice","0",""
"","","","","","html-keyboard-response","79","411301","0.0-65.0-0.0-0.0","054016E0CC444E54BC1FA85CEF54151D","0199d5ff-80bb-7e1a-ab40-8ea5c7f0ea69","0199d5ef-c7d4-7cab-a194-b2c3afbaf8e8","","null","<div style=""display: flex; justify-content: center; align-items: center;"">
                     <img src=""images/causal/causal_series_6/causal_series_6_d.png"" style=""width: 300px; height: 300px;"" />
                   </div>","null","6","2","D","",""
"","","","","","html-keyboard-response","80","417302","0.0-65.0-0.0-1.0","054016E0CC444E54BC1FA85CEF54151D","0199d5ff-80bb-7e1a-ab40-8ea5c7f0ea69","0199d5ef-c7d4-7cab-a194-b2c3afbaf8e8","","null","<div style=""display: flex; justify-content: center; align-items: center;"">
                     <img src=""images/causal/causal_series_6/causal_series_6_e.png"" style=""width: 300px; height: 300px;"" />
                   </div>","null","6","2","E","",""
"","","","","","html-keyboard-response","81","423304","0.0-65.0-0.0-2.0","054016E0CC444E54BC1FA85CEF54151D","0199d5ff-80bb-7e1a-ab40-8ea5c7f0ea69","0199d5ef-c7d4-7cab-a194-b2c3afbaf8e8","","null","<div style=""display: flex; justify-content: center; align-items: center;"">
                     <img src=""images/causal/causal_series_6/causal_series_6_f.png"" style=""width: 300px; height: 300px;"" />
                   </div>","null","6","2","F","",""
"","","","","","survey-likert","82","426879","0.0-66.0","054016E0CC444E54BC1FA85CEF54151D","0199d5ff-80bb-7e1a-ab40-8ea5c7f0ea69","0199d5ef-c7d4-7cab-a194-b2c3afbaf8e8","","3574","","{""Q0"":2}","6","2","surprise_rating","","[0]"
"","","","","","survey-likert","83","428594","0.0-67.0","054016E0CC444E54BC1FA85CEF54151D","0199d5ff-80bb-7e1a-ab40-8ea5c7f0ea69","0199d5ef-c7d4-7cab-a194-b2c3afbaf8e8","","1715","","{""Q0"":2}","6","2","enjoyment_rating","","[0]"
"","","","","","html-keyboard-response","84","434597","0.0-68.0","054016E0CC444E54BC1FA85CEF54151D","0199d5ff-80bb-7e1a-ab40-8ea5c7f0ea69","0199d5ef-c7d4-7cab-a194-b2c3afbaf8e8","","null","<div style=""display: flex; justify-content: center; align-items: center;"">
                     <img src=""images/other/blank.png"" style=""width: 300px; height: 300px;"" />
                   </div>","null","0","0","blank","",""
"","","","","","html-keyboard-response","85","440598","0.0-69.0","054016E0CC444E54BC1FA85CEF54151D","0199d5ff-80bb-7e1a-ab40-8ea5c7f0ea69","0199d5ef-c7d4-7cab-a194-b2c3afbaf8e8","","null","<div style=""display: flex; justify-content: center; align-items: center;"">
                     <img src=""images/causal/causal_series_7/causal_series_7_a.png"" style=""width: 300px; height: 300px;"" />
                   </div>","null","7","2","A","",""
"","","","","","html-keyboard-response","86","446600","0.0-70.0","054016E0CC444E54BC1FA85CEF54151D","0199d5ff-80bb-7e1a-ab40-8ea5c7f0ea69","0199d5ef-c7d4-7cab-a194-b2c3afbaf8e8","","null","<div style=""display: flex; justify-content: center; align-items: center;"">
                     <img src=""images/causal/causal_series_7/causal_series_7_b.png"" style=""width: 300px; height: 300px;"" />
                   </div>","null","7","2","B","",""
"","","","","","html-keyboard-response","87","452602","0.0-71.0","054016E0CC444E54BC1FA85CEF54151D","0199d5ff-80bb-7e1a-ab40-8ea5c7f0ea69","0199d5ef-c7d4-7cab-a194-b2c3afbaf8e8","","null","<div style=""display: flex; justify-content: center; align-items: center;"">
                     <img src=""images/causal/causal_series_7/causal_series_7_c.png"" style=""width: 300px; height: 300px;"" />
                   </div>","null","7","2","C","",""
"","","","","","html-button-response","88","453651","0.0-72.0","054016E0CC444E54BC1FA85CEF54151D","0199d5ff-80bb-7e1a-ab40-8ea5c7f0ea69","0199d5ef-c7d4-7cab-a194-b2c3afbaf8e8","","1049","
        <div style=""display: flex; justify-content: center; align-items: center;"">
          <img src=""images/red_deck_2.png"" style=""width: 300px; height: 300px; margin-right: 10px;"" />
          <img src=""images/blue_deck_1.png"" style=""width: 300px; height: 300px;"" />
        </div>","0","7","2","choice","0",""
"","","","","","html-keyboard-response","89","459653","0.0-73.0-0.0-0.0","054016E0CC444E54BC1FA85CEF54151D","0199d5ff-80bb-7e1a-ab40-8ea5c7f0ea69","0199d5ef-c7d4-7cab-a194-b2c3afbaf8e8","","null","<div style=""display: flex; justify-content: center; align-items: center;"">
                     <img src=""images/causal/causal_series_7/causal_series_7_d.png"" style=""width: 300px; height: 300px;"" />
                   </div>","null","7","2","D","",""
"","","","","","html-keyboard-response","90","465655","0.0-73.0-0.0-1.0","054016E0CC444E54BC1FA85CEF54151D","0199d5ff-80bb-7e1a-ab40-8ea5c7f0ea69","0199d5ef-c7d4-7cab-a194-b2c3afbaf8e8","","null","<div style=""display: flex; justify-content: center; align-items: center;"">
                     <img src=""images/causal/causal_series_7/causal_series_7_e.png"" style=""width: 300px; height: 300px;"" />
                   </div>","null","7","2","E","",""
"","","","","","html-keyboard-response","91","471656","0.0-73.0-0.0-2.0","054016E0CC444E54BC1FA85CEF54151D","0199d5ff-80bb-7e1a-ab40-8ea5c7f0ea69","0199d5ef-c7d4-7cab-a194-b2c3afbaf8e8","","null","<div style=""display: flex; justify-content: center; align-items: center;"">
                     <img src=""images/causal/causal_series_7/causal_series_7_f.png"" style=""width: 300px; height: 300px;"" />
                   </div>","null","7","2","F","",""
"","","","","","survey-likert","92","475201","0.0-74.0","054016E0CC444E54BC1FA85CEF54151D","0199d5ff-80bb-7e1a-ab40-8ea5c7f0ea69","0199d5ef-c7d4-7cab-a194-b2c3afbaf8e8","","3544","","{""Q0"":3}","7","2","surprise_rating","","[0]"
"","","","","","survey-likert","93","477001","0.0-75.0","054016E0CC444E54BC1FA85CEF54151D","0199d5ff-80bb-7e1a-ab40-8ea5c7f0ea69","0199d5ef-c7d4-7cab-a194-b2c3afbaf8e8","","1799","","{""Q0"":2}","7","2","enjoyment_rating","","[0]"
"","","","","","html-keyboard-response","94","483002","0.0-76.0","054016E0CC444E54BC1FA85CEF54151D","0199d5ff-80bb-7e1a-ab40-8ea5c7f0ea69","0199d5ef-c7d4-7cab-a194-b2c3afbaf8e8","","null","<div style=""display: flex; justify-content: center; align-items: center;"">
                     <img src=""images/other/blank.png"" style=""width: 300px; height: 300px;"" />
                   </div>","null","0","0","blank","",""
"","","","","","html-keyboard-response","95","489004","0.0-77.0","054016E0CC444E54BC1FA85CEF54151D","0199d5ff-80bb-7e1a-ab40-8ea5c7f0ea69","0199d5ef-c7d4-7cab-a194-b2c3afbaf8e8","","null","<div style=""display: flex; justify-content: center; align-items: center;"">
                     <img src=""images/causal/causal_series_6/causal_series_6_a.png"" style=""width: 300px; height: 300px;"" />
                   </div>","null","6","1","A","",""
"","","","","","html-keyboard-response","96","495006","0.0-78.0","054016E0CC444E54BC1FA85CEF54151D","0199d5ff-80bb-7e1a-ab40-8ea5c7f0ea69","0199d5ef-c7d4-7cab-a194-b2c3afbaf8e8","","null","<div style=""display: flex; justify-content: center; align-items: center;"">
                     <img src=""images/causal/causal_series_6/causal_series_6_b.png"" style=""width: 300px; height: 300px;"" />
                   </div>","null","6","1","B","",""
"","","","","","html-keyboard-response","97","501008","0.0-79.0","054016E0CC444E54BC1FA85CEF54151D","0199d5ff-80bb-7e1a-ab40-8ea5c7f0ea69","0199d5ef-c7d4-7cab-a194-b2c3afbaf8e8","","null","<div style=""display: flex; justify-content: center; align-items: center;"">
                     <img src=""images/causal/causal_series_6/causal_series_6_c.png"" style=""width: 300px; height: 300px;"" />
                   </div>","null","6","1","C","",""
"","","","","","html-button-response","98","502772","0.0-80.0","054016E0CC444E54BC1FA85CEF54151D","0199d5ff-80bb-7e1a-ab40-8ea5c7f0ea69","0199d5ef-c7d4-7cab-a194-b2c3afbaf8e8","","1763","
        <div style=""display: flex; justify-content: center; align-items: center;"">
          <img src=""images/red_deck_2.png"" style=""width: 300px; height: 300px; margin-right: 10px;"" />
          <img src=""images/blue_deck_1.png"" style=""width: 300px; height: 300px;"" />
        </div>","0","6","1","choice","0",""
"","","","","","html-keyboard-response","99","508774","0.0-81.0-0.0-0.0","054016E0CC444E54BC1FA85CEF54151D","0199d5ff-80bb-7e1a-ab40-8ea5c7f0ea69","0199d5ef-c7d4-7cab-a194-b2c3afbaf8e8","","null","<div style=""display: flex; justify-content: center; align-items: center;"">
                     <img src=""images/causal/causal_series_6/causal_series_6_d.png"" style=""width: 300px; height: 300px;"" />
                   </div>","null","6","1","D","",""
"","","","","","html-keyboard-response","100","514775","0.0-81.0-0.0-1.0","054016E0CC444E54BC1FA85CEF54151D","0199d5ff-80bb-7e1a-ab40-8ea5c7f0ea69","0199d5ef-c7d4-7cab-a194-b2c3afbaf8e8","","null","<div style=""display: flex; justify-content: center; align-items: center;"">
                     <img src=""images/causal/causal_series_6/causal_series_6_e.png"" style=""width: 300px; height: 300px;"" />
                   </div>","null","6","1","E","",""
"","","","","","html-keyboard-response","101","520777","0.0-81.0-0.0-2.0","054016E0CC444E54BC1FA85CEF54151D","0199d5ff-80bb-7e1a-ab40-8ea5c7f0ea69","0199d5ef-c7d4-7cab-a194-b2c3afbaf8e8","","null","<div style=""display: flex; justify-content: center; align-items: center;"">
                     <img src=""images/causal/causal_series_6/causal_series_6_f.png"" style=""width: 300px; height: 300px;"" />
                   </div>","null","6","1","F","",""
"","","","","","survey-likert","102","525072","0.0-82.0","054016E0CC444E54BC1FA85CEF54151D","0199d5ff-80bb-7e1a-ab40-8ea5c7f0ea69","0199d5ef-c7d4-7cab-a194-b2c3afbaf8e8","","4295","","{""Q0"":0}","6","1","surprise_rating","","[0]"
"","","","","","survey-likert","103","527423","0.0-83.0","054016E0CC444E54BC1FA85CEF54151D","0199d5ff-80bb-7e1a-ab40-8ea5c7f0ea69","0199d5ef-c7d4-7cab-a194-b2c3afbaf8e8","","2350","","{""Q0"":2}","6","1","enjoyment_rating","","[0]"
"","","","","","html-keyboard-response","104","533424","0.0-84.0","054016E0CC444E54BC1FA85CEF54151D","0199d5ff-80bb-7e1a-ab40-8ea5c7f0ea69","0199d5ef-c7d4-7cab-a194-b2c3afbaf8e8","","null","<div style=""display: flex; justify-content: center; align-items: center;"">
                     <img src=""images/other/blank.png"" style=""width: 300px; height: 300px;"" />
                   </div>","null","0","0","blank","",""
"","","","","","html-keyboard-response","105","539427","0.0-85.0","054016E0CC444E54BC1FA85CEF54151D","0199d5ff-80bb-7e1a-ab40-8ea5c7f0ea69","0199d5ef-c7d4-7cab-a194-b2c3afbaf8e8","","null","<div style=""display: flex; justify-content: center; align-items: center;"">
                     <img src=""images/causal/causal_series_9/causal_series_9_a.png"" style=""width: 300px; height: 300px;"" />
                   </div>","null","9","2","A","",""
"","","","","","html-keyboard-response","106","545430","0.0-86.0","054016E0CC444E54BC1FA85CEF54151D","0199d5ff-80bb-7e1a-ab40-8ea5c7f0ea69","0199d5ef-c7d4-7cab-a194-b2c3afbaf8e8","","null","<div style=""display: flex; justify-content: center; align-items: center;"">
                     <img src=""images/causal/causal_series_9/causal_series_9_b.png"" style=""width: 300px; height: 300px;"" />
                   </div>","null","9","2","B","",""
"","","","","","html-keyboard-response","107","551432","0.0-87.0","054016E0CC444E54BC1FA85CEF54151D","0199d5ff-80bb-7e1a-ab40-8ea5c7f0ea69","0199d5ef-c7d4-7cab-a194-b2c3afbaf8e8","","null","<div style=""display: flex; justify-content: center; align-items: center;"">
                     <img src=""images/causal/causal_series_9/causal_series_9_c.png"" style=""width: 300px; height: 300px;"" />
                   </div>","null","9","2","C","",""
"","","","","","html-button-response","108","552210","0.0-88.0","054016E0CC444E54BC1FA85CEF54151D","0199d5ff-80bb-7e1a-ab40-8ea5c7f0ea69","0199d5ef-c7d4-7cab-a194-b2c3afbaf8e8","","778","
        <div style=""display: flex; justify-content: center; align-items: center;"">
          <img src=""images/red_deck_2.png"" style=""width: 300px; height: 300px; margin-right: 10px;"" />
          <img src=""images/blue_deck_1.png"" style=""width: 300px; height: 300px;"" />
        </div>","0","9","2","choice","0",""
"","","","","","html-keyboard-response","109","558213","0.0-89.0-0.0-0.0","054016E0CC444E54BC1FA85CEF54151D","0199d5ff-80bb-7e1a-ab40-8ea5c7f0ea69","0199d5ef-c7d4-7cab-a194-b2c3afbaf8e8","","null","<div style=""display: flex; justify-content: center; align-items: center;"">
                     <img src=""images/causal/causal_series_9/causal_series_9_d.png"" style=""width: 300px; height: 300px;"" />
                   </div>","null","9","2","D","",""
"","","","","","html-keyboard-response","110","564215","0.0-89.0-0.0-1.0","054016E0CC444E54BC1FA85CEF54151D","0199d5ff-80bb-7e1a-ab40-8ea5c7f0ea69","0199d5ef-c7d4-7cab-a194-b2c3afbaf8e8","","null","<div style=""display: flex; justify-content: center; align-items: center;"">
                     <img src=""images/causal/causal_series_9/causal_series_9_e.png"" style=""width: 300px; height: 300px;"" />
                   </div>","null","9","2","E","",""
"","","","","","html-keyboard-response","111","570217","0.0-89.0-0.0-2.0","054016E0CC444E54BC1FA85CEF54151D","0199d5ff-80bb-7e1a-ab40-8ea5c7f0ea69","0199d5ef-c7d4-7cab-a194-b2c3afbaf8e8","","null","<div style=""display: flex; justify-content: center; align-items: center;"">
                     <img src=""images/causal/causal_series_9/causal_series_9_f.png"" style=""width: 300px; height: 300px;"" />
                   </div>","null","9","2","F","",""
"","","","","","survey-likert","112","572793","0.0-90.0","054016E0CC444E54BC1FA85CEF54151D","0199d5ff-80bb-7e1a-ab40-8ea5c7f0ea69","0199d5ef-c7d4-7cab-a194-b2c3afbaf8e8","","2576","","{""Q0"":0}","9","2","surprise_rating","","[0]"
"","","","","","survey-likert","113","583281","0.0-91.0","054016E0CC444E54BC1FA85CEF54151D","0199d5ff-80bb-7e1a-ab40-8ea5c7f0ea69","0199d5ef-c7d4-7cab-a194-b2c3afbaf8e8","","10486","","{""Q0"":0}","9","2","enjoyment_rating","","[0]"
"","","","","","html-keyboard-response","114","589283","0.0-92.0","054016E0CC444E54BC1FA85CEF54151D","0199d5ff-80bb-7e1a-ab40-8ea5c7f0ea69","0199d5ef-c7d4-7cab-a194-b2c3afbaf8e8","","null","<div style=""display: flex; justify-content: center; align-items: center;"">
                     <img src=""images/other/blank.png"" style=""width: 300px; height: 300px;"" />
                   </div>","null","0","0","blank","",""
"","","","","","html-keyboard-response","115","595285","0.0-93.0","054016E0CC444E54BC1FA85CEF54151D","0199d5ff-80bb-7e1a-ab40-8ea5c7f0ea69","0199d5ef-c7d4-7cab-a194-b2c3afbaf8e8","","null","<div style=""display: flex; justify-content: center; align-items: center;"">
                     <img src=""images/causal/causal_series_2/causal_series_2_a.png"" style=""width: 300px; height: 300px;"" />
                   </div>","null","2","1","A","",""
"","","","","","html-keyboard-response","116","601288","0.0-94.0","054016E0CC444E54BC1FA85CEF54151D","0199d5ff-80bb-7e1a-ab40-8ea5c7f0ea69","0199d5ef-c7d4-7cab-a194-b2c3afbaf8e8","","null","<div style=""display: flex; justify-content: center; align-items: center;"">
                     <img src=""images/causal/causal_series_2/causal_series_2_b.png"" style=""width: 300px; height: 300px;"" />
                   </div>","null","2","1","B","",""
"","","","","","html-keyboard-response","117","607288","0.0-95.0","054016E0CC444E54BC1FA85CEF54151D","0199d5ff-80bb-7e1a-ab40-8ea5c7f0ea69","0199d5ef-c7d4-7cab-a194-b2c3afbaf8e8","","null","<div style=""display: flex; justify-content: center; align-items: center;"">
                     <img src=""images/causal/causal_series_2/causal_series_2_c.png"" style=""width: 300px; height: 300px;"" />
                   </div>","null","2","1","C","",""
"","","","","","html-button-response","118","608418","0.0-96.0","054016E0CC444E54BC1FA85CEF54151D","0199d5ff-80bb-7e1a-ab40-8ea5c7f0ea69","0199d5ef-c7d4-7cab-a194-b2c3afbaf8e8","","1128","
        <div style=""display: flex; justify-content: center; align-items: center;"">
          <img src=""images/red_deck_2.png"" style=""width: 300px; height: 300px; margin-right: 10px;"" />
          <img src=""images/blue_deck_1.png"" style=""width: 300px; height: 300px;"" />
        </div>","0","2","1","choice","0",""
"","","","","","html-keyboard-response","119","614419","0.0-97.0-0.0-0.0","054016E0CC444E54BC1FA85CEF54151D","0199d5ff-80bb-7e1a-ab40-8ea5c7f0ea69","0199d5ef-c7d4-7cab-a194-b2c3afbaf8e8","","null","<div style=""display: flex; justify-content: center; align-items: center;"">
                     <img src=""images/causal/causal_series_2/causal_series_2_d.png"" style=""width: 300px; height: 300px;"" />
                   </div>","null","2","1","D","",""
"","","","","","html-keyboard-response","120","620421","0.0-97.0-0.0-1.0","054016E0CC444E54BC1FA85CEF54151D","0199d5ff-80bb-7e1a-ab40-8ea5c7f0ea69","0199d5ef-c7d4-7cab-a194-b2c3afbaf8e8","","null","<div style=""display: flex; justify-content: center; align-items: center;"">
                     <img src=""images/causal/causal_series_2/causal_series_2_e.png"" style=""width: 300px; height: 300px;"" />
                   </div>","null","2","1","E","",""
"","","","","","html-keyboard-response","121","626423","0.0-97.0-0.0-2.0","054016E0CC444E54BC1FA85CEF54151D","0199d5ff-80bb-7e1a-ab40-8ea5c7f0ea69","0199d5ef-c7d4-7cab-a194-b2c3afbaf8e8","","null","<div style=""display: flex; justify-content: center; align-items: center;"">
                     <img src=""images/causal/causal_series_2/causal_series_2_f.png"" style=""width: 300px; height: 300px;"" />
                   </div>","null","2","1","F","",""
"","","","","","survey-likert","122","630783","0.0-98.0","054016E0CC444E54BC1FA85CEF54151D","0199d5ff-80bb-7e1a-ab40-8ea5c7f0ea69","0199d5ef-c7d4-7cab-a194-b2c3afbaf8e8","","4360","","{""Q0"":3}","2","1","surprise_rating","","[0]"
"","","","","","survey-likert","123","632470","0.0-99.0","054016E0CC444E54BC1FA85CEF54151D","0199d5ff-80bb-7e1a-ab40-8ea5c7f0ea69","0199d5ef-c7d4-7cab-a194-b2c3afbaf8e8","","1686","","{""Q0"":0}","2","1","enjoyment_rating","","[0]"
"","","","","","html-keyboard-response","124","638475","0.0-100.0","054016E0CC444E54BC1FA85CEF54151D","0199d5ff-80bb-7e1a-ab40-8ea5c7f0ea69","0199d5ef-c7d4-7cab-a194-b2c3afbaf8e8","","null","<div style=""display: flex; justify-content: center; align-items: center;"">
                     <img src=""images/other/blank.png"" style=""width: 300px; height: 300px;"" />
                   </div>","null","0","0","blank","",""
"","","","","","html-keyboard-response","125","644476","0.0-101.0","054016E0CC444E54BC1FA85CEF54151D","0199d5ff-80bb-7e1a-ab40-8ea5c7f0ea69","0199d5ef-c7d4-7cab-a194-b2c3afbaf8e8","","null","<div style=""display: flex; justify-content: center; align-items: center;"">
                     <img src=""images/causal/causal_series_8/causal_series_8_a.png"" style=""width: 300px; height: 300px;"" />
                   </div>","null","8","1","A","",""
"","","","","","html-keyboard-response","126","650478","0.0-102.0","054016E0CC444E54BC1FA85CEF54151D","0199d5ff-80bb-7e1a-ab40-8ea5c7f0ea69","0199d5ef-c7d4-7cab-a194-b2c3afbaf8e8","","null","<div style=""display: flex; justify-content: center; align-items: center;"">
                     <img src=""images/causal/causal_series_8/causal_series_8_b.png"" style=""width: 300px; height: 300px;"" />
                   </div>","null","8","1","B","",""
"","","","","","html-keyboard-response","127","656479","0.0-103.0","054016E0CC444E54BC1FA85CEF54151D","0199d5ff-80bb-7e1a-ab40-8ea5c7f0ea69","0199d5ef-c7d4-7cab-a194-b2c3afbaf8e8","","null","<div style=""display: flex; justify-content: center; align-items: center;"">
                     <img src=""images/causal/causal_series_8/causal_series_8_c.png"" style=""width: 300px; height: 300px;"" />
                   </div>","null","8","1","C","",""
"","","","","","html-button-response","128","658069","0.0-104.0","054016E0CC444E54BC1FA85CEF54151D","0199d5ff-80bb-7e1a-ab40-8ea5c7f0ea69","0199d5ef-c7d4-7cab-a194-b2c3afbaf8e8","","1589","
        <div style=""display: flex; justify-content: center; align-items: center;"">
          <img src=""images/red_deck_2.png"" style=""width: 300px; height: 300px; margin-right: 10px;"" />
          <img src=""images/blue_deck_1.png"" style=""width: 300px; height: 300px;"" />
        </div>","0","8","1","choice","0",""
"","","","","","html-keyboard-response","129","664070","0.0-105.0-0.0-0.0","054016E0CC444E54BC1FA85CEF54151D","0199d5ff-80bb-7e1a-ab40-8ea5c7f0ea69","0199d5ef-c7d4-7cab-a194-b2c3afbaf8e8","","null","<div style=""display: flex; justify-content: center; align-items: center;"">
                     <img src=""images/causal/causal_series_8/causal_series_8_d.png"" style=""width: 300px; height: 300px;"" />
                   </div>","null","8","1","D","",""
"","","","","","html-keyboard-response","130","670072","0.0-105.0-0.0-1.0","054016E0CC444E54BC1FA85CEF54151D","0199d5ff-80bb-7e1a-ab40-8ea5c7f0ea69","0199d5ef-c7d4-7cab-a194-b2c3afbaf8e8","","null","<div style=""display: flex; justify-content: center; align-items: center;"">
                     <img src=""images/causal/causal_series_8/causal_series_8_e.png"" style=""width: 300px; height: 300px;"" />
                   </div>","null","8","1","E","",""
"","","","","","html-keyboard-response","131","676074","0.0-105.0-0.0-2.0","054016E0CC444E54BC1FA85CEF54151D","0199d5ff-80bb-7e1a-ab40-8ea5c7f0ea69","0199d5ef-c7d4-7cab-a194-b2c3afbaf8e8","","null","<div style=""display: flex; justify-content: center; align-items: center;"">
                     <img src=""images/causal/causal_series_8/causal_series_8_f.png"" style=""width: 300px; height: 300px;"" />
                   </div>","null","8","1","F","",""
"","","","","","survey-likert","132","680771","0.0-106.0","054016E0CC444E54BC1FA85CEF54151D","0199d5ff-80bb-7e1a-ab40-8ea5c7f0ea69","0199d5ef-c7d4-7cab-a194-b2c3afbaf8e8","","4696","","{""Q0"":0}","8","1","surprise_rating","","[0]"
"","","","","","survey-likert","133","682920","0.0-107.0","054016E0CC444E54BC1FA85CEF54151D","0199d5ff-80bb-7e1a-ab40-8ea5c7f0ea69","0199d5ef-c7d4-7cab-a194-b2c3afbaf8e8","","2147","","{""Q0"":1}","8","1","enjoyment_rating","","[0]"
"","","","","","html-keyboard-response","134","688921","0.0-108.0","054016E0CC444E54BC1FA85CEF54151D","0199d5ff-80bb-7e1a-ab40-8ea5c7f0ea69","0199d5ef-c7d4-7cab-a194-b2c3afbaf8e8","","null","<div style=""display: flex; justify-content: center; align-items: center;"">
                     <img src=""images/other/blank.png"" style=""width: 300px; height: 300px;"" />
                   </div>","null","0","0","blank","",""
"","","","","","html-keyboard-response","135","694924","0.0-109.0","054016E0CC444E54BC1FA85CEF54151D","0199d5ff-80bb-7e1a-ab40-8ea5c7f0ea69","0199d5ef-c7d4-7cab-a194-b2c3afbaf8e8","","null","<div style=""display: flex; justify-content: center; align-items: center;"">
                     <img src=""images/causal/causal_series_10/causal_series_10_a.png"" style=""width: 300px; height: 300px;"" />
                   </div>","null","10","1","A","",""
"","","","","","html-keyboard-response","136","700925","0.0-110.0","054016E0CC444E54BC1FA85CEF54151D","0199d5ff-80bb-7e1a-ab40-8ea5c7f0ea69","0199d5ef-c7d4-7cab-a194-b2c3afbaf8e8","","null","<div style=""display: flex; justify-content: center; align-items: center;"">
                     <img src=""images/causal/causal_series_10/causal_series_10_b.png"" style=""width: 300px; height: 300px;"" />
                   </div>","null","10","1","B","",""
"","","","","","html-keyboard-response","137","706927","0.0-111.0","054016E0CC444E54BC1FA85CEF54151D","0199d5ff-80bb-7e1a-ab40-8ea5c7f0ea69","0199d5ef-c7d4-7cab-a194-b2c3afbaf8e8","","null","<div style=""display: flex; justify-content: center; align-items: center;"">
                     <img src=""images/causal/causal_series_10/causal_series_10_c.png"" style=""width: 300px; height: 300px;"" />
                   </div>","null","10","1","C","",""
"","","","","","html-button-response","138","708007","0.0-112.0","054016E0CC444E54BC1FA85CEF54151D","0199d5ff-80bb-7e1a-ab40-8ea5c7f0ea69","0199d5ef-c7d4-7cab-a194-b2c3afbaf8e8","","1079","
        <div style=""display: flex; justify-content: center; align-items: center;"">
          <img src=""images/red_deck_2.png"" style=""width: 300px; height: 300px; margin-right: 10px;"" />
          <img src=""images/blue_deck_1.png"" style=""width: 300px; height: 300px;"" />
        </div>","1","10","1","choice","1",""
"","","","","","html-keyboard-response","139","714008","0.0-113.0-1.0-0.0","054016E0CC444E54BC1FA85CEF54151D","0199d5ff-80bb-7e1a-ab40-8ea5c7f0ea69","0199d5ef-c7d4-7cab-a194-b2c3afbaf8e8","","null","<div style=""display: flex; justify-content: center; align-items: center;"">
                     <img src=""images/semantic/semantic_series_10/semantic_series_10_d.png"" style=""width: 300px; height: 300px;"" />
                   </div>","null","10","1","D","",""
"","","","","","html-keyboard-response","140","720011","0.0-113.0-1.0-1.0","054016E0CC444E54BC1FA85CEF54151D","0199d5ff-80bb-7e1a-ab40-8ea5c7f0ea69","0199d5ef-c7d4-7cab-a194-b2c3afbaf8e8","","null","<div style=""display: flex; justify-content: center; align-items: center;"">
                     <img src=""images/semantic/semantic_series_10/semantic_series_10_e.png"" style=""width: 300px; height: 300px;"" />
                   </div>","null","10","1","E","",""
"","","","","","html-keyboard-response","141","726013","0.0-113.0-1.0-2.0","054016E0CC444E54BC1FA85CEF54151D","0199d5ff-80bb-7e1a-ab40-8ea5c7f0ea69","0199d5ef-c7d4-7cab-a194-b2c3afbaf8e8","","null","<div style=""display: flex; justify-content: center; align-items: center;"">
                     <img src=""images/semantic/semantic_series_10/semantic_series_10_f.png"" style=""width: 300px; height: 300px;"" />
                   </div>","null","10","1","F","",""
"","","","","","survey-likert","142","730311","0.0-114.0","054016E0CC444E54BC1FA85CEF54151D","0199d5ff-80bb-7e1a-ab40-8ea5c7f0ea69","0199d5ef-c7d4-7cab-a194-b2c3afbaf8e8","","4297","","{""Q0"":3}","10","1","surprise_rating","","[0]"
"","","","","","survey-likert","143","732893","0.0-115.0","054016E0CC444E54BC1FA85CEF54151D","0199d5ff-80bb-7e1a-ab40-8ea5c7f0ea69","0199d5ef-c7d4-7cab-a194-b2c3afbaf8e8","","2581","","{""Q0"":1}","10","1","enjoyment_rating","","[0]"
"","","","","","html-keyboard-response","144","738895","0.0-116.0","054016E0CC444E54BC1FA85CEF54151D","0199d5ff-80bb-7e1a-ab40-8ea5c7f0ea69","0199d5ef-c7d4-7cab-a194-b2c3afbaf8e8","","null","<div style=""display: flex; justify-content: center; align-items: center;"">
                     <img src=""images/other/blank.png"" style=""width: 300px; height: 300px;"" />
                   </div>","null","0","0","blank","",""
"","","","","","html-keyboard-response","145","744897","0.0-117.0","054016E0CC444E54BC1FA85CEF54151D","0199d5ff-80bb-7e1a-ab40-8ea5c7f0ea69","0199d5ef-c7d4-7cab-a194-b2c3afbaf8e8","","null","<div style=""display: flex; justify-content: center; align-items: center;"">
                     <img src=""images/causal/causal_series_4/causal_series_4_a.png"" style=""width: 300px; height: 300px;"" />
                   </div>","null","4","2","A","",""
"","","","","","html-keyboard-response","146","750899","0.0-118.0","054016E0CC444E54BC1FA85CEF54151D","0199d5ff-80bb-7e1a-ab40-8ea5c7f0ea69","0199d5ef-c7d4-7cab-a194-b2c3afbaf8e8","","null","<div style=""display: flex; justify-content: center; align-items: center;"">
                     <img src=""images/causal/causal_series_4/causal_series_4_b.png"" style=""width: 300px; height: 300px;"" />
                   </div>","null","4","2","B","",""
"","","","","","html-keyboard-response","147","756900","0.0-119.0","054016E0CC444E54BC1FA85CEF54151D","0199d5ff-80bb-7e1a-ab40-8ea5c7f0ea69","0199d5ef-c7d4-7cab-a194-b2c3afbaf8e8","","null","<div style=""display: flex; justify-content: center; align-items: center;"">
                     <img src=""images/causal/causal_series_4/causal_series_4_c.png"" style=""width: 300px; height: 300px;"" />
                   </div>","null","4","2","C","",""
"","","","","","html-button-response","148","757691","0.0-120.0","054016E0CC444E54BC1FA85CEF54151D","0199d5ff-80bb-7e1a-ab40-8ea5c7f0ea69","0199d5ef-c7d4-7cab-a194-b2c3afbaf8e8","","790","
        <div style=""display: flex; justify-content: center; align-items: center;"">
          <img src=""images/red_deck_2.png"" style=""width: 300px; height: 300px; margin-right: 10px;"" />
          <img src=""images/blue_deck_1.png"" style=""width: 300px; height: 300px;"" />
        </div>","0","4","2","choice","0",""
"","","","","","html-keyboard-response","149","763692","0.0-121.0-0.0-0.0","054016E0CC444E54BC1FA85CEF54151D","0199d5ff-80bb-7e1a-ab40-8ea5c7f0ea69","0199d5ef-c7d4-7cab-a194-b2c3afbaf8e8","","null","<div style=""display: flex; justify-content: center; align-items: center;"">
                     <img src=""images/causal/causal_series_4/causal_series_4_d.png"" style=""width: 300px; height: 300px;"" />
                   </div>","null","4","2","D","",""
"","","","","","html-keyboard-response","150","769695","0.0-121.0-0.0-1.0","054016E0CC444E54BC1FA85CEF54151D","0199d5ff-80bb-7e1a-ab40-8ea5c7f0ea69","0199d5ef-c7d4-7cab-a194-b2c3afbaf8e8","","null","<div style=""display: flex; justify-content: center; align-items: center;"">
                     <img src=""images/causal/causal_series_4/causal_series_4_e.png"" style=""width: 300px; height: 300px;"" />
                   </div>","null","4","2","E","",""
"","","","","","html-keyboard-response","151","775697","0.0-121.0-0.0-2.0","054016E0CC444E54BC1FA85CEF54151D","0199d5ff-80bb-7e1a-ab40-8ea5c7f0ea69","0199d5ef-c7d4-7cab-a194-b2c3afbaf8e8","","null","<div style=""display: flex; justify-content: center; align-items: center;"">
                     <img src=""images/causal/causal_series_4/causal_series_4_f.png"" style=""width: 300px; height: 300px;"" />
                   </div>","null","4","2","F","",""
"","","","","","survey-likert","152","782865","0.0-122.0","054016E0CC444E54BC1FA85CEF54151D","0199d5ff-80bb-7e1a-ab40-8ea5c7f0ea69","0199d5ef-c7d4-7cab-a194-b2c3afbaf8e8","","7167","","{""Q0"":4}","4","2","surprise_rating","","[0]"
"","","","","","survey-likert","153","784932","0.0-123.0","054016E0CC444E54BC1FA85CEF54151D","0199d5ff-80bb-7e1a-ab40-8ea5c7f0ea69","0199d5ef-c7d4-7cab-a194-b2c3afbaf8e8","","2066","","{""Q0"":1}","4","2","enjoyment_rating","","[0]"
"","","","","","html-keyboard-response","154","790934","0.0-124.0","054016E0CC444E54BC1FA85CEF54151D","0199d5ff-80bb-7e1a-ab40-8ea5c7f0ea69","0199d5ef-c7d4-7cab-a194-b2c3afbaf8e8","","null","<div style=""display: flex; justify-content: center; align-items: center;"">
                     <img src=""images/other/blank.png"" style=""width: 300px; height: 300px;"" />
                   </div>","null","0","0","blank","",""
"","","","","","html-keyboard-response","155","796936","0.0-125.0","054016E0CC444E54BC1FA85CEF54151D","0199d5ff-80bb-7e1a-ab40-8ea5c7f0ea69","0199d5ef-c7d4-7cab-a194-b2c3afbaf8e8","","null","<div style=""display: flex; justify-content: center; align-items: center;"">
                     <img src=""images/causal/causal_series_5/causal_series_5_a.png"" style=""width: 300px; height: 300px;"" />
                   </div>","null","5","2","A","",""
"","","","","","html-keyboard-response","156","802938","0.0-126.0","054016E0CC444E54BC1FA85CEF54151D","0199d5ff-80bb-7e1a-ab40-8ea5c7f0ea69","0199d5ef-c7d4-7cab-a194-b2c3afbaf8e8","","null","<div style=""display: flex; justify-content: center; align-items: center;"">
                     <img src=""images/causal/causal_series_5/causal_series_5_b.png"" style=""width: 300px; height: 300px;"" />
                   </div>","null","5","2","B","",""
"","","","","","html-keyboard-response","157","808940","0.0-127.0","054016E0CC444E54BC1FA85CEF54151D","0199d5ff-80bb-7e1a-ab40-8ea5c7f0ea69","0199d5ef-c7d4-7cab-a194-b2c3afbaf8e8","","null","<div style=""display: flex; justify-content: center; align-items: center;"">
                     <img src=""images/causal/causal_series_5/causal_series_5_c.png"" style=""width: 300px; height: 300px;"" />
                   </div>","null","5","2","C","",""
"","","","","","html-button-response","158","810270","0.0-128.0","054016E0CC444E54BC1FA85CEF54151D","0199d5ff-80bb-7e1a-ab40-8ea5c7f0ea69","0199d5ef-c7d4-7cab-a194-b2c3afbaf8e8","","1329","
        <div style=""display: flex; justify-content: center; align-items: center;"">
          <img src=""images/red_deck_2.png"" style=""width: 300px; height: 300px; margin-right: 10px;"" />
          <img src=""images/blue_deck_1.png"" style=""width: 300px; height: 300px;"" />
        </div>","0","5","2","choice","0",""
"","","","","","html-keyboard-response","159","816272","0.0-129.0-0.0-0.0","054016E0CC444E54BC1FA85CEF54151D","0199d5ff-80bb-7e1a-ab40-8ea5c7f0ea69","0199d5ef-c7d4-7cab-a194-b2c3afbaf8e8","","null","<div style=""display: flex; justify-content: center; align-items: center;"">
                     <img src=""images/causal/causal_series_5/causal_series_5_d.png"" style=""width: 300px; height: 300px;"" />
                   </div>","null","5","2","D","",""
"","","","","","html-keyboard-response","160","822274","0.0-129.0-0.0-1.0","054016E0CC444E54BC1FA85CEF54151D","0199d5ff-80bb-7e1a-ab40-8ea5c7f0ea69","0199d5ef-c7d4-7cab-a194-b2c3afbaf8e8","","null","<div style=""display: flex; justify-content: center; align-items: center;"">
                     <img src=""images/causal/causal_series_5/causal_series_5_e.png"" style=""width: 300px; height: 300px;"" />
                   </div>","null","5","2","E","",""
"","","","","","html-keyboard-response","161","828276","0.0-129.0-0.0-2.0","054016E0CC444E54BC1FA85CEF54151D","0199d5ff-80bb-7e1a-ab40-8ea5c7f0ea69","0199d5ef-c7d4-7cab-a194-b2c3afbaf8e8","","null","<div style=""display: flex; justify-content: center; align-items: center;"">
                     <img src=""images/causal/causal_series_5/causal_series_5_f.png"" style=""width: 300px; height: 300px;"" />
                   </div>","null","5","2","F","",""
"","","","","","survey-likert","162","831436","0.0-130.0","054016E0CC444E54BC1FA85CEF54151D","0199d5ff-80bb-7e1a-ab40-8ea5c7f0ea69","0199d5ef-c7d4-7cab-a194-b2c3afbaf8e8","","3160","","{""Q0"":3}","5","2","surprise_rating","","[0]"
"","","","","","survey-likert","163","834439","0.0-131.0","054016E0CC444E54BC1FA85CEF54151D","0199d5ff-80bb-7e1a-ab40-8ea5c7f0ea69","0199d5ef-c7d4-7cab-a194-b2c3afbaf8e8","","3002","","{""Q0"":3}","5","2","enjoyment_rating","","[0]"
"","","","","","html-keyboard-response","164","840440","0.0-132.0","054016E0CC444E54BC1FA85CEF54151D","0199d5ff-80bb-7e1a-ab40-8ea5c7f0ea69","0199d5ef-c7d4-7cab-a194-b2c3afbaf8e8","","null","<div style=""display: flex; justify-content: center; align-items: center;"">
                     <img src=""images/other/blank.png"" style=""width: 300px; height: 300px;"" />
                   </div>","null","0","0","blank","",""
"","","","","","html-keyboard-response","165","846442","0.0-133.0","054016E0CC444E54BC1FA85CEF54151D","0199d5ff-80bb-7e1a-ab40-8ea5c7f0ea69","0199d5ef-c7d4-7cab-a194-b2c3afbaf8e8","","null","<div style=""display: flex; justify-content: center; align-items: center;"">
                     <img src=""images/causal/causal_series_7/causal_series_7_a.png"" style=""width: 300px; height: 300px;"" />
                   </div>","null","7","1","A","",""
"","","","","","html-keyboard-response","166","852443","0.0-134.0","054016E0CC444E54BC1FA85CEF54151D","0199d5ff-80bb-7e1a-ab40-8ea5c7f0ea69","0199d5ef-c7d4-7cab-a194-b2c3afbaf8e8","","null","<div style=""display: flex; justify-content: center; align-items: center;"">
                     <img src=""images/causal/causal_series_7/causal_series_7_b.png"" style=""width: 300px; height: 300px;"" />
                   </div>","null","7","1","B","",""
"","","","","","html-keyboard-response","167","858445","0.0-135.0","054016E0CC444E54BC1FA85CEF54151D","0199d5ff-80bb-7e1a-ab40-8ea5c7f0ea69","0199d5ef-c7d4-7cab-a194-b2c3afbaf8e8","","null","<div style=""display: flex; justify-content: center; align-items: center;"">
                     <img src=""images/causal/causal_series_7/causal_series_7_c.png"" style=""width: 300px; height: 300px;"" />
                   </div>","null","7","1","C","",""
"","","","","","html-button-response","168","859972","0.0-136.0","054016E0CC444E54BC1FA85CEF54151D","0199d5ff-80bb-7e1a-ab40-8ea5c7f0ea69","0199d5ef-c7d4-7cab-a194-b2c3afbaf8e8","","1526","
        <div style=""display: flex; justify-content: center; align-items: center;"">
          <img src=""images/red_deck_2.png"" style=""width: 300px; height: 300px; margin-right: 10px;"" />
          <img src=""images/blue_deck_1.png"" style=""width: 300px; height: 300px;"" />
        </div>","1","7","1","choice","1",""
"","","","","","html-keyboard-response","169","865973","0.0-137.0-1.0-0.0","054016E0CC444E54BC1FA85CEF54151D","0199d5ff-80bb-7e1a-ab40-8ea5c7f0ea69","0199d5ef-c7d4-7cab-a194-b2c3afbaf8e8","","null","<div style=""display: flex; justify-content: center; align-items: center;"">
                     <img src=""images/semantic/semantic_series_7/semantic_series_7_d.png"" style=""width: 300px; height: 300px;"" />
                   </div>","null","7","1","D","",""
"","","","","","html-keyboard-response","170","871975","0.0-137.0-1.0-1.0","054016E0CC444E54BC1FA85CEF54151D","0199d5ff-80bb-7e1a-ab40-8ea5c7f0ea69","0199d5ef-c7d4-7cab-a194-b2c3afbaf8e8","","null","<div style=""display: flex; justify-content: center; align-items: center;"">
                     <img src=""images/semantic/semantic_series_7/semantic_series_7_e.png"" style=""width: 300px; height: 300px;"" />
                   </div>","null","7","1","E","",""
"","","","","","html-keyboard-response","171","877977","0.0-137.0-1.0-2.0","054016E0CC444E54BC1FA85CEF54151D","0199d5ff-80bb-7e1a-ab40-8ea5c7f0ea69","0199d5ef-c7d4-7cab-a194-b2c3afbaf8e8","","null","<div style=""display: flex; justify-content: center; align-items: center;"">
                     <img src=""images/semantic/semantic_series_7/semantic_series_7_f.png"" style=""width: 300px; height: 300px;"" />
                   </div>","null","7","1","F","",""
"","","","","","survey-likert","172","881543","0.0-138.0","054016E0CC444E54BC1FA85CEF54151D","0199d5ff-80bb-7e1a-ab40-8ea5c7f0ea69","0199d5ef-c7d4-7cab-a194-b2c3afbaf8e8","","3566","","{""Q0"":3}","7","1","surprise_rating","","[0]"
"","","","","","survey-likert","173","885157","0.0-139.0","054016E0CC444E54BC1FA85CEF54151D","0199d5ff-80bb-7e1a-ab40-8ea5c7f0ea69","0199d5ef-c7d4-7cab-a194-b2c3afbaf8e8","","3612","","{""Q0"":2}","7","1","enjoyment_rating","","[0]"
"","","","","","html-keyboard-response","174","891159","0.0-140.0","054016E0CC444E54BC1FA85CEF54151D","0199d5ff-80bb-7e1a-ab40-8ea5c7f0ea69","0199d5ef-c7d4-7cab-a194-b2c3afbaf8e8","","null","<div style=""display: flex; justify-content: center; align-items: center;"">
                     <img src=""images/other/blank.png"" style=""width: 300px; height: 300px;"" />
                   </div>","null","0","0","blank","",""
"","","","","","html-keyboard-response","175","897161","0.0-141.0","054016E0CC444E54BC1FA85CEF54151D","0199d5ff-80bb-7e1a-ab40-8ea5c7f0ea69","0199d5ef-c7d4-7cab-a194-b2c3afbaf8e8","","null","<div style=""display: flex; justify-content: center; align-items: center;"">
                     <img src=""images/causal/causal_series_2/causal_series_2_a.png"" style=""width: 300px; height: 300px;"" />
                   </div>","null","2","2","A","",""
"","","","","","html-keyboard-response","176","903162","0.0-142.0","054016E0CC444E54BC1FA85CEF54151D","0199d5ff-80bb-7e1a-ab40-8ea5c7f0ea69","0199d5ef-c7d4-7cab-a194-b2c3afbaf8e8","","null","<div style=""display: flex; justify-content: center; align-items: center;"">
                     <img src=""images/causal/causal_series_2/causal_series_2_b.png"" style=""width: 300px; height: 300px;"" />
                   </div>","null","2","2","B","",""
"","","","","","html-keyboard-response","177","909163","0.0-143.0","054016E0CC444E54BC1FA85CEF54151D","0199d5ff-80bb-7e1a-ab40-8ea5c7f0ea69","0199d5ef-c7d4-7cab-a194-b2c3afbaf8e8","","null","<div style=""display: flex; justify-content: center; align-items: center;"">
                     <img src=""images/causal/causal_series_2/causal_series_2_c.png"" style=""width: 300px; height: 300px;"" />
                   </div>","null","2","2","C","",""
"","","","","","html-button-response","178","910879","0.0-144.0","054016E0CC444E54BC1FA85CEF54151D","0199d5ff-80bb-7e1a-ab40-8ea5c7f0ea69","0199d5ef-c7d4-7cab-a194-b2c3afbaf8e8","","1715","
        <div style=""display: flex; justify-content: center; align-items: center;"">
          <img src=""images/red_deck_2.png"" style=""width: 300px; height: 300px; margin-right: 10px;"" />
          <img src=""images/blue_deck_1.png"" style=""width: 300px; height: 300px;"" />
        </div>","0","2","2","choice","0",""
"","","","","","html-keyboard-response","179","916881","0.0-145.0-0.0-0.0","054016E0CC444E54BC1FA85CEF54151D","0199d5ff-80bb-7e1a-ab40-8ea5c7f0ea69","0199d5ef-c7d4-7cab-a194-b2c3afbaf8e8","","null","<div style=""display: flex; justify-content: center; align-items: center;"">
                     <img src=""images/causal/causal_series_2/causal_series_2_d.png"" style=""width: 300px; height: 300px;"" />
                   </div>","null","2","2","D","",""
"","","","","","html-keyboard-response","180","922884","0.0-145.0-0.0-1.0","054016E0CC444E54BC1FA85CEF54151D","0199d5ff-80bb-7e1a-ab40-8ea5c7f0ea69","0199d5ef-c7d4-7cab-a194-b2c3afbaf8e8","","null","<div style=""display: flex; justify-content: center; align-items: center;"">
                     <img src=""images/causal/causal_series_2/causal_series_2_e.png"" style=""width: 300px; height: 300px;"" />
                   </div>","null","2","2","E","",""
"","","","","","html-keyboard-response","181","928885","0.0-145.0-0.0-2.0","054016E0CC444E54BC1FA85CEF54151D","0199d5ff-80bb-7e1a-ab40-8ea5c7f0ea69","0199d5ef-c7d4-7cab-a194-b2c3afbaf8e8","","null","<div style=""display: flex; justify-content: center; align-items: center;"">
                     <img src=""images/causal/causal_series_2/causal_series_2_f.png"" style=""width: 300px; height: 300px;"" />
                   </div>","null","2","2","F","",""
"","","","","","survey-likert","182","931730","0.0-146.0","054016E0CC444E54BC1FA85CEF54151D","0199d5ff-80bb-7e1a-ab40-8ea5c7f0ea69","0199d5ef-c7d4-7cab-a194-b2c3afbaf8e8","","2844","","{""Q0"":0}","2","2","surprise_rating","","[0]"
"","","","","","survey-likert","183","935497","0.0-147.0","054016E0CC444E54BC1FA85CEF54151D","0199d5ff-80bb-7e1a-ab40-8ea5c7f0ea69","0199d5ef-c7d4-7cab-a194-b2c3afbaf8e8","","3766","","{""Q0"":2}","2","2","enjoyment_rating","","[0]"
"","","","","","html-keyboard-response","184","941498","0.0-148.0","054016E0CC444E54BC1FA85CEF54151D","0199d5ff-80bb-7e1a-ab40-8ea5c7f0ea69","0199d5ef-c7d4-7cab-a194-b2c3afbaf8e8","","null","<div style=""display: flex; justify-content: center; align-items: center;"">
                     <img src=""images/other/blank.png"" style=""width: 300px; height: 300px;"" />
                   </div>","null","0","0","blank","",""
"","","","","","html-keyboard-response","185","947501","0.0-149.0","054016E0CC444E54BC1FA85CEF54151D","0199d5ff-80bb-7e1a-ab40-8ea5c7f0ea69","0199d5ef-c7d4-7cab-a194-b2c3afbaf8e8","","null","<div style=""display: flex; justify-content: center; align-items: center;"">
                     <img src=""images/causal/causal_series_5/causal_series_5_a.png"" style=""width: 300px; height: 300px;"" />
                   </div>","null","5","1","A","",""
"","","","","","html-keyboard-response","186","953503","0.0-150.0","054016E0CC444E54BC1FA85CEF54151D","0199d5ff-80bb-7e1a-ab40-8ea5c7f0ea69","0199d5ef-c7d4-7cab-a194-b2c3afbaf8e8","","null","<div style=""display: flex; justify-content: center; align-items: center;"">
                     <img src=""images/causal/causal_series_5/causal_series_5_b.png"" style=""width: 300px; height: 300px;"" />
                   </div>","null","5","1","B","",""
"","","","","","html-keyboard-response","187","959505","0.0-151.0","054016E0CC444E54BC1FA85CEF54151D","0199d5ff-80bb-7e1a-ab40-8ea5c7f0ea69","0199d5ef-c7d4-7cab-a194-b2c3afbaf8e8","","null","<div style=""display: flex; justify-content: center; align-items: center;"">
                     <img src=""images/causal/causal_series_5/causal_series_5_c.png"" style=""width: 300px; height: 300px;"" />
                   </div>","null","5","1","C","",""
"","","","","","html-button-response","188","960751","0.0-152.0","054016E0CC444E54BC1FA85CEF54151D","0199d5ff-80bb-7e1a-ab40-8ea5c7f0ea69","0199d5ef-c7d4-7cab-a194-b2c3afbaf8e8","","1245","
        <div style=""display: flex; justify-content: center; align-items: center;"">
          <img src=""images/red_deck_2.png"" style=""width: 300px; height: 300px; margin-right: 10px;"" />
          <img src=""images/blue_deck_1.png"" style=""width: 300px; height: 300px;"" />
        </div>","0","5","1","choice","0",""
"","","","","","html-keyboard-response","189","966752","0.0-153.0-0.0-0.0","054016E0CC444E54BC1FA85CEF54151D","0199d5ff-80bb-7e1a-ab40-8ea5c7f0ea69","0199d5ef-c7d4-7cab-a194-b2c3afbaf8e8","","null","<div style=""display: flex; justify-content: center; align-items: center;"">
                     <img src=""images/causal/causal_series_5/causal_series_5_d.png"" style=""width: 300px; height: 300px;"" />
                   </div>","null","5","1","D","",""
"","","","","","html-keyboard-response","190","972754","0.0-153.0-0.0-1.0","054016E0CC444E54BC1FA85CEF54151D","0199d5ff-80bb-7e1a-ab40-8ea5c7f0ea69","0199d5ef-c7d4-7cab-a194-b2c3afbaf8e8","","null","<div style=""display: flex; justify-content: center; align-items: center;"">
                     <img src=""images/causal/causal_series_5/causal_series_5_e.png"" style=""width: 300px; height: 300px;"" />
                   </div>","null","5","1","E","",""
"","","","","","html-keyboard-response","191","978756","0.0-153.0-0.0-2.0","054016E0CC444E54BC1FA85CEF54151D","0199d5ff-80bb-7e1a-ab40-8ea5c7f0ea69","0199d5ef-c7d4-7cab-a194-b2c3afbaf8e8","","null","<div style=""display: flex; justify-content: center; align-items: center;"">
                     <img src=""images/causal/causal_series_5/causal_series_5_f.png"" style=""width: 300px; height: 300px;"" />
                   </div>","null","5","1","F","",""
"","","","","","survey-likert","192","980951","0.0-154.0","054016E0CC444E54BC1FA85CEF54151D","0199d5ff-80bb-7e1a-ab40-8ea5c7f0ea69","0199d5ef-c7d4-7cab-a194-b2c3afbaf8e8","","2195","","{""Q0"":0}","5","1","surprise_rating","","[0]"
"","","","","","survey-likert","193","985469","0.0-155.0","054016E0CC444E54BC1FA85CEF54151D","0199d5ff-80bb-7e1a-ab40-8ea5c7f0ea69","0199d5ef-c7d4-7cab-a194-b2c3afbaf8e8","","4517","","{""Q0"":2}","5","1","enjoyment_rating","","[0]"
"","","","","","html-keyboard-response","194","991472","0.0-156.0","054016E0CC444E54BC1FA85CEF54151D","0199d5ff-80bb-7e1a-ab40-8ea5c7f0ea69","0199d5ef-c7d4-7cab-a194-b2c3afbaf8e8","","null","<div style=""display: flex; justify-content: center; align-items: center;"">
                     <img src=""images/other/blank.png"" style=""width: 300px; height: 300px;"" />
                   </div>","null","0","0","blank","",""
"","","","","","html-keyboard-response","195","997475","0.0-157.0","054016E0CC444E54BC1FA85CEF54151D","0199d5ff-80bb-7e1a-ab40-8ea5c7f0ea69","0199d5ef-c7d4-7cab-a194-b2c3afbaf8e8","","null","<div style=""display: flex; justify-content: center; align-items: center;"">
                     <img src=""images/causal/causal_series_4/causal_series_4_a.png"" style=""width: 300px; height: 300px;"" />
                   </div>","null","4","1","A","",""
"","","","","","html-keyboard-response","196","1003476","0.0-158.0","054016E0CC444E54BC1FA85CEF54151D","0199d5ff-80bb-7e1a-ab40-8ea5c7f0ea69","0199d5ef-c7d4-7cab-a194-b2c3afbaf8e8","","null","<div style=""display: flex; justify-content: center; align-items: center;"">
                     <img src=""images/causal/causal_series_4/causal_series_4_b.png"" style=""width: 300px; height: 300px;"" />
                   </div>","null","4","1","B","",""
"","","","","","html-keyboard-response","197","1009478","0.0-159.0","054016E0CC444E54BC1FA85CEF54151D","0199d5ff-80bb-7e1a-ab40-8ea5c7f0ea69","0199d5ef-c7d4-7cab-a194-b2c3afbaf8e8","","null","<div style=""display: flex; justify-content: center; align-items: center;"">
                     <img src=""images/causal/causal_series_4/causal_series_4_c.png"" style=""width: 300px; height: 300px;"" />
                   </div>","null","4","1","C","",""
"","","","","","html-button-response","198","1010739","0.0-160.0","054016E0CC444E54BC1FA85CEF54151D","0199d5ff-80bb-7e1a-ab40-8ea5c7f0ea69","0199d5ef-c7d4-7cab-a194-b2c3afbaf8e8","","1261","
        <div style=""display: flex; justify-content: center; align-items: center;"">
          <img src=""images/red_deck_2.png"" style=""width: 300px; height: 300px; margin-right: 10px;"" />
          <img src=""images/blue_deck_1.png"" style=""width: 300px; height: 300px;"" />
        </div>","1","4","1","choice","1",""
"","","","","","html-keyboard-response","199","1016741","0.0-161.0-1.0-0.0","054016E0CC444E54BC1FA85CEF54151D","0199d5ff-80bb-7e1a-ab40-8ea5c7f0ea69","0199d5ef-c7d4-7cab-a194-b2c3afbaf8e8","","null","<div style=""display: flex; justify-content: center; align-items: center;"">
                     <img src=""images/semantic/semantic_series_4/semantic_series_4_d.png"" style=""width: 300px; height: 300px;"" />
                   </div>","null","4","1","D","",""
"","","","","","html-keyboard-response","200","1022744","0.0-161.0-1.0-1.0","054016E0CC444E54BC1FA85CEF54151D","0199d5ff-80bb-7e1a-ab40-8ea5c7f0ea69","0199d5ef-c7d4-7cab-a194-b2c3afbaf8e8","","null","<div style=""display: flex; justify-content: center; align-items: center;"">
                     <img src=""images/semantic/semantic_series_4/semantic_series_4_e.png"" style=""width: 300px; height: 300px;"" />
                   </div>","null","4","1","E","",""
"","","","","","html-keyboard-response","201","1028745","0.0-161.0-1.0-2.0","054016E0CC444E54BC1FA85CEF54151D","0199d5ff-80bb-7e1a-ab40-8ea5c7f0ea69","0199d5ef-c7d4-7cab-a194-b2c3afbaf8e8","","null","<div style=""display: flex; justify-content: center; align-items: center;"">
                     <img src=""images/semantic/semantic_series_4/semantic_series_4_f.png"" style=""width: 300px; height: 300px;"" />
                   </div>","null","4","1","F","",""
"","","","","","survey-likert","202","1033906","0.0-162.0","054016E0CC444E54BC1FA85CEF54151D","0199d5ff-80bb-7e1a-ab40-8ea5c7f0ea69","0199d5ef-c7d4-7cab-a194-b2c3afbaf8e8","","5160","","{""Q0"":4}","4","1","surprise_rating","","[0]"
"","","","","","survey-likert","203","1036458","0.0-163.0","054016E0CC444E54BC1FA85CEF54151D","0199d5ff-80bb-7e1a-ab40-8ea5c7f0ea69","0199d5ef-c7d4-7cab-a194-b2c3afbaf8e8","","2551","","{""Q0"":1}","4","1","enjoyment_rating","","[0]"
"","","","","","html-keyboard-response","204","1042461","0.0-164.0","054016E0CC444E54BC1FA85CEF54151D","0199d5ff-80bb-7e1a-ab40-8ea5c7f0ea69","0199d5ef-c7d4-7cab-a194-b2c3afbaf8e8","","null","<div style=""display: flex; justify-content: center; align-items: center;"">
                     <img src=""images/other/blank.png"" style=""width: 300px; height: 300px;"" />
                   </div>","null","0","0","blank","",""
"","","","","","survey-text","205","1064008","0.0-165.0","054016E0CC444E54BC1FA85CEF54151D","0199d5ff-80bb-7e1a-ab40-8ea5c7f0ea69","0199d5ef-c7d4-7cab-a194-b2c3afbaf8e8","","21544","","{""Q0"":""Deck 1 was related to the story and deck 2 was random""}","","","","",""
"","","","","","html-button-response","206","1071426","0.0-166.0","054016E0CC444E54BC1FA85CEF54151D","0199d5ff-80bb-7e1a-ab40-8ea5c7f0ea69","0199d5ef-c7d4-7cab-a194-b2c3afbaf8e8","","7417","Which color deck do the following sentences continue the story from?","0","","","","",""
"","","","","","html-button-response","207","1074076","0.0-167.0","054016E0CC444E54BC1FA85CEF54151D","0199d5ff-80bb-7e1a-ab40-8ea5c7f0ea69","0199d5ef-c7d4-7cab-a194-b2c3afbaf8e8","","2649","Which color deck do the following sentences NOT follow the story from?","1","","","","",""
"","","","","","html-button-response","208","1082344","0.0-168.0","054016E0CC444E54BC1FA85CEF54151D","0199d5ff-80bb-7e1a-ab40-8ea5c7f0ea69","0199d5ef-c7d4-7cab-a194-b2c3afbaf8e8","","8266","Which type of deck did you prefer overall?","1","","","","",""
"","","","","","survey-text","209","1093262","0.0-169.0","054016E0CC444E54BC1FA85CEF54151D","0199d5ff-80bb-7e1a-ab40-8ea5c7f0ea69","0199d5ef-c7d4-7cab-a194-b2c3afbaf8e8","","10917","","{""Q0"":""MALE"",""Q1"":""25""}","","","","",""
"","","","","","instructions","210","1100246","0.0-170.0","054016E0CC444E54BC1FA85CEF54151D","0199d5ff-80bb-7e1a-ab40-8ea5c7f0ea69","0199d5ef-c7d4-7cab-a194-b2c3afbaf8e8","[{""page_index"":0,""viewing_time"":6983}]","6983","","","","","","",""
