"success","timeout","failed_images","failed_audio","failed_video","trial_type","trial_index","time_elapsed","internal_node_id","subject_id","study_id","session_id","view_history","rt","stimulus","response","series","repetition","phase","choice","question_order"
"true","false","[]","[]","[]","preload","0","448","0.0-0.0","56DC94578A4549BEABD987919A3F09D1","0199dbf4-a741-7a36-aebc-cf4e125284a6","0199dbe2-9616-7ebf-8a27-71b11f788553","","","","","","","","",""
"","","","","","instructions","1","6990","0.0-1.0","56DC94578A4549BEABD987919A3F09D1","0199dbf4-a741-7a36-aebc-cf4e125284a6","0199dbe2-9616-7ebf-8a27-71b11f788553","[{""page_index"":0,""viewing_time"":6542}]","6542","","","","","","",""
"","","","","","instructions","2","9734","0.0-2.0","56DC94578A4549BEABD987919A3F09D1","0199dbf4-a741-7a36-aebc-cf4e125284a6","0199dbe2-9616-7ebf-8a27-71b11f788553","[{""page_index"":0,""viewing_time"":2743}]","2743","","","","","","",""
"true","","","","","fullscreen","3","12735","0.0-3.0","56DC94578A4549BEABD987919A3F09D1","0199dbf4-a741-7a36-aebc-cf4e125284a6","0199dbe2-9616-7ebf-8a27-71b11f788553","","1988","","","","","","",""
"","","","","","instructions","4","22758","0.0-4.0","56DC94578A4549BEABD987919A3F09D1","0199dbf4-a741-7a36-aebc-cf4e125284a6","0199dbe2-9616-7ebf-8a27-71b11f788553","[{""page_index"":0,""viewing_time"":10023}]","10023","","","","","","",""
"","","","","","html-keyboard-response","5","28761","0.0-5.0","56DC94578A4549BEABD987919A3F09D1","0199dbf4-a741-7a36-aebc-cf4e125284a6","0199dbe2-9616-7ebf-8a27-71b11f788553","","null","<div style=""display: flex; justify-content: center; align-items: center;"">
                     <img src=""images/causal/causal_series_7/causal_series_7_a.png"" style=""width: 300px; height: 300px;"" />
                   </div>","null","7","1","A","",""
"","","","","","html-keyboard-response","6","34771","0.0-6.0","56DC94578A4549BEABD987919A3F09D1","0199dbf4-a741-7a36-aebc-cf4e125284a6","0199dbe2-9616-7ebf-8a27-71b11f788553","","null","<div style=""display: flex; justify-content: center; align-items: center;"">
                     <img src=""images/causal/causal_series_7/causal_series_7_b.png"" style=""width: 300px; height: 300px;"" />
                   </div>","null","7","1","B","",""
"","","","","","html-keyboard-response","7","40773","0.0-7.0","56DC94578A4549BEABD987919A3F09D1","0199dbf4-a741-7a36-aebc-cf4e125284a6","0199dbe2-9616-7ebf-8a27-71b11f788553","","null","<div style=""display: flex; justify-content: center; align-items: center;"">
                     <img src=""images/causal/causal_series_7/causal_series_7_c.png"" style=""width: 300px; height: 300px;"" />
                   </div>","null","7","1","C","",""
"","","","","","html-button-response","8","45285","0.0-8.0","56DC94578A4549BEABD987919A3F09D1","0199dbf4-a741-7a36-aebc-cf4e125284a6","0199dbe2-9616-7ebf-8a27-71b11f788553","","4511","
        <div style=""display: flex; justify-content: center; align-items: center;"">
          <img src=""images/red_deck_2.png"" style=""width: 300px; height: 300px; margin-right: 10px;"" />
          <img src=""images/blue_deck_1.png"" style=""width: 300px; height: 300px;"" />
        </div>","1","7","1","choice","1",""
"","","","","","html-keyboard-response","9","51291","0.0-9.0-1.0-0.0","56DC94578A4549BEABD987919A3F09D1","0199dbf4-a741-7a36-aebc-cf4e125284a6","0199dbe2-9616-7ebf-8a27-71b11f788553","","null","<div style=""display: flex; justify-content: center; align-items: center;"">
                     <img src=""images/semantic/semantic_series_7/semantic_series_7_d.png"" style=""width: 300px; height: 300px;"" />
                   </div>","null","7","1","D","",""
"","","","","","survey-likert","10","55597","0.0-10.0","56DC94578A4549BEABD987919A3F09D1","0199dbf4-a741-7a36-aebc-cf4e125284a6","0199dbe2-9616-7ebf-8a27-71b11f788553","","4304","","{""Q0"":4}","7","1","surprise_rating","","[0]"
"","","","","","survey-likert","11","59262","0.0-11.0","56DC94578A4549BEABD987919A3F09D1","0199dbf4-a741-7a36-aebc-cf4e125284a6","0199dbe2-9616-7ebf-8a27-71b11f788553","","3665","","{""Q0"":3}","7","1","enjoyment_rating","","[0]"
"","","","","","html-keyboard-response","12","65265","0.0-12.0","56DC94578A4549BEABD987919A3F09D1","0199dbf4-a741-7a36-aebc-cf4e125284a6","0199dbe2-9616-7ebf-8a27-71b11f788553","","null","<div style=""display: flex; justify-content: center; align-items: center;"">
                     <img src=""images/other/blank.png"" style=""width: 300px; height: 300px;"" />
                   </div>","null","0","0","blank","",""
"","","","","","html-keyboard-response","13","71268","0.0-13.0","56DC94578A4549BEABD987919A3F09D1","0199dbf4-a741-7a36-aebc-cf4e125284a6","0199dbe2-9616-7ebf-8a27-71b11f788553","","null","<div style=""display: flex; justify-content: center; align-items: center;"">
                     <img src=""images/causal/causal_series_3/causal_series_3_a.png"" style=""width: 300px; height: 300px;"" />
                   </div>","null","3","1","A","",""
"","","","","","html-keyboard-response","14","77277","0.0-14.0","56DC94578A4549BEABD987919A3F09D1","0199dbf4-a741-7a36-aebc-cf4e125284a6","0199dbe2-9616-7ebf-8a27-71b11f788553","","null","<div style=""display: flex; justify-content: center; align-items: center;"">
                     <img src=""images/causal/causal_series_3/causal_series_3_b.png"" style=""width: 300px; height: 300px;"" />
                   </div>","null","3","1","B","",""
"","","","","","html-keyboard-response","15","83285","0.0-15.0","56DC94578A4549BEABD987919A3F09D1","0199dbf4-a741-7a36-aebc-cf4e125284a6","0199dbe2-9616-7ebf-8a27-71b11f788553","","null","<div style=""display: flex; justify-content: center; align-items: center;"">
                     <img src=""images/causal/causal_series_3/causal_series_3_c.png"" style=""width: 300px; height: 300px;"" />
                   </div>","null","3","1","C","",""
"","","","","","html-button-response","16","84303","0.0-16.0","56DC94578A4549BEABD987919A3F09D1","0199dbf4-a741-7a36-aebc-cf4e125284a6","0199dbe2-9616-7ebf-8a27-71b11f788553","","1017","
        <div style=""display: flex; justify-content: center; align-items: center;"">
          <img src=""images/red_deck_2.png"" style=""width: 300px; height: 300px; margin-right: 10px;"" />
          <img src=""images/blue_deck_1.png"" style=""width: 300px; height: 300px;"" />
        </div>","0","3","1","choice","0",""
"","","","","","html-keyboard-response","17","90305","0.0-17.0-0.0-0.0","56DC94578A4549BEABD987919A3F09D1","0199dbf4-a741-7a36-aebc-cf4e125284a6","0199dbe2-9616-7ebf-8a27-71b11f788553","","null","<div style=""display: flex; justify-content: center; align-items: center;"">
                     <img src=""images/causal/causal_series_3/causal_series_3_d.png"" style=""width: 300px; height: 300px;"" />
                   </div>","null","3","1","D","",""
"","","","","","survey-likert","18","93348","0.0-18.0","56DC94578A4549BEABD987919A3F09D1","0199dbf4-a741-7a36-aebc-cf4e125284a6","0199dbe2-9616-7ebf-8a27-71b11f788553","","3043","","{""Q0"":0}","3","1","surprise_rating","","[0]"
"","","","","","survey-likert","19","95573","0.0-19.0","56DC94578A4549BEABD987919A3F09D1","0199dbf4-a741-7a36-aebc-cf4e125284a6","0199dbe2-9616-7ebf-8a27-71b11f788553","","2224","","{""Q0"":2}","3","1","enjoyment_rating","","[0]"
"","","","","","html-keyboard-response","20","101589","0.0-20.0","56DC94578A4549BEABD987919A3F09D1","0199dbf4-a741-7a36-aebc-cf4e125284a6","0199dbe2-9616-7ebf-8a27-71b11f788553","","null","<div style=""display: flex; justify-content: center; align-items: center;"">
                     <img src=""images/other/blank.png"" style=""width: 300px; height: 300px;"" />
                   </div>","null","0","0","blank","",""
"","","","","","html-keyboard-response","21","107591","0.0-21.0","56DC94578A4549BEABD987919A3F09D1","0199dbf4-a741-7a36-aebc-cf4e125284a6","0199dbe2-9616-7ebf-8a27-71b11f788553","","null","<div style=""display: flex; justify-content: center; align-items: center;"">
                     <img src=""images/causal/causal_series_6/causal_series_6_a.png"" style=""width: 300px; height: 300px;"" />
                   </div>","null","6","1","A","",""
"","","","","","html-keyboard-response","22","113598","0.0-22.0","56DC94578A4549BEABD987919A3F09D1","0199dbf4-a741-7a36-aebc-cf4e125284a6","0199dbe2-9616-7ebf-8a27-71b11f788553","","null","<div style=""display: flex; justify-content: center; align-items: center;"">
                     <img src=""images/causal/causal_series_6/causal_series_6_b.png"" style=""width: 300px; height: 300px;"" />
                   </div>","null","6","1","B","",""
"","","","","","html-keyboard-response","23","119610","0.0-23.0","56DC94578A4549BEABD987919A3F09D1","0199dbf4-a741-7a36-aebc-cf4e125284a6","0199dbe2-9616-7ebf-8a27-71b11f788553","","null","<div style=""display: flex; justify-content: center; align-items: center;"">
                     <img src=""images/causal/causal_series_6/causal_series_6_c.png"" style=""width: 300px; height: 300px;"" />
                   </div>","null","6","1","C","",""
"","","","","","html-button-response","24","121177","0.0-24.0","56DC94578A4549BEABD987919A3F09D1","0199dbf4-a741-7a36-aebc-cf4e125284a6","0199dbe2-9616-7ebf-8a27-71b11f788553","","1566","
        <div style=""display: flex; justify-content: center; align-items: center;"">
          <img src=""images/red_deck_2.png"" style=""width: 300px; height: 300px; margin-right: 10px;"" />
          <img src=""images/blue_deck_1.png"" style=""width: 300px; height: 300px;"" />
        </div>","1","6","1","choice","1",""
"","","","","","html-keyboard-response","25","127183","0.0-25.0-1.0-0.0","56DC94578A4549BEABD987919A3F09D1","0199dbf4-a741-7a36-aebc-cf4e125284a6","0199dbe2-9616-7ebf-8a27-71b11f788553","","null","<div style=""display: flex; justify-content: center; align-items: center;"">
                     <img src=""images/semantic/semantic_series_6/semantic_series_6_d.png"" style=""width: 300px; height: 300px;"" />
                   </div>","null","6","1","D","",""
"","","","","","survey-likert","26","129127","0.0-26.0","56DC94578A4549BEABD987919A3F09D1","0199dbf4-a741-7a36-aebc-cf4e125284a6","0199dbe2-9616-7ebf-8a27-71b11f788553","","1944","","{""Q0"":2}","6","1","surprise_rating","","[0]"
"","","","","","survey-likert","27","130284","0.0-27.0","56DC94578A4549BEABD987919A3F09D1","0199dbf4-a741-7a36-aebc-cf4e125284a6","0199dbe2-9616-7ebf-8a27-71b11f788553","","1156","","{""Q0"":2}","6","1","enjoyment_rating","","[0]"
"","","","","","html-keyboard-response","28","136298","0.0-28.0","56DC94578A4549BEABD987919A3F09D1","0199dbf4-a741-7a36-aebc-cf4e125284a6","0199dbe2-9616-7ebf-8a27-71b11f788553","","null","<div style=""display: flex; justify-content: center; align-items: center;"">
                     <img src=""images/other/blank.png"" style=""width: 300px; height: 300px;"" />
                   </div>","null","0","0","blank","",""
"","","","","","html-keyboard-response","29","142301","0.0-29.0","56DC94578A4549BEABD987919A3F09D1","0199dbf4-a741-7a36-aebc-cf4e125284a6","0199dbe2-9616-7ebf-8a27-71b11f788553","","null","<div style=""display: flex; justify-content: center; align-items: center;"">
                     <img src=""images/causal/causal_series_1/causal_series_1_a.png"" style=""width: 300px; height: 300px;"" />
                   </div>","null","1","1","A","",""
"","","","","","html-keyboard-response","30","148309","0.0-30.0","56DC94578A4549BEABD987919A3F09D1","0199dbf4-a741-7a36-aebc-cf4e125284a6","0199dbe2-9616-7ebf-8a27-71b11f788553","","null","<div style=""display: flex; justify-content: center; align-items: center;"">
                     <img src=""images/causal/causal_series_1/causal_series_1_b.png"" style=""width: 300px; height: 300px;"" />
                   </div>","null","1","1","B","",""
"","","","","","html-keyboard-response","31","154313","0.0-31.0","56DC94578A4549BEABD987919A3F09D1","0199dbf4-a741-7a36-aebc-cf4e125284a6","0199dbe2-9616-7ebf-8a27-71b11f788553","","null","<div style=""display: flex; justify-content: center; align-items: center;"">
                     <img src=""images/causal/causal_series_1/causal_series_1_c.png"" style=""width: 300px; height: 300px;"" />
                   </div>","null","1","1","C","",""
"","","","","","html-button-response","32","155319","0.0-32.0","56DC94578A4549BEABD987919A3F09D1","0199dbf4-a741-7a36-aebc-cf4e125284a6","0199dbe2-9616-7ebf-8a27-71b11f788553","","1005","
        <div style=""display: flex; justify-content: center; align-items: center;"">
          <img src=""images/red_deck_2.png"" style=""width: 300px; height: 300px; margin-right: 10px;"" />
          <img src=""images/blue_deck_1.png"" style=""width: 300px; height: 300px;"" />
        </div>","1","1","1","choice","1",""
"","","","","","html-keyboard-response","33","161322","0.0-33.0-1.0-0.0","56DC94578A4549BEABD987919A3F09D1","0199dbf4-a741-7a36-aebc-cf4e125284a6","0199dbe2-9616-7ebf-8a27-71b11f788553","","null","<div style=""display: flex; justify-content: center; align-items: center;"">
                     <img src=""images/semantic/semantic_series_1/semantic_series_1_d.png"" style=""width: 300px; height: 300px;"" />
                   </div>","null","1","1","D","",""
"","","","","","survey-likert","34","163616","0.0-34.0","56DC94578A4549BEABD987919A3F09D1","0199dbf4-a741-7a36-aebc-cf4e125284a6","0199dbe2-9616-7ebf-8a27-71b11f788553","","2293","","{""Q0"":3}","1","1","surprise_rating","","[0]"
"","","","","","survey-likert","35","166242","0.0-35.0","56DC94578A4549BEABD987919A3F09D1","0199dbf4-a741-7a36-aebc-cf4e125284a6","0199dbe2-9616-7ebf-8a27-71b11f788553","","2626","","{""Q0"":3}","1","1","enjoyment_rating","","[0]"
"","","","","","html-keyboard-response","36","172255","0.0-36.0","56DC94578A4549BEABD987919A3F09D1","0199dbf4-a741-7a36-aebc-cf4e125284a6","0199dbe2-9616-7ebf-8a27-71b11f788553","","null","<div style=""display: flex; justify-content: center; align-items: center;"">
                     <img src=""images/other/blank.png"" style=""width: 300px; height: 300px;"" />
                   </div>","null","0","0","blank","",""
"","","","","","html-keyboard-response","37","178262","0.0-37.0","56DC94578A4549BEABD987919A3F09D1","0199dbf4-a741-7a36-aebc-cf4e125284a6","0199dbe2-9616-7ebf-8a27-71b11f788553","","null","<div style=""display: flex; justify-content: center; align-items: center;"">
                     <img src=""images/causal/causal_series_2/causal_series_2_a.png"" style=""width: 300px; height: 300px;"" />
                   </div>","null","2","1","A","",""
"","","","","","html-keyboard-response","38","184267","0.0-38.0","56DC94578A4549BEABD987919A3F09D1","0199dbf4-a741-7a36-aebc-cf4e125284a6","0199dbe2-9616-7ebf-8a27-71b11f788553","","null","<div style=""display: flex; justify-content: center; align-items: center;"">
                     <img src=""images/causal/causal_series_2/causal_series_2_b.png"" style=""width: 300px; height: 300px;"" />
                   </div>","null","2","1","B","",""
"","","","","","html-keyboard-response","39","190271","0.0-39.0","56DC94578A4549BEABD987919A3F09D1","0199dbf4-a741-7a36-aebc-cf4e125284a6","0199dbe2-9616-7ebf-8a27-71b11f788553","","null","<div style=""display: flex; justify-content: center; align-items: center;"">
                     <img src=""images/causal/causal_series_2/causal_series_2_c.png"" style=""width: 300px; height: 300px;"" />
                   </div>","null","2","1","C","",""
"","","","","","html-button-response","40","191167","0.0-40.0","56DC94578A4549BEABD987919A3F09D1","0199dbf4-a741-7a36-aebc-cf4e125284a6","0199dbe2-9616-7ebf-8a27-71b11f788553","","894","
        <div style=""display: flex; justify-content: center; align-items: center;"">
          <img src=""images/red_deck_2.png"" style=""width: 300px; height: 300px; margin-right: 10px;"" />
          <img src=""images/blue_deck_1.png"" style=""width: 300px; height: 300px;"" />
        </div>","0","2","1","choice","0",""
"","","","","","html-keyboard-response","41","197173","0.0-41.0-0.0-0.0","56DC94578A4549BEABD987919A3F09D1","0199dbf4-a741-7a36-aebc-cf4e125284a6","0199dbe2-9616-7ebf-8a27-71b11f788553","","null","<div style=""display: flex; justify-content: center; align-items: center;"">
                     <img src=""images/causal/causal_series_2/causal_series_2_d.png"" style=""width: 300px; height: 300px;"" />
                   </div>","null","2","1","D","",""
"","","","","","survey-likert","42","201881","0.0-42.0","56DC94578A4549BEABD987919A3F09D1","0199dbf4-a741-7a36-aebc-cf4e125284a6","0199dbe2-9616-7ebf-8a27-71b11f788553","","4707","","{""Q0"":3}","2","1","surprise_rating","","[0]"
"","","","","","survey-likert","43","204199","0.0-43.0","56DC94578A4549BEABD987919A3F09D1","0199dbf4-a741-7a36-aebc-cf4e125284a6","0199dbe2-9616-7ebf-8a27-71b11f788553","","2317","","{""Q0"":2}","2","1","enjoyment_rating","","[0]"
"","","","","","html-keyboard-response","44","210204","0.0-44.0","56DC94578A4549BEABD987919A3F09D1","0199dbf4-a741-7a36-aebc-cf4e125284a6","0199dbe2-9616-7ebf-8a27-71b11f788553","","null","<div style=""display: flex; justify-content: center; align-items: center;"">
                     <img src=""images/other/blank.png"" style=""width: 300px; height: 300px;"" />
                   </div>","null","0","0","blank","",""
"","","","","","html-keyboard-response","45","216207","0.0-45.0","56DC94578A4549BEABD987919A3F09D1","0199dbf4-a741-7a36-aebc-cf4e125284a6","0199dbe2-9616-7ebf-8a27-71b11f788553","","null","<div style=""display: flex; justify-content: center; align-items: center;"">
                     <img src=""images/causal/causal_series_10/causal_series_10_a.png"" style=""width: 300px; height: 300px;"" />
                   </div>","null","10","1","A","",""
"","","","","","html-keyboard-response","46","222212","0.0-46.0","56DC94578A4549BEABD987919A3F09D1","0199dbf4-a741-7a36-aebc-cf4e125284a6","0199dbe2-9616-7ebf-8a27-71b11f788553","","null","<div style=""display: flex; justify-content: center; align-items: center;"">
                     <img src=""images/causal/causal_series_10/causal_series_10_b.png"" style=""width: 300px; height: 300px;"" />
                   </div>","null","10","1","B","",""
"","","","","","html-keyboard-response","47","228220","0.0-47.0","56DC94578A4549BEABD987919A3F09D1","0199dbf4-a741-7a36-aebc-cf4e125284a6","0199dbe2-9616-7ebf-8a27-71b11f788553","","null","<div style=""display: flex; justify-content: center; align-items: center;"">
                     <img src=""images/causal/causal_series_10/causal_series_10_c.png"" style=""width: 300px; height: 300px;"" />
                   </div>","null","10","1","C","",""
"","","","","","html-button-response","48","229452","0.0-48.0","56DC94578A4549BEABD987919A3F09D1","0199dbf4-a741-7a36-aebc-cf4e125284a6","0199dbe2-9616-7ebf-8a27-71b11f788553","","1232","
        <div style=""display: flex; justify-content: center; align-items: center;"">
          <img src=""images/red_deck_2.png"" style=""width: 300px; height: 300px; margin-right: 10px;"" />
          <img src=""images/blue_deck_1.png"" style=""width: 300px; height: 300px;"" />
        </div>","1","10","1","choice","1",""
"","","","","","html-keyboard-response","49","235458","0.0-49.0-1.0-0.0","56DC94578A4549BEABD987919A3F09D1","0199dbf4-a741-7a36-aebc-cf4e125284a6","0199dbe2-9616-7ebf-8a27-71b11f788553","","null","<div style=""display: flex; justify-content: center; align-items: center;"">
                     <img src=""images/semantic/semantic_series_10/semantic_series_10_d.png"" style=""width: 300px; height: 300px;"" />
                   </div>","null","10","1","D","",""
"","","","","","survey-likert","50","237096","0.0-50.0","56DC94578A4549BEABD987919A3F09D1","0199dbf4-a741-7a36-aebc-cf4e125284a6","0199dbe2-9616-7ebf-8a27-71b11f788553","","1637","","{""Q0"":4}","10","1","surprise_rating","","[0]"
"","","","","","survey-likert","51","238924","0.0-51.0","56DC94578A4549BEABD987919A3F09D1","0199dbf4-a741-7a36-aebc-cf4e125284a6","0199dbe2-9616-7ebf-8a27-71b11f788553","","1827","","{""Q0"":2}","10","1","enjoyment_rating","","[0]"
"","","","","","html-keyboard-response","52","244940","0.0-52.0","56DC94578A4549BEABD987919A3F09D1","0199dbf4-a741-7a36-aebc-cf4e125284a6","0199dbe2-9616-7ebf-8a27-71b11f788553","","null","<div style=""display: flex; justify-content: center; align-items: center;"">
                     <img src=""images/other/blank.png"" style=""width: 300px; height: 300px;"" />
                   </div>","null","0","0","blank","",""
"","","","","","html-keyboard-response","53","250950","0.0-53.0","56DC94578A4549BEABD987919A3F09D1","0199dbf4-a741-7a36-aebc-cf4e125284a6","0199dbe2-9616-7ebf-8a27-71b11f788553","","null","<div style=""display: flex; justify-content: center; align-items: center;"">
                     <img src=""images/causal/causal_series_8/causal_series_8_a.png"" style=""width: 300px; height: 300px;"" />
                   </div>","null","8","1","A","",""
"","","","","","html-keyboard-response","54","256959","0.0-54.0","56DC94578A4549BEABD987919A3F09D1","0199dbf4-a741-7a36-aebc-cf4e125284a6","0199dbe2-9616-7ebf-8a27-71b11f788553","","null","<div style=""display: flex; justify-content: center; align-items: center;"">
                     <img src=""images/causal/causal_series_8/causal_series_8_b.png"" style=""width: 300px; height: 300px;"" />
                   </div>","null","8","1","B","",""
"","","","","","html-keyboard-response","55","262966","0.0-55.0","56DC94578A4549BEABD987919A3F09D1","0199dbf4-a741-7a36-aebc-cf4e125284a6","0199dbe2-9616-7ebf-8a27-71b11f788553","","null","<div style=""display: flex; justify-content: center; align-items: center;"">
                     <img src=""images/causal/causal_series_8/causal_series_8_c.png"" style=""width: 300px; height: 300px;"" />
                   </div>","null","8","1","C","",""
"","","","","","html-button-response","56","264218","0.0-56.0","56DC94578A4549BEABD987919A3F09D1","0199dbf4-a741-7a36-aebc-cf4e125284a6","0199dbe2-9616-7ebf-8a27-71b11f788553","","1252","
        <div style=""display: flex; justify-content: center; align-items: center;"">
          <img src=""images/red_deck_2.png"" style=""width: 300px; height: 300px; margin-right: 10px;"" />
          <img src=""images/blue_deck_1.png"" style=""width: 300px; height: 300px;"" />
        </div>","0","8","1","choice","0",""
"","","","","","html-keyboard-response","57","270220","0.0-57.0-0.0-0.0","56DC94578A4549BEABD987919A3F09D1","0199dbf4-a741-7a36-aebc-cf4e125284a6","0199dbe2-9616-7ebf-8a27-71b11f788553","","null","<div style=""display: flex; justify-content: center; align-items: center;"">
                     <img src=""images/causal/causal_series_8/causal_series_8_d.png"" style=""width: 300px; height: 300px;"" />
                   </div>","null","8","1","D","",""
"","","","","","survey-likert","58","272236","0.0-58.0","56DC94578A4549BEABD987919A3F09D1","0199dbf4-a741-7a36-aebc-cf4e125284a6","0199dbe2-9616-7ebf-8a27-71b11f788553","","2015","","{""Q0"":2}","8","1","surprise_rating","","[0]"
"","","","","","survey-likert","59","273260","0.0-59.0","56DC94578A4549BEABD987919A3F09D1","0199dbf4-a741-7a36-aebc-cf4e125284a6","0199dbe2-9616-7ebf-8a27-71b11f788553","","1023","","{""Q0"":2}","8","1","enjoyment_rating","","[0]"
"","","","","","html-keyboard-response","60","279271","0.0-60.0","56DC94578A4549BEABD987919A3F09D1","0199dbf4-a741-7a36-aebc-cf4e125284a6","0199dbe2-9616-7ebf-8a27-71b11f788553","","null","<div style=""display: flex; justify-content: center; align-items: center;"">
                     <img src=""images/other/blank.png"" style=""width: 300px; height: 300px;"" />
                   </div>","null","0","0","blank","",""
"","","","","","html-keyboard-response","61","285277","0.0-61.0","56DC94578A4549BEABD987919A3F09D1","0199dbf4-a741-7a36-aebc-cf4e125284a6","0199dbe2-9616-7ebf-8a27-71b11f788553","","null","<div style=""display: flex; justify-content: center; align-items: center;"">
                     <img src=""images/causal/causal_series_5/causal_series_5_a.png"" style=""width: 300px; height: 300px;"" />
                   </div>","null","5","1","A","",""
"","","","","","html-keyboard-response","62","291289","0.0-62.0","56DC94578A4549BEABD987919A3F09D1","0199dbf4-a741-7a36-aebc-cf4e125284a6","0199dbe2-9616-7ebf-8a27-71b11f788553","","null","<div style=""display: flex; justify-content: center; align-items: center;"">
                     <img src=""images/causal/causal_series_5/causal_series_5_b.png"" style=""width: 300px; height: 300px;"" />
                   </div>","null","5","1","B","",""
"","","","","","html-keyboard-response","63","297303","0.0-63.0","56DC94578A4549BEABD987919A3F09D1","0199dbf4-a741-7a36-aebc-cf4e125284a6","0199dbe2-9616-7ebf-8a27-71b11f788553","","null","<div style=""display: flex; justify-content: center; align-items: center;"">
                     <img src=""images/causal/causal_series_5/causal_series_5_c.png"" style=""width: 300px; height: 300px;"" />
                   </div>","null","5","1","C","",""
"","","","","","html-button-response","64","298340","0.0-64.0","56DC94578A4549BEABD987919A3F09D1","0199dbf4-a741-7a36-aebc-cf4e125284a6","0199dbe2-9616-7ebf-8a27-71b11f788553","","1037","
        <div style=""display: flex; justify-content: center; align-items: center;"">
          <img src=""images/red_deck_2.png"" style=""width: 300px; height: 300px; margin-right: 10px;"" />
          <img src=""images/blue_deck_1.png"" style=""width: 300px; height: 300px;"" />
        </div>","1","5","1","choice","1",""
"","","","","","html-keyboard-response","65","304349","0.0-65.0-1.0-0.0","56DC94578A4549BEABD987919A3F09D1","0199dbf4-a741-7a36-aebc-cf4e125284a6","0199dbe2-9616-7ebf-8a27-71b11f788553","","null","<div style=""display: flex; justify-content: center; align-items: center;"">
                     <img src=""images/semantic/semantic_series_5/semantic_series_5_d.png"" style=""width: 300px; height: 300px;"" />
                   </div>","null","5","1","D","",""
"","","","","","survey-likert","66","306003","0.0-66.0","56DC94578A4549BEABD987919A3F09D1","0199dbf4-a741-7a36-aebc-cf4e125284a6","0199dbe2-9616-7ebf-8a27-71b11f788553","","1653","","{""Q0"":2}","5","1","surprise_rating","","[0]"
"","","","","","survey-likert","67","307731","0.0-67.0","56DC94578A4549BEABD987919A3F09D1","0199dbf4-a741-7a36-aebc-cf4e125284a6","0199dbe2-9616-7ebf-8a27-71b11f788553","","1728","","{""Q0"":1}","5","1","enjoyment_rating","","[0]"
"","","","","","html-keyboard-response","68","313737","0.0-68.0","56DC94578A4549BEABD987919A3F09D1","0199dbf4-a741-7a36-aebc-cf4e125284a6","0199dbe2-9616-7ebf-8a27-71b11f788553","","null","<div style=""display: flex; justify-content: center; align-items: center;"">
                     <img src=""images/other/blank.png"" style=""width: 300px; height: 300px;"" />
                   </div>","null","0","0","blank","",""
"","","","","","html-keyboard-response","69","319749","0.0-69.0","56DC94578A4549BEABD987919A3F09D1","0199dbf4-a741-7a36-aebc-cf4e125284a6","0199dbe2-9616-7ebf-8a27-71b11f788553","","null","<div style=""display: flex; justify-content: center; align-items: center;"">
                     <img src=""images/causal/causal_series_4/causal_series_4_a.png"" style=""width: 300px; height: 300px;"" />
                   </div>","null","4","1","A","",""
"","","","","","html-keyboard-response","70","325761","0.0-70.0","56DC94578A4549BEABD987919A3F09D1","0199dbf4-a741-7a36-aebc-cf4e125284a6","0199dbe2-9616-7ebf-8a27-71b11f788553","","null","<div style=""display: flex; justify-content: center; align-items: center;"">
                     <img src=""images/causal/causal_series_4/causal_series_4_b.png"" style=""width: 300px; height: 300px;"" />
                   </div>","null","4","1","B","",""
"","","","","","html-keyboard-response","71","331763","0.0-71.0","56DC94578A4549BEABD987919A3F09D1","0199dbf4-a741-7a36-aebc-cf4e125284a6","0199dbe2-9616-7ebf-8a27-71b11f788553","","null","<div style=""display: flex; justify-content: center; align-items: center;"">
                     <img src=""images/causal/causal_series_4/causal_series_4_c.png"" style=""width: 300px; height: 300px;"" />
                   </div>","null","4","1","C","",""
"","","","","","html-button-response","72","333372","0.0-72.0","56DC94578A4549BEABD987919A3F09D1","0199dbf4-a741-7a36-aebc-cf4e125284a6","0199dbe2-9616-7ebf-8a27-71b11f788553","","1608","
        <div style=""display: flex; justify-content: center; align-items: center;"">
          <img src=""images/red_deck_2.png"" style=""width: 300px; height: 300px; margin-right: 10px;"" />
          <img src=""images/blue_deck_1.png"" style=""width: 300px; height: 300px;"" />
        </div>","0","4","1","choice","0",""
"","","","","","html-keyboard-response","73","339382","0.0-73.0-0.0-0.0","56DC94578A4549BEABD987919A3F09D1","0199dbf4-a741-7a36-aebc-cf4e125284a6","0199dbe2-9616-7ebf-8a27-71b11f788553","","null","<div style=""display: flex; justify-content: center; align-items: center;"">
                     <img src=""images/causal/causal_series_4/causal_series_4_d.png"" style=""width: 300px; height: 300px;"" />
                   </div>","null","4","1","D","",""
"","","","","","survey-likert","74","340813","0.0-74.0","56DC94578A4549BEABD987919A3F09D1","0199dbf4-a741-7a36-aebc-cf4e125284a6","0199dbe2-9616-7ebf-8a27-71b11f788553","","1430","","{""Q0"":3}","4","1","surprise_rating","","[0]"
"","","","","","survey-likert","75","342764","0.0-75.0","56DC94578A4549BEABD987919A3F09D1","0199dbf4-a741-7a36-aebc-cf4e125284a6","0199dbe2-9616-7ebf-8a27-71b11f788553","","1950","","{""Q0"":2}","4","1","enjoyment_rating","","[0]"
"","","","","","html-keyboard-response","76","348767","0.0-76.0","56DC94578A4549BEABD987919A3F09D1","0199dbf4-a741-7a36-aebc-cf4e125284a6","0199dbe2-9616-7ebf-8a27-71b11f788553","","null","<div style=""display: flex; justify-content: center; align-items: center;"">
                     <img src=""images/other/blank.png"" style=""width: 300px; height: 300px;"" />
                   </div>","null","0","0","blank","",""
"","","","","","html-keyboard-response","77","354769","0.0-77.0","56DC94578A4549BEABD987919A3F09D1","0199dbf4-a741-7a36-aebc-cf4e125284a6","0199dbe2-9616-7ebf-8a27-71b11f788553","","null","<div style=""display: flex; justify-content: center; align-items: center;"">
                     <img src=""images/causal/causal_series_9/causal_series_9_a.png"" style=""width: 300px; height: 300px;"" />
                   </div>","null","9","1","A","",""
"","","","","","html-keyboard-response","78","360782","0.0-78.0","56DC94578A4549BEABD987919A3F09D1","0199dbf4-a741-7a36-aebc-cf4e125284a6","0199dbe2-9616-7ebf-8a27-71b11f788553","","null","<div style=""display: flex; justify-content: center; align-items: center;"">
                     <img src=""images/causal/causal_series_9/causal_series_9_b.png"" style=""width: 300px; height: 300px;"" />
                   </div>","null","9","1","B","",""
"","","","","","html-keyboard-response","79","366786","0.0-79.0","56DC94578A4549BEABD987919A3F09D1","0199dbf4-a741-7a36-aebc-cf4e125284a6","0199dbe2-9616-7ebf-8a27-71b11f788553","","null","<div style=""display: flex; justify-content: center; align-items: center;"">
                     <img src=""images/causal/causal_series_9/causal_series_9_c.png"" style=""width: 300px; height: 300px;"" />
                   </div>","null","9","1","C","",""
"","","","","","html-button-response","80","367510","0.0-80.0","56DC94578A4549BEABD987919A3F09D1","0199dbf4-a741-7a36-aebc-cf4e125284a6","0199dbe2-9616-7ebf-8a27-71b11f788553","","724","
        <div style=""display: flex; justify-content: center; align-items: center;"">
          <img src=""images/red_deck_2.png"" style=""width: 300px; height: 300px; margin-right: 10px;"" />
          <img src=""images/blue_deck_1.png"" style=""width: 300px; height: 300px;"" />
        </div>","0","9","1","choice","0",""
"","","","","","html-keyboard-response","81","373524","0.0-81.0-0.0-0.0","56DC94578A4549BEABD987919A3F09D1","0199dbf4-a741-7a36-aebc-cf4e125284a6","0199dbe2-9616-7ebf-8a27-71b11f788553","","null","<div style=""display: flex; justify-content: center; align-items: center;"">
                     <img src=""images/causal/causal_series_9/causal_series_9_d.png"" style=""width: 300px; height: 300px;"" />
                   </div>","null","9","1","D","",""
"","","","","","survey-likert","82","375000","0.0-82.0","56DC94578A4549BEABD987919A3F09D1","0199dbf4-a741-7a36-aebc-cf4e125284a6","0199dbe2-9616-7ebf-8a27-71b11f788553","","1475","","{""Q0"":4}","9","1","surprise_rating","","[0]"
"","","","","","survey-likert","83","377735","0.0-83.0","56DC94578A4549BEABD987919A3F09D1","0199dbf4-a741-7a36-aebc-cf4e125284a6","0199dbe2-9616-7ebf-8a27-71b11f788553","","2734","","{""Q0"":2}","9","1","enjoyment_rating","","[0]"
"","","","","","html-keyboard-response","84","383747","0.0-84.0","56DC94578A4549BEABD987919A3F09D1","0199dbf4-a741-7a36-aebc-cf4e125284a6","0199dbe2-9616-7ebf-8a27-71b11f788553","","null","<div style=""display: flex; justify-content: center; align-items: center;"">
                     <img src=""images/other/blank.png"" style=""width: 300px; height: 300px;"" />
                   </div>","null","0","0","blank","",""
"","","","","","survey-text","85","418062","0.0-85.0","56DC94578A4549BEABD987919A3F09D1","0199dbf4-a741-7a36-aebc-cf4e125284a6","0199dbe2-9616-7ebf-8a27-71b11f788553","","34313","","{""Q0"":""One gives new information and the other continues the story, not sure if it matters but ones blue and ones red.""}","","","","",""
"","","","","","html-button-response","86","421041","0.0-86.0","56DC94578A4549BEABD987919A3F09D1","0199dbf4-a741-7a36-aebc-cf4e125284a6","0199dbe2-9616-7ebf-8a27-71b11f788553","","2978","Which color deck do the following sentences continue the story from?","0","","","","",""
"","","","","","html-button-response","87","429439","0.0-87.0","56DC94578A4549BEABD987919A3F09D1","0199dbf4-a741-7a36-aebc-cf4e125284a6","0199dbe2-9616-7ebf-8a27-71b11f788553","","8398","Which color deck do the following sentences NOT follow the story from?","1","","","","",""
"","","","","","html-button-response","88","435554","0.0-88.0","56DC94578A4549BEABD987919A3F09D1","0199dbf4-a741-7a36-aebc-cf4e125284a6","0199dbe2-9616-7ebf-8a27-71b11f788553","","6114","Which type of deck did you prefer overall?","0","","","","",""
"","","","","","survey-text","89","441221","0.0-89.0","56DC94578A4549BEABD987919A3F09D1","0199dbf4-a741-7a36-aebc-cf4e125284a6","0199dbe2-9616-7ebf-8a27-71b11f788553","","5666","","{""Q0"":""MALE"",""Q1"":""18""}","","","","",""
"","","","","","instructions","90","444307","0.0-90.0","56DC94578A4549BEABD987919A3F09D1","0199dbf4-a741-7a36-aebc-cf4e125284a6","0199dbe2-9616-7ebf-8a27-71b11f788553","[{""page_index"":0,""viewing_time"":3086}]","3086","","","","","","",""
