"success","timeout","failed_images","failed_audio","failed_video","trial_type","trial_index","time_elapsed","internal_node_id","subject_id","study_id","session_id","view_history","rt","stimulus","response","choice","question_order"
"true","false","[]","[]","[]","preload","0","2947","0.0-0.0","11A98287465847AB9000F2735A768AC1","0199d57e-86e0-7fac-b5fd-777d014a0fe9","0199d56c-30bc-78d3-ad54-283e22699c7d","","","","","",""
"","","","","","instructions","1","5604","0.0-1.0","11A98287465847AB9000F2735A768AC1","0199d57e-86e0-7fac-b5fd-777d014a0fe9","0199d56c-30bc-78d3-ad54-283e22699c7d","[{""page_index"":0,""viewing_time"":2657}]","2657","","","",""
"","","","","","instructions","2","11290","0.0-2.0","11A98287465847AB9000F2735A768AC1","0199d57e-86e0-7fac-b5fd-777d014a0fe9","0199d56c-30bc-78d3-ad54-283e22699c7d","[{""page_index"":0,""viewing_time"":5685}]","5685","","","",""
"true","","","","","fullscreen","3","14098","0.0-3.0","11A98287465847AB9000F2735A768AC1","0199d57e-86e0-7fac-b5fd-777d014a0fe9","0199d56c-30bc-78d3-ad54-283e22699c7d","","1801","","","",""
"","","","","","instructions","4","25552","0.0-4.0","11A98287465847AB9000F2735A768AC1","0199d57e-86e0-7fac-b5fd-777d014a0fe9","0199d56c-30bc-78d3-ad54-283e22699c7d","[{""page_index"":0,""viewing_time"":11454}]","11454","","","",""
"","","","","","html-keyboard-response","5","32553","0.0-5.0","11A98287465847AB9000F2735A768AC1","0199d57e-86e0-7fac-b5fd-777d014a0fe9","0199d56c-30bc-78d3-ad54-283e22699c7d","","null","<div style=""display: flex; justify-content: center; align-items: center;"">
                     <img src=""images/causal/causal_series_5/causal_series_5_c.png"" style=""width: 300px; height: 300px;"" />
                   </div>","null","",""
"","","","","","html-button-response","6","33653","0.0-6.0","11A98287465847AB9000F2735A768AC1","0199d57e-86e0-7fac-b5fd-777d014a0fe9","0199d56c-30bc-78d3-ad54-283e22699c7d","","1100","
        <div style=""display: flex; justify-content: center; align-items: center;"">
          <img src=""images/red_deck_2.png"" style=""width: 300px; height: 300px; margin-right: 10px;"" />
          <img src=""images/blue_deck_1.png"" style=""width: 300px; height: 300px;"" />
        </div>","0","0",""
"","","","","","html-keyboard-response","7","40654","0.0-7.0-0.0-0.0","11A98287465847AB9000F2735A768AC1","0199d57e-86e0-7fac-b5fd-777d014a0fe9","0199d56c-30bc-78d3-ad54-283e22699c7d","","null","<div style=""display: flex; justify-content: center; align-items: center;"">
                     <img src=""images/causal/causal_series_5/causal_series_5_d.png"" style=""width: 300px; height: 300px;"" />
                   </div>","null","",""
"","","","","","survey-likert","8","44182","0.0-8.0","11A98287465847AB9000F2735A768AC1","0199d57e-86e0-7fac-b5fd-777d014a0fe9","0199d56c-30bc-78d3-ad54-283e22699c7d","","3526","","{""Q0"":0}","","[0]"
"","","","","","survey-likert","9","49148","0.0-9.0","11A98287465847AB9000F2735A768AC1","0199d57e-86e0-7fac-b5fd-777d014a0fe9","0199d56c-30bc-78d3-ad54-283e22699c7d","","4966","","{""Q0"":2}","","[0]"
"","","","","","html-keyboard-response","10","56157","0.0-10.0","11A98287465847AB9000F2735A768AC1","0199d57e-86e0-7fac-b5fd-777d014a0fe9","0199d56c-30bc-78d3-ad54-283e22699c7d","","null","<div style=""display: flex; justify-content: center; align-items: center;"">
                     <img src=""images/other/blank.png"" style=""width: 300px; height: 300px;"" />
                   </div>","null","",""
"","","","","","html-keyboard-response","11","63164","0.0-11.0","11A98287465847AB9000F2735A768AC1","0199d57e-86e0-7fac-b5fd-777d014a0fe9","0199d56c-30bc-78d3-ad54-283e22699c7d","","null","<div style=""display: flex; justify-content: center; align-items: center;"">
                     <img src=""images/causal/causal_series_9/causal_series_9_c.png"" style=""width: 300px; height: 300px;"" />
                   </div>","null","",""
"","","","","","html-button-response","12","64300","0.0-12.0","11A98287465847AB9000F2735A768AC1","0199d57e-86e0-7fac-b5fd-777d014a0fe9","0199d56c-30bc-78d3-ad54-283e22699c7d","","1136","
        <div style=""display: flex; justify-content: center; align-items: center;"">
          <img src=""images/red_deck_2.png"" style=""width: 300px; height: 300px; margin-right: 10px;"" />
          <img src=""images/blue_deck_1.png"" style=""width: 300px; height: 300px;"" />
        </div>","0","0",""
"","","","","","html-keyboard-response","13","71312","0.0-13.0-0.0-0.0","11A98287465847AB9000F2735A768AC1","0199d57e-86e0-7fac-b5fd-777d014a0fe9","0199d56c-30bc-78d3-ad54-283e22699c7d","","null","<div style=""display: flex; justify-content: center; align-items: center;"">
                     <img src=""images/causal/causal_series_9/causal_series_9_d.png"" style=""width: 300px; height: 300px;"" />
                   </div>","null","",""
"","","","","","survey-likert","14","76175","0.0-14.0","11A98287465847AB9000F2735A768AC1","0199d57e-86e0-7fac-b5fd-777d014a0fe9","0199d56c-30bc-78d3-ad54-283e22699c7d","","4862","","{""Q0"":0}","","[0]"
"","","","","","survey-likert","15","77958","0.0-15.0","11A98287465847AB9000F2735A768AC1","0199d57e-86e0-7fac-b5fd-777d014a0fe9","0199d56c-30bc-78d3-ad54-283e22699c7d","","1782","","{""Q0"":2}","","[0]"
"","","","","","html-keyboard-response","16","84966","0.0-16.0","11A98287465847AB9000F2735A768AC1","0199d57e-86e0-7fac-b5fd-777d014a0fe9","0199d56c-30bc-78d3-ad54-283e22699c7d","","null","<div style=""display: flex; justify-content: center; align-items: center;"">
                     <img src=""images/other/blank.png"" style=""width: 300px; height: 300px;"" />
                   </div>","null","",""
"","","","","","html-keyboard-response","17","91979","0.0-17.0","11A98287465847AB9000F2735A768AC1","0199d57e-86e0-7fac-b5fd-777d014a0fe9","0199d56c-30bc-78d3-ad54-283e22699c7d","","null","<div style=""display: flex; justify-content: center; align-items: center;"">
                     <img src=""images/causal/causal_series_8/causal_series_8_c.png"" style=""width: 300px; height: 300px;"" />
                   </div>","null","",""
"","","","","","html-button-response","18","93694","0.0-18.0","11A98287465847AB9000F2735A768AC1","0199d57e-86e0-7fac-b5fd-777d014a0fe9","0199d56c-30bc-78d3-ad54-283e22699c7d","","1714","
        <div style=""display: flex; justify-content: center; align-items: center;"">
          <img src=""images/red_deck_2.png"" style=""width: 300px; height: 300px; margin-right: 10px;"" />
          <img src=""images/blue_deck_1.png"" style=""width: 300px; height: 300px;"" />
        </div>","0","0",""
"","","","","","html-keyboard-response","19","100697","0.0-19.0-0.0-0.0","11A98287465847AB9000F2735A768AC1","0199d57e-86e0-7fac-b5fd-777d014a0fe9","0199d56c-30bc-78d3-ad54-283e22699c7d","","null","<div style=""display: flex; justify-content: center; align-items: center;"">
                     <img src=""images/causal/causal_series_8/causal_series_8_d.png"" style=""width: 300px; height: 300px;"" />
                   </div>","null","",""
"","","","","","survey-likert","20","108407","0.0-20.0","11A98287465847AB9000F2735A768AC1","0199d57e-86e0-7fac-b5fd-777d014a0fe9","0199d56c-30bc-78d3-ad54-283e22699c7d","","7710","","{""Q0"":0}","","[0]"
"","","","","","survey-likert","21","110477","0.0-21.0","11A98287465847AB9000F2735A768AC1","0199d57e-86e0-7fac-b5fd-777d014a0fe9","0199d56c-30bc-78d3-ad54-283e22699c7d","","2069","","{""Q0"":2}","","[0]"
"","","","","","html-keyboard-response","22","117486","0.0-22.0","11A98287465847AB9000F2735A768AC1","0199d57e-86e0-7fac-b5fd-777d014a0fe9","0199d56c-30bc-78d3-ad54-283e22699c7d","","null","<div style=""display: flex; justify-content: center; align-items: center;"">
                     <img src=""images/other/blank.png"" style=""width: 300px; height: 300px;"" />
                   </div>","null","",""
"","","","","","html-keyboard-response","23","124489","0.0-23.0","11A98287465847AB9000F2735A768AC1","0199d57e-86e0-7fac-b5fd-777d014a0fe9","0199d56c-30bc-78d3-ad54-283e22699c7d","","null","<div style=""display: flex; justify-content: center; align-items: center;"">
                     <img src=""images/causal/causal_series_2/causal_series_2_c.png"" style=""width: 300px; height: 300px;"" />
                   </div>","null","",""
"","","","","","html-button-response","24","126107","0.0-24.0","11A98287465847AB9000F2735A768AC1","0199d57e-86e0-7fac-b5fd-777d014a0fe9","0199d56c-30bc-78d3-ad54-283e22699c7d","","1617","
        <div style=""display: flex; justify-content: center; align-items: center;"">
          <img src=""images/red_deck_2.png"" style=""width: 300px; height: 300px; margin-right: 10px;"" />
          <img src=""images/blue_deck_1.png"" style=""width: 300px; height: 300px;"" />
        </div>","0","0",""
"","","","","","html-keyboard-response","25","133111","0.0-25.0-0.0-0.0","11A98287465847AB9000F2735A768AC1","0199d57e-86e0-7fac-b5fd-777d014a0fe9","0199d56c-30bc-78d3-ad54-283e22699c7d","","null","<div style=""display: flex; justify-content: center; align-items: center;"">
                     <img src=""images/causal/causal_series_2/causal_series_2_d.png"" style=""width: 300px; height: 300px;"" />
                   </div>","null","",""
"","","","","","survey-likert","26","137184","0.0-26.0","11A98287465847AB9000F2735A768AC1","0199d57e-86e0-7fac-b5fd-777d014a0fe9","0199d56c-30bc-78d3-ad54-283e22699c7d","","4072","","{""Q0"":0}","","[0]"
"","","","","","survey-likert","27","138680","0.0-27.0","11A98287465847AB9000F2735A768AC1","0199d57e-86e0-7fac-b5fd-777d014a0fe9","0199d56c-30bc-78d3-ad54-283e22699c7d","","1495","","{""Q0"":2}","","[0]"
"","","","","","html-keyboard-response","28","145696","0.0-28.0","11A98287465847AB9000F2735A768AC1","0199d57e-86e0-7fac-b5fd-777d014a0fe9","0199d56c-30bc-78d3-ad54-283e22699c7d","","null","<div style=""display: flex; justify-content: center; align-items: center;"">
                     <img src=""images/other/blank.png"" style=""width: 300px; height: 300px;"" />
                   </div>","null","",""
"","","","","","html-keyboard-response","29","152703","0.0-29.0","11A98287465847AB9000F2735A768AC1","0199d57e-86e0-7fac-b5fd-777d014a0fe9","0199d56c-30bc-78d3-ad54-283e22699c7d","","null","<div style=""display: flex; justify-content: center; align-items: center;"">
                     <img src=""images/causal/causal_series_10/causal_series_10_c.png"" style=""width: 300px; height: 300px;"" />
                   </div>","null","",""
"","","","","","html-button-response","30","153899","0.0-30.0","11A98287465847AB9000F2735A768AC1","0199d57e-86e0-7fac-b5fd-777d014a0fe9","0199d56c-30bc-78d3-ad54-283e22699c7d","","1195","
        <div style=""display: flex; justify-content: center; align-items: center;"">
          <img src=""images/red_deck_2.png"" style=""width: 300px; height: 300px; margin-right: 10px;"" />
          <img src=""images/blue_deck_1.png"" style=""width: 300px; height: 300px;"" />
        </div>","0","0",""
"","","","","","html-keyboard-response","31","160906","0.0-31.0-0.0-0.0","11A98287465847AB9000F2735A768AC1","0199d57e-86e0-7fac-b5fd-777d014a0fe9","0199d56c-30bc-78d3-ad54-283e22699c7d","","null","<div style=""display: flex; justify-content: center; align-items: center;"">
                     <img src=""images/causal/causal_series_10/causal_series_10_d.png"" style=""width: 300px; height: 300px;"" />
                   </div>","null","",""
"","","","","","survey-likert","32","162940","0.0-32.0","11A98287465847AB9000F2735A768AC1","0199d57e-86e0-7fac-b5fd-777d014a0fe9","0199d56c-30bc-78d3-ad54-283e22699c7d","","2033","","{""Q0"":0}","","[0]"
"","","","","","survey-likert","33","164317","0.0-33.0","11A98287465847AB9000F2735A768AC1","0199d57e-86e0-7fac-b5fd-777d014a0fe9","0199d56c-30bc-78d3-ad54-283e22699c7d","","1377","","{""Q0"":2}","","[0]"
"","","","","","html-keyboard-response","34","171327","0.0-34.0","11A98287465847AB9000F2735A768AC1","0199d57e-86e0-7fac-b5fd-777d014a0fe9","0199d56c-30bc-78d3-ad54-283e22699c7d","","null","<div style=""display: flex; justify-content: center; align-items: center;"">
                     <img src=""images/other/blank.png"" style=""width: 300px; height: 300px;"" />
                   </div>","null","",""
"","","","","","html-keyboard-response","35","178332","0.0-35.0","11A98287465847AB9000F2735A768AC1","0199d57e-86e0-7fac-b5fd-777d014a0fe9","0199d56c-30bc-78d3-ad54-283e22699c7d","","null","<div style=""display: flex; justify-content: center; align-items: center;"">
                     <img src=""images/causal/causal_series_4/causal_series_4_c.png"" style=""width: 300px; height: 300px;"" />
                   </div>","null","",""
"","","","","","html-button-response","36","179419","0.0-36.0","11A98287465847AB9000F2735A768AC1","0199d57e-86e0-7fac-b5fd-777d014a0fe9","0199d56c-30bc-78d3-ad54-283e22699c7d","","1086","
        <div style=""display: flex; justify-content: center; align-items: center;"">
          <img src=""images/red_deck_2.png"" style=""width: 300px; height: 300px; margin-right: 10px;"" />
          <img src=""images/blue_deck_1.png"" style=""width: 300px; height: 300px;"" />
        </div>","0","0",""
"","","","","","html-keyboard-response","37","186432","0.0-37.0-0.0-0.0","11A98287465847AB9000F2735A768AC1","0199d57e-86e0-7fac-b5fd-777d014a0fe9","0199d56c-30bc-78d3-ad54-283e22699c7d","","null","<div style=""display: flex; justify-content: center; align-items: center;"">
                     <img src=""images/causal/causal_series_4/causal_series_4_d.png"" style=""width: 300px; height: 300px;"" />
                   </div>","null","",""
"","","","","","survey-likert","38","188381","0.0-38.0","11A98287465847AB9000F2735A768AC1","0199d57e-86e0-7fac-b5fd-777d014a0fe9","0199d56c-30bc-78d3-ad54-283e22699c7d","","1949","","{""Q0"":0}","","[0]"
"","","","","","survey-likert","39","189538","0.0-39.0","11A98287465847AB9000F2735A768AC1","0199d57e-86e0-7fac-b5fd-777d014a0fe9","0199d56c-30bc-78d3-ad54-283e22699c7d","","1157","","{""Q0"":2}","","[0]"
"","","","","","html-keyboard-response","40","196541","0.0-40.0","11A98287465847AB9000F2735A768AC1","0199d57e-86e0-7fac-b5fd-777d014a0fe9","0199d56c-30bc-78d3-ad54-283e22699c7d","","null","<div style=""display: flex; justify-content: center; align-items: center;"">
                     <img src=""images/other/blank.png"" style=""width: 300px; height: 300px;"" />
                   </div>","null","",""
"","","","","","html-keyboard-response","41","203548","0.0-41.0","11A98287465847AB9000F2735A768AC1","0199d57e-86e0-7fac-b5fd-777d014a0fe9","0199d56c-30bc-78d3-ad54-283e22699c7d","","null","<div style=""display: flex; justify-content: center; align-items: center;"">
                     <img src=""images/causal/causal_series_6/causal_series_6_c.png"" style=""width: 300px; height: 300px;"" />
                   </div>","null","",""
"","","","","","html-button-response","42","204396","0.0-42.0","11A98287465847AB9000F2735A768AC1","0199d57e-86e0-7fac-b5fd-777d014a0fe9","0199d56c-30bc-78d3-ad54-283e22699c7d","","847","
        <div style=""display: flex; justify-content: center; align-items: center;"">
          <img src=""images/red_deck_2.png"" style=""width: 300px; height: 300px; margin-right: 10px;"" />
          <img src=""images/blue_deck_1.png"" style=""width: 300px; height: 300px;"" />
        </div>","0","0",""
"","","","","","html-keyboard-response","43","211411","0.0-43.0-0.0-0.0","11A98287465847AB9000F2735A768AC1","0199d57e-86e0-7fac-b5fd-777d014a0fe9","0199d56c-30bc-78d3-ad54-283e22699c7d","","null","<div style=""display: flex; justify-content: center; align-items: center;"">
                     <img src=""images/causal/causal_series_6/causal_series_6_d.png"" style=""width: 300px; height: 300px;"" />
                   </div>","null","",""
"","","","","","survey-likert","44","213045","0.0-44.0","11A98287465847AB9000F2735A768AC1","0199d57e-86e0-7fac-b5fd-777d014a0fe9","0199d56c-30bc-78d3-ad54-283e22699c7d","","1633","","{""Q0"":0}","","[0]"
"","","","","","survey-likert","45","214800","0.0-45.0","11A98287465847AB9000F2735A768AC1","0199d57e-86e0-7fac-b5fd-777d014a0fe9","0199d56c-30bc-78d3-ad54-283e22699c7d","","1755","","{""Q0"":2}","","[0]"
"","","","","","html-keyboard-response","46","221802","0.0-46.0","11A98287465847AB9000F2735A768AC1","0199d57e-86e0-7fac-b5fd-777d014a0fe9","0199d56c-30bc-78d3-ad54-283e22699c7d","","null","<div style=""display: flex; justify-content: center; align-items: center;"">
                     <img src=""images/other/blank.png"" style=""width: 300px; height: 300px;"" />
                   </div>","null","",""
"","","","","","html-keyboard-response","47","228808","0.0-47.0","11A98287465847AB9000F2735A768AC1","0199d57e-86e0-7fac-b5fd-777d014a0fe9","0199d56c-30bc-78d3-ad54-283e22699c7d","","null","<div style=""display: flex; justify-content: center; align-items: center;"">
                     <img src=""images/causal/causal_series_7/causal_series_7_c.png"" style=""width: 300px; height: 300px;"" />
                   </div>","null","",""
"","","","","","html-button-response","48","229814","0.0-48.0","11A98287465847AB9000F2735A768AC1","0199d57e-86e0-7fac-b5fd-777d014a0fe9","0199d56c-30bc-78d3-ad54-283e22699c7d","","1005","
        <div style=""display: flex; justify-content: center; align-items: center;"">
          <img src=""images/red_deck_2.png"" style=""width: 300px; height: 300px; margin-right: 10px;"" />
          <img src=""images/blue_deck_1.png"" style=""width: 300px; height: 300px;"" />
        </div>","0","0",""
"","","","","","html-keyboard-response","49","236814","0.0-49.0-0.0-0.0","11A98287465847AB9000F2735A768AC1","0199d57e-86e0-7fac-b5fd-777d014a0fe9","0199d56c-30bc-78d3-ad54-283e22699c7d","","null","<div style=""display: flex; justify-content: center; align-items: center;"">
                     <img src=""images/causal/causal_series_7/causal_series_7_d.png"" style=""width: 300px; height: 300px;"" />
                   </div>","null","",""
"","","","","","survey-likert","50","238756","0.0-50.0","11A98287465847AB9000F2735A768AC1","0199d57e-86e0-7fac-b5fd-777d014a0fe9","0199d56c-30bc-78d3-ad54-283e22699c7d","","1941","","{""Q0"":0}","","[0]"
"","","","","","survey-likert","51","241262","0.0-51.0","11A98287465847AB9000F2735A768AC1","0199d57e-86e0-7fac-b5fd-777d014a0fe9","0199d56c-30bc-78d3-ad54-283e22699c7d","","2505","","{""Q0"":2}","","[0]"
"","","","","","html-keyboard-response","52","248270","0.0-52.0","11A98287465847AB9000F2735A768AC1","0199d57e-86e0-7fac-b5fd-777d014a0fe9","0199d56c-30bc-78d3-ad54-283e22699c7d","","null","<div style=""display: flex; justify-content: center; align-items: center;"">
                     <img src=""images/other/blank.png"" style=""width: 300px; height: 300px;"" />
                   </div>","null","",""
"","","","","","html-keyboard-response","53","255286","0.0-53.0","11A98287465847AB9000F2735A768AC1","0199d57e-86e0-7fac-b5fd-777d014a0fe9","0199d56c-30bc-78d3-ad54-283e22699c7d","","null","<div style=""display: flex; justify-content: center; align-items: center;"">
                     <img src=""images/causal/causal_series_3/causal_series_3_c.png"" style=""width: 300px; height: 300px;"" />
                   </div>","null","",""
"","","","","","html-button-response","54","256456","0.0-54.0","11A98287465847AB9000F2735A768AC1","0199d57e-86e0-7fac-b5fd-777d014a0fe9","0199d56c-30bc-78d3-ad54-283e22699c7d","","1169","
        <div style=""display: flex; justify-content: center; align-items: center;"">
          <img src=""images/red_deck_2.png"" style=""width: 300px; height: 300px; margin-right: 10px;"" />
          <img src=""images/blue_deck_1.png"" style=""width: 300px; height: 300px;"" />
        </div>","0","0",""
"","","","","","html-keyboard-response","55","263456","0.0-55.0-0.0-0.0","11A98287465847AB9000F2735A768AC1","0199d57e-86e0-7fac-b5fd-777d014a0fe9","0199d56c-30bc-78d3-ad54-283e22699c7d","","null","<div style=""display: flex; justify-content: center; align-items: center;"">
                     <img src=""images/causal/causal_series_3/causal_series_3_d.png"" style=""width: 300px; height: 300px;"" />
                   </div>","null","",""
"","","","","","survey-likert","56","265237","0.0-56.0","11A98287465847AB9000F2735A768AC1","0199d57e-86e0-7fac-b5fd-777d014a0fe9","0199d56c-30bc-78d3-ad54-283e22699c7d","","1780","","{""Q0"":0}","","[0]"
"","","","","","survey-likert","57","266423","0.0-57.0","11A98287465847AB9000F2735A768AC1","0199d57e-86e0-7fac-b5fd-777d014a0fe9","0199d56c-30bc-78d3-ad54-283e22699c7d","","1185","","{""Q0"":2}","","[0]"
"","","","","","html-keyboard-response","58","273425","0.0-58.0","11A98287465847AB9000F2735A768AC1","0199d57e-86e0-7fac-b5fd-777d014a0fe9","0199d56c-30bc-78d3-ad54-283e22699c7d","","null","<div style=""display: flex; justify-content: center; align-items: center;"">
                     <img src=""images/other/blank.png"" style=""width: 300px; height: 300px;"" />
                   </div>","null","",""
"","","","","","html-keyboard-response","59","280439","0.0-59.0","11A98287465847AB9000F2735A768AC1","0199d57e-86e0-7fac-b5fd-777d014a0fe9","0199d56c-30bc-78d3-ad54-283e22699c7d","","null","<div style=""display: flex; justify-content: center; align-items: center;"">
                     <img src=""images/causal/causal_series_1/causal_series_1_c.png"" style=""width: 300px; height: 300px;"" />
                   </div>","null","",""
"","","","","","html-button-response","60","281245","0.0-60.0","11A98287465847AB9000F2735A768AC1","0199d57e-86e0-7fac-b5fd-777d014a0fe9","0199d56c-30bc-78d3-ad54-283e22699c7d","","805","
        <div style=""display: flex; justify-content: center; align-items: center;"">
          <img src=""images/red_deck_2.png"" style=""width: 300px; height: 300px; margin-right: 10px;"" />
          <img src=""images/blue_deck_1.png"" style=""width: 300px; height: 300px;"" />
        </div>","0","0",""
"","","","","","html-keyboard-response","61","288253","0.0-61.0-0.0-0.0","11A98287465847AB9000F2735A768AC1","0199d57e-86e0-7fac-b5fd-777d014a0fe9","0199d56c-30bc-78d3-ad54-283e22699c7d","","null","<div style=""display: flex; justify-content: center; align-items: center;"">
                     <img src=""images/causal/causal_series_1/causal_series_1_d.png"" style=""width: 300px; height: 300px;"" />
                   </div>","null","",""
"","","","","","survey-likert","62","289824","0.0-62.0","11A98287465847AB9000F2735A768AC1","0199d57e-86e0-7fac-b5fd-777d014a0fe9","0199d56c-30bc-78d3-ad54-283e22699c7d","","1570","","{""Q0"":1}","","[0]"
"","","","","","survey-likert","63","293028","0.0-63.0","11A98287465847AB9000F2735A768AC1","0199d57e-86e0-7fac-b5fd-777d014a0fe9","0199d56c-30bc-78d3-ad54-283e22699c7d","","3204","","{""Q0"":0}","","[0]"
"","","","","","html-keyboard-response","64","300036","0.0-64.0","11A98287465847AB9000F2735A768AC1","0199d57e-86e0-7fac-b5fd-777d014a0fe9","0199d56c-30bc-78d3-ad54-283e22699c7d","","null","<div style=""display: flex; justify-content: center; align-items: center;"">
                     <img src=""images/other/blank.png"" style=""width: 300px; height: 300px;"" />
                   </div>","null","",""
"","","","","","survey-text","65","325752","0.0-65.0","11A98287465847AB9000F2735A768AC1","0199d57e-86e0-7fac-b5fd-777d014a0fe9","0199d56c-30bc-78d3-ad54-283e22699c7d","","25714","","{""Q0"":""No, because I only ever chose the red deck.""}","",""
"","","","","","html-button-response","66","333746","0.0-66.0","11A98287465847AB9000F2735A768AC1","0199d57e-86e0-7fac-b5fd-777d014a0fe9","0199d56c-30bc-78d3-ad54-283e22699c7d","","7993","Which color deck do the following images continue the story from?","1","",""
"","","","","","html-button-response","67","336152","0.0-67.0","11A98287465847AB9000F2735A768AC1","0199d57e-86e0-7fac-b5fd-777d014a0fe9","0199d56c-30bc-78d3-ad54-283e22699c7d","","2406","Which color deck do the following images NOT follow the story from?","0","",""
"","","","","","html-button-response","68","340032","0.0-68.0","11A98287465847AB9000F2735A768AC1","0199d57e-86e0-7fac-b5fd-777d014a0fe9","0199d56c-30bc-78d3-ad54-283e22699c7d","","3880","Which type of deck did you prefer overall?","0","",""
"","","","","","survey-text","69","345338","0.0-69.0","11A98287465847AB9000F2735A768AC1","0199d57e-86e0-7fac-b5fd-777d014a0fe9","0199d56c-30bc-78d3-ad54-283e22699c7d","","5305","","{""Q0"":""MALE"",""Q1"":""32""}","",""
"","","","","","instructions","70","348538","0.0-70.0","11A98287465847AB9000F2735A768AC1","0199d57e-86e0-7fac-b5fd-777d014a0fe9","0199d56c-30bc-78d3-ad54-283e22699c7d","[{""page_index"":0,""viewing_time"":3199}]","3200","","","",""
