"success","timeout","failed_images","failed_audio","failed_video","trial_type","trial_index","time_elapsed","internal_node_id","subject_id","study_id","session_id","view_history","rt","stimulus","response","series","repetition","phase","choice","question_order"
"true","false","[]","[]","[]","preload","0","896","0.0-0.0","C8459A8A06F44AE0BD657FCE976BE519","0199d605-1172-7920-a7bf-c697132a17c4","0199d5ef-c7d4-7cab-a194-b2c3afbaf8e8","","","","","","","","",""
"","","","","","instructions","1","3534","0.0-1.0","C8459A8A06F44AE0BD657FCE976BE519","0199d605-1172-7920-a7bf-c697132a17c4","0199d5ef-c7d4-7cab-a194-b2c3afbaf8e8","[{""page_index"":0,""viewing_time"":2637}]","2637","","","","","","",""
"","","","","","instructions","2","8612","0.0-2.0","C8459A8A06F44AE0BD657FCE976BE519","0199d605-1172-7920-a7bf-c697132a17c4","0199d5ef-c7d4-7cab-a194-b2c3afbaf8e8","[{""page_index"":0,""viewing_time"":5077}]","5078","","","","","","",""
"true","","","","","fullscreen","3","11470","0.0-3.0","C8459A8A06F44AE0BD657FCE976BE519","0199d605-1172-7920-a7bf-c697132a17c4","0199d5ef-c7d4-7cab-a194-b2c3afbaf8e8","","1854","","","","","","",""
"","","","","","instructions","4","26131","0.0-4.0","C8459A8A06F44AE0BD657FCE976BE519","0199d605-1172-7920-a7bf-c697132a17c4","0199d5ef-c7d4-7cab-a194-b2c3afbaf8e8","[{""page_index"":0,""viewing_time"":14659}]","14659","","","","","","",""
"","","","","","html-keyboard-response","5","32137","0.0-5.0","C8459A8A06F44AE0BD657FCE976BE519","0199d605-1172-7920-a7bf-c697132a17c4","0199d5ef-c7d4-7cab-a194-b2c3afbaf8e8","","null","<div style=""display: flex; justify-content: center; align-items: center;"">
                     <img src=""images/causal/causal_series_8/causal_series_8_a.png"" style=""width: 300px; height: 300px;"" />
                   </div>","null","8","1","A","",""
"","","","","","html-keyboard-response","6","38141","0.0-6.0","C8459A8A06F44AE0BD657FCE976BE519","0199d605-1172-7920-a7bf-c697132a17c4","0199d5ef-c7d4-7cab-a194-b2c3afbaf8e8","","null","<div style=""display: flex; justify-content: center; align-items: center;"">
                     <img src=""images/causal/causal_series_8/causal_series_8_b.png"" style=""width: 300px; height: 300px;"" />
                   </div>","null","8","1","B","",""
"","","","","","html-keyboard-response","7","44144","0.0-7.0","C8459A8A06F44AE0BD657FCE976BE519","0199d605-1172-7920-a7bf-c697132a17c4","0199d5ef-c7d4-7cab-a194-b2c3afbaf8e8","","null","<div style=""display: flex; justify-content: center; align-items: center;"">
                     <img src=""images/causal/causal_series_8/causal_series_8_c.png"" style=""width: 300px; height: 300px;"" />
                   </div>","null","8","1","C","",""
"","","","","","html-button-response","8","47847","0.0-8.0","C8459A8A06F44AE0BD657FCE976BE519","0199d605-1172-7920-a7bf-c697132a17c4","0199d5ef-c7d4-7cab-a194-b2c3afbaf8e8","","3699","
        <div style=""display: flex; justify-content: center; align-items: center;"">
          <img src=""images/red_deck_2.png"" style=""width: 300px; height: 300px; margin-right: 10px;"" />
          <img src=""images/blue_deck_1.png"" style=""width: 300px; height: 300px;"" />
        </div>","0","8","1","choice","0",""
"","","","","","html-keyboard-response","9","53850","0.0-9.0-0.0-0.0","C8459A8A06F44AE0BD657FCE976BE519","0199d605-1172-7920-a7bf-c697132a17c4","0199d5ef-c7d4-7cab-a194-b2c3afbaf8e8","","null","<div style=""display: flex; justify-content: center; align-items: center;"">
                     <img src=""images/causal/causal_series_8/causal_series_8_d.png"" style=""width: 300px; height: 300px;"" />
                   </div>","null","8","1","D","",""
"","","","","","html-keyboard-response","10","59854","0.0-9.0-0.0-1.0","C8459A8A06F44AE0BD657FCE976BE519","0199d605-1172-7920-a7bf-c697132a17c4","0199d5ef-c7d4-7cab-a194-b2c3afbaf8e8","","null","<div style=""display: flex; justify-content: center; align-items: center;"">
                     <img src=""images/causal/causal_series_8/causal_series_8_e.png"" style=""width: 300px; height: 300px;"" />
                   </div>","null","8","1","E","",""
"","","","","","html-keyboard-response","11","65857","0.0-9.0-0.0-2.0","C8459A8A06F44AE0BD657FCE976BE519","0199d605-1172-7920-a7bf-c697132a17c4","0199d5ef-c7d4-7cab-a194-b2c3afbaf8e8","","null","<div style=""display: flex; justify-content: center; align-items: center;"">
                     <img src=""images/causal/causal_series_8/causal_series_8_f.png"" style=""width: 300px; height: 300px;"" />
                   </div>","null","8","1","F","",""
"","","","","","survey-likert","12","70758","0.0-10.0","C8459A8A06F44AE0BD657FCE976BE519","0199d605-1172-7920-a7bf-c697132a17c4","0199d5ef-c7d4-7cab-a194-b2c3afbaf8e8","","4896","","{""Q0"":3}","8","1","surprise_rating","","[0]"
"","","","","","survey-likert","13","74657","0.0-11.0","C8459A8A06F44AE0BD657FCE976BE519","0199d605-1172-7920-a7bf-c697132a17c4","0199d5ef-c7d4-7cab-a194-b2c3afbaf8e8","","3897","","{""Q0"":2}","8","1","enjoyment_rating","","[0]"
"","","","","","html-keyboard-response","14","80660","0.0-12.0","C8459A8A06F44AE0BD657FCE976BE519","0199d605-1172-7920-a7bf-c697132a17c4","0199d5ef-c7d4-7cab-a194-b2c3afbaf8e8","","null","<div style=""display: flex; justify-content: center; align-items: center;"">
                     <img src=""images/other/blank.png"" style=""width: 300px; height: 300px;"" />
                   </div>","null","0","0","blank","",""
"","","","","","html-keyboard-response","15","86663","0.0-13.0","C8459A8A06F44AE0BD657FCE976BE519","0199d605-1172-7920-a7bf-c697132a17c4","0199d5ef-c7d4-7cab-a194-b2c3afbaf8e8","","null","<div style=""display: flex; justify-content: center; align-items: center;"">
                     <img src=""images/causal/causal_series_10/causal_series_10_a.png"" style=""width: 300px; height: 300px;"" />
                   </div>","null","10","2","A","",""
"","","","","","html-keyboard-response","16","92666","0.0-14.0","C8459A8A06F44AE0BD657FCE976BE519","0199d605-1172-7920-a7bf-c697132a17c4","0199d5ef-c7d4-7cab-a194-b2c3afbaf8e8","","null","<div style=""display: flex; justify-content: center; align-items: center;"">
                     <img src=""images/causal/causal_series_10/causal_series_10_b.png"" style=""width: 300px; height: 300px;"" />
                   </div>","null","10","2","B","",""
"","","","","","html-keyboard-response","17","98669","0.0-15.0","C8459A8A06F44AE0BD657FCE976BE519","0199d605-1172-7920-a7bf-c697132a17c4","0199d5ef-c7d4-7cab-a194-b2c3afbaf8e8","","null","<div style=""display: flex; justify-content: center; align-items: center;"">
                     <img src=""images/causal/causal_series_10/causal_series_10_c.png"" style=""width: 300px; height: 300px;"" />
                   </div>","null","10","2","C","",""
"","","","","","html-button-response","18","100404","0.0-16.0","C8459A8A06F44AE0BD657FCE976BE519","0199d605-1172-7920-a7bf-c697132a17c4","0199d5ef-c7d4-7cab-a194-b2c3afbaf8e8","","1732","
        <div style=""display: flex; justify-content: center; align-items: center;"">
          <img src=""images/red_deck_2.png"" style=""width: 300px; height: 300px; margin-right: 10px;"" />
          <img src=""images/blue_deck_1.png"" style=""width: 300px; height: 300px;"" />
        </div>","1","10","2","choice","1",""
"","","","","","html-keyboard-response","19","106408","0.0-17.0-1.0-0.0","C8459A8A06F44AE0BD657FCE976BE519","0199d605-1172-7920-a7bf-c697132a17c4","0199d5ef-c7d4-7cab-a194-b2c3afbaf8e8","","null","<div style=""display: flex; justify-content: center; align-items: center;"">
                     <img src=""images/semantic/semantic_series_10/semantic_series_10_d.png"" style=""width: 300px; height: 300px;"" />
                   </div>","null","10","2","D","",""
"","","","","","html-keyboard-response","20","112411","0.0-17.0-1.0-1.0","C8459A8A06F44AE0BD657FCE976BE519","0199d605-1172-7920-a7bf-c697132a17c4","0199d5ef-c7d4-7cab-a194-b2c3afbaf8e8","","null","<div style=""display: flex; justify-content: center; align-items: center;"">
                     <img src=""images/semantic/semantic_series_10/semantic_series_10_e.png"" style=""width: 300px; height: 300px;"" />
                   </div>","null","10","2","E","",""
"","","","","","html-keyboard-response","21","118414","0.0-17.0-1.0-2.0","C8459A8A06F44AE0BD657FCE976BE519","0199d605-1172-7920-a7bf-c697132a17c4","0199d5ef-c7d4-7cab-a194-b2c3afbaf8e8","","null","<div style=""display: flex; justify-content: center; align-items: center;"">
                     <img src=""images/semantic/semantic_series_10/semantic_series_10_f.png"" style=""width: 300px; height: 300px;"" />
                   </div>","null","10","2","F","",""
"","","","","","survey-likert","22","121054","0.0-18.0","C8459A8A06F44AE0BD657FCE976BE519","0199d605-1172-7920-a7bf-c697132a17c4","0199d5ef-c7d4-7cab-a194-b2c3afbaf8e8","","2638","","{""Q0"":2}","10","2","surprise_rating","","[0]"
"","","","","","survey-likert","23","122824","0.0-19.0","C8459A8A06F44AE0BD657FCE976BE519","0199d605-1172-7920-a7bf-c697132a17c4","0199d5ef-c7d4-7cab-a194-b2c3afbaf8e8","","1768","","{""Q0"":1}","10","2","enjoyment_rating","","[0]"
"","","","","","html-keyboard-response","24","128827","0.0-20.0","C8459A8A06F44AE0BD657FCE976BE519","0199d605-1172-7920-a7bf-c697132a17c4","0199d5ef-c7d4-7cab-a194-b2c3afbaf8e8","","null","<div style=""display: flex; justify-content: center; align-items: center;"">
                     <img src=""images/other/blank.png"" style=""width: 300px; height: 300px;"" />
                   </div>","null","0","0","blank","",""
"","","","","","html-keyboard-response","25","134830","0.0-21.0","C8459A8A06F44AE0BD657FCE976BE519","0199d605-1172-7920-a7bf-c697132a17c4","0199d5ef-c7d4-7cab-a194-b2c3afbaf8e8","","null","<div style=""display: flex; justify-content: center; align-items: center;"">
                     <img src=""images/causal/causal_series_7/causal_series_7_a.png"" style=""width: 300px; height: 300px;"" />
                   </div>","null","7","1","A","",""
"","","","","","html-keyboard-response","26","140834","0.0-22.0","C8459A8A06F44AE0BD657FCE976BE519","0199d605-1172-7920-a7bf-c697132a17c4","0199d5ef-c7d4-7cab-a194-b2c3afbaf8e8","","null","<div style=""display: flex; justify-content: center; align-items: center;"">
                     <img src=""images/causal/causal_series_7/causal_series_7_b.png"" style=""width: 300px; height: 300px;"" />
                   </div>","null","7","1","B","",""
"","","","","","html-keyboard-response","27","146837","0.0-23.0","C8459A8A06F44AE0BD657FCE976BE519","0199d605-1172-7920-a7bf-c697132a17c4","0199d5ef-c7d4-7cab-a194-b2c3afbaf8e8","","null","<div style=""display: flex; justify-content: center; align-items: center;"">
                     <img src=""images/causal/causal_series_7/causal_series_7_c.png"" style=""width: 300px; height: 300px;"" />
                   </div>","null","7","1","C","",""
"","","","","","html-button-response","28","149482","0.0-24.0","C8459A8A06F44AE0BD657FCE976BE519","0199d605-1172-7920-a7bf-c697132a17c4","0199d5ef-c7d4-7cab-a194-b2c3afbaf8e8","","2642","
        <div style=""display: flex; justify-content: center; align-items: center;"">
          <img src=""images/red_deck_2.png"" style=""width: 300px; height: 300px; margin-right: 10px;"" />
          <img src=""images/blue_deck_1.png"" style=""width: 300px; height: 300px;"" />
        </div>","0","7","1","choice","0",""
"","","","","","html-keyboard-response","29","155486","0.0-25.0-0.0-0.0","C8459A8A06F44AE0BD657FCE976BE519","0199d605-1172-7920-a7bf-c697132a17c4","0199d5ef-c7d4-7cab-a194-b2c3afbaf8e8","","null","<div style=""display: flex; justify-content: center; align-items: center;"">
                     <img src=""images/causal/causal_series_7/causal_series_7_d.png"" style=""width: 300px; height: 300px;"" />
                   </div>","null","7","1","D","",""
"","","","","","html-keyboard-response","30","161489","0.0-25.0-0.0-1.0","C8459A8A06F44AE0BD657FCE976BE519","0199d605-1172-7920-a7bf-c697132a17c4","0199d5ef-c7d4-7cab-a194-b2c3afbaf8e8","","null","<div style=""display: flex; justify-content: center; align-items: center;"">
                     <img src=""images/causal/causal_series_7/causal_series_7_e.png"" style=""width: 300px; height: 300px;"" />
                   </div>","null","7","1","E","",""
"","","","","","html-keyboard-response","31","167492","0.0-25.0-0.0-2.0","C8459A8A06F44AE0BD657FCE976BE519","0199d605-1172-7920-a7bf-c697132a17c4","0199d5ef-c7d4-7cab-a194-b2c3afbaf8e8","","null","<div style=""display: flex; justify-content: center; align-items: center;"">
                     <img src=""images/causal/causal_series_7/causal_series_7_f.png"" style=""width: 300px; height: 300px;"" />
                   </div>","null","7","1","F","",""
"","","","","","survey-likert","32","170459","0.0-26.0","C8459A8A06F44AE0BD657FCE976BE519","0199d605-1172-7920-a7bf-c697132a17c4","0199d5ef-c7d4-7cab-a194-b2c3afbaf8e8","","2964","","{""Q0"":2}","7","1","surprise_rating","","[0]"
"","","","","","survey-likert","33","172087","0.0-27.0","C8459A8A06F44AE0BD657FCE976BE519","0199d605-1172-7920-a7bf-c697132a17c4","0199d5ef-c7d4-7cab-a194-b2c3afbaf8e8","","1626","","{""Q0"":1}","7","1","enjoyment_rating","","[0]"
"","","","","","html-keyboard-response","34","178091","0.0-28.0","C8459A8A06F44AE0BD657FCE976BE519","0199d605-1172-7920-a7bf-c697132a17c4","0199d5ef-c7d4-7cab-a194-b2c3afbaf8e8","","null","<div style=""display: flex; justify-content: center; align-items: center;"">
                     <img src=""images/other/blank.png"" style=""width: 300px; height: 300px;"" />
                   </div>","null","0","0","blank","",""
"","","","","","html-keyboard-response","35","184095","0.0-29.0","C8459A8A06F44AE0BD657FCE976BE519","0199d605-1172-7920-a7bf-c697132a17c4","0199d5ef-c7d4-7cab-a194-b2c3afbaf8e8","","null","<div style=""display: flex; justify-content: center; align-items: center;"">
                     <img src=""images/causal/causal_series_10/causal_series_10_a.png"" style=""width: 300px; height: 300px;"" />
                   </div>","null","10","1","A","",""
"","","","","","html-keyboard-response","36","190098","0.0-30.0","C8459A8A06F44AE0BD657FCE976BE519","0199d605-1172-7920-a7bf-c697132a17c4","0199d5ef-c7d4-7cab-a194-b2c3afbaf8e8","","null","<div style=""display: flex; justify-content: center; align-items: center;"">
                     <img src=""images/causal/causal_series_10/causal_series_10_b.png"" style=""width: 300px; height: 300px;"" />
                   </div>","null","10","1","B","",""
"","","","","","html-keyboard-response","37","196101","0.0-31.0","C8459A8A06F44AE0BD657FCE976BE519","0199d605-1172-7920-a7bf-c697132a17c4","0199d5ef-c7d4-7cab-a194-b2c3afbaf8e8","","null","<div style=""display: flex; justify-content: center; align-items: center;"">
                     <img src=""images/causal/causal_series_10/causal_series_10_c.png"" style=""width: 300px; height: 300px;"" />
                   </div>","null","10","1","C","",""
"","","","","","html-button-response","38","197020","0.0-32.0","C8459A8A06F44AE0BD657FCE976BE519","0199d605-1172-7920-a7bf-c697132a17c4","0199d5ef-c7d4-7cab-a194-b2c3afbaf8e8","","917","
        <div style=""display: flex; justify-content: center; align-items: center;"">
          <img src=""images/red_deck_2.png"" style=""width: 300px; height: 300px; margin-right: 10px;"" />
          <img src=""images/blue_deck_1.png"" style=""width: 300px; height: 300px;"" />
        </div>","0","10","1","choice","0",""
"","","","","","html-keyboard-response","39","203024","0.0-33.0-0.0-0.0","C8459A8A06F44AE0BD657FCE976BE519","0199d605-1172-7920-a7bf-c697132a17c4","0199d5ef-c7d4-7cab-a194-b2c3afbaf8e8","","null","<div style=""display: flex; justify-content: center; align-items: center;"">
                     <img src=""images/causal/causal_series_10/causal_series_10_d.png"" style=""width: 300px; height: 300px;"" />
                   </div>","null","10","1","D","",""
"","","","","","html-keyboard-response","40","209027","0.0-33.0-0.0-1.0","C8459A8A06F44AE0BD657FCE976BE519","0199d605-1172-7920-a7bf-c697132a17c4","0199d5ef-c7d4-7cab-a194-b2c3afbaf8e8","","null","<div style=""display: flex; justify-content: center; align-items: center;"">
                     <img src=""images/causal/causal_series_10/causal_series_10_e.png"" style=""width: 300px; height: 300px;"" />
                   </div>","null","10","1","E","",""
"","","","","","html-keyboard-response","41","215030","0.0-33.0-0.0-2.0","C8459A8A06F44AE0BD657FCE976BE519","0199d605-1172-7920-a7bf-c697132a17c4","0199d5ef-c7d4-7cab-a194-b2c3afbaf8e8","","null","<div style=""display: flex; justify-content: center; align-items: center;"">
                     <img src=""images/causal/causal_series_10/causal_series_10_f.png"" style=""width: 300px; height: 300px;"" />
                   </div>","null","10","1","F","",""
"","","","","","survey-likert","42","218500","0.0-34.0","C8459A8A06F44AE0BD657FCE976BE519","0199d605-1172-7920-a7bf-c697132a17c4","0199d5ef-c7d4-7cab-a194-b2c3afbaf8e8","","3468","","{""Q0"":2}","10","1","surprise_rating","","[0]"
"","","","","","survey-likert","43","221415","0.0-35.0","C8459A8A06F44AE0BD657FCE976BE519","0199d605-1172-7920-a7bf-c697132a17c4","0199d5ef-c7d4-7cab-a194-b2c3afbaf8e8","","2913","","{""Q0"":1}","10","1","enjoyment_rating","","[0]"
"","","","","","html-keyboard-response","44","227418","0.0-36.0","C8459A8A06F44AE0BD657FCE976BE519","0199d605-1172-7920-a7bf-c697132a17c4","0199d5ef-c7d4-7cab-a194-b2c3afbaf8e8","","null","<div style=""display: flex; justify-content: center; align-items: center;"">
                     <img src=""images/other/blank.png"" style=""width: 300px; height: 300px;"" />
                   </div>","null","0","0","blank","",""
"","","","","","html-keyboard-response","45","233422","0.0-37.0","C8459A8A06F44AE0BD657FCE976BE519","0199d605-1172-7920-a7bf-c697132a17c4","0199d5ef-c7d4-7cab-a194-b2c3afbaf8e8","","null","<div style=""display: flex; justify-content: center; align-items: center;"">
                     <img src=""images/causal/causal_series_1/causal_series_1_a.png"" style=""width: 300px; height: 300px;"" />
                   </div>","null","1","2","A","",""
"","","","","","html-keyboard-response","46","239425","0.0-38.0","C8459A8A06F44AE0BD657FCE976BE519","0199d605-1172-7920-a7bf-c697132a17c4","0199d5ef-c7d4-7cab-a194-b2c3afbaf8e8","","null","<div style=""display: flex; justify-content: center; align-items: center;"">
                     <img src=""images/causal/causal_series_1/causal_series_1_b.png"" style=""width: 300px; height: 300px;"" />
                   </div>","null","1","2","B","",""
"","","","","","html-keyboard-response","47","245428","0.0-39.0","C8459A8A06F44AE0BD657FCE976BE519","0199d605-1172-7920-a7bf-c697132a17c4","0199d5ef-c7d4-7cab-a194-b2c3afbaf8e8","","null","<div style=""display: flex; justify-content: center; align-items: center;"">
                     <img src=""images/causal/causal_series_1/causal_series_1_c.png"" style=""width: 300px; height: 300px;"" />
                   </div>","null","1","2","C","",""
"","","","","","html-button-response","48","247164","0.0-40.0","C8459A8A06F44AE0BD657FCE976BE519","0199d605-1172-7920-a7bf-c697132a17c4","0199d5ef-c7d4-7cab-a194-b2c3afbaf8e8","","1734","
        <div style=""display: flex; justify-content: center; align-items: center;"">
          <img src=""images/red_deck_2.png"" style=""width: 300px; height: 300px; margin-right: 10px;"" />
          <img src=""images/blue_deck_1.png"" style=""width: 300px; height: 300px;"" />
        </div>","0","1","2","choice","0",""
"","","","","","html-keyboard-response","49","253167","0.0-41.0-0.0-0.0","C8459A8A06F44AE0BD657FCE976BE519","0199d605-1172-7920-a7bf-c697132a17c4","0199d5ef-c7d4-7cab-a194-b2c3afbaf8e8","","null","<div style=""display: flex; justify-content: center; align-items: center;"">
                     <img src=""images/causal/causal_series_1/causal_series_1_d.png"" style=""width: 300px; height: 300px;"" />
                   </div>","null","1","2","D","",""
"","","","","","html-keyboard-response","50","259170","0.0-41.0-0.0-1.0","C8459A8A06F44AE0BD657FCE976BE519","0199d605-1172-7920-a7bf-c697132a17c4","0199d5ef-c7d4-7cab-a194-b2c3afbaf8e8","","null","<div style=""display: flex; justify-content: center; align-items: center;"">
                     <img src=""images/causal/causal_series_1/causal_series_1_e.png"" style=""width: 300px; height: 300px;"" />
                   </div>","null","1","2","E","",""
"","","","","","html-keyboard-response","51","265173","0.0-41.0-0.0-2.0","C8459A8A06F44AE0BD657FCE976BE519","0199d605-1172-7920-a7bf-c697132a17c4","0199d5ef-c7d4-7cab-a194-b2c3afbaf8e8","","null","<div style=""display: flex; justify-content: center; align-items: center;"">
                     <img src=""images/causal/causal_series_1/causal_series_1_f.png"" style=""width: 300px; height: 300px;"" />
                   </div>","null","1","2","F","",""
"","","","","","survey-likert","52","266992","0.0-42.0","C8459A8A06F44AE0BD657FCE976BE519","0199d605-1172-7920-a7bf-c697132a17c4","0199d5ef-c7d4-7cab-a194-b2c3afbaf8e8","","1816","","{""Q0"":2}","1","2","surprise_rating","","[0]"
"","","","","","survey-likert","53","268816","0.0-43.0","C8459A8A06F44AE0BD657FCE976BE519","0199d605-1172-7920-a7bf-c697132a17c4","0199d5ef-c7d4-7cab-a194-b2c3afbaf8e8","","1822","","{""Q0"":0}","1","2","enjoyment_rating","","[0]"
"","","","","","html-keyboard-response","54","274819","0.0-44.0","C8459A8A06F44AE0BD657FCE976BE519","0199d605-1172-7920-a7bf-c697132a17c4","0199d5ef-c7d4-7cab-a194-b2c3afbaf8e8","","null","<div style=""display: flex; justify-content: center; align-items: center;"">
                     <img src=""images/other/blank.png"" style=""width: 300px; height: 300px;"" />
                   </div>","null","0","0","blank","",""
"","","","","","html-keyboard-response","55","280823","0.0-45.0","C8459A8A06F44AE0BD657FCE976BE519","0199d605-1172-7920-a7bf-c697132a17c4","0199d5ef-c7d4-7cab-a194-b2c3afbaf8e8","","null","<div style=""display: flex; justify-content: center; align-items: center;"">
                     <img src=""images/causal/causal_series_4/causal_series_4_a.png"" style=""width: 300px; height: 300px;"" />
                   </div>","null","4","2","A","",""
"","","","","","html-keyboard-response","56","286826","0.0-46.0","C8459A8A06F44AE0BD657FCE976BE519","0199d605-1172-7920-a7bf-c697132a17c4","0199d5ef-c7d4-7cab-a194-b2c3afbaf8e8","","null","<div style=""display: flex; justify-content: center; align-items: center;"">
                     <img src=""images/causal/causal_series_4/causal_series_4_b.png"" style=""width: 300px; height: 300px;"" />
                   </div>","null","4","2","B","",""
"","","","","","html-keyboard-response","57","292828","0.0-47.0","C8459A8A06F44AE0BD657FCE976BE519","0199d605-1172-7920-a7bf-c697132a17c4","0199d5ef-c7d4-7cab-a194-b2c3afbaf8e8","","null","<div style=""display: flex; justify-content: center; align-items: center;"">
                     <img src=""images/causal/causal_series_4/causal_series_4_c.png"" style=""width: 300px; height: 300px;"" />
                   </div>","null","4","2","C","",""
"","","","","","html-button-response","58","293881","0.0-48.0","C8459A8A06F44AE0BD657FCE976BE519","0199d605-1172-7920-a7bf-c697132a17c4","0199d5ef-c7d4-7cab-a194-b2c3afbaf8e8","","1051","
        <div style=""display: flex; justify-content: center; align-items: center;"">
          <img src=""images/red_deck_2.png"" style=""width: 300px; height: 300px; margin-right: 10px;"" />
          <img src=""images/blue_deck_1.png"" style=""width: 300px; height: 300px;"" />
        </div>","0","4","2","choice","0",""
"","","","","","html-keyboard-response","59","299885","0.0-49.0-0.0-0.0","C8459A8A06F44AE0BD657FCE976BE519","0199d605-1172-7920-a7bf-c697132a17c4","0199d5ef-c7d4-7cab-a194-b2c3afbaf8e8","","null","<div style=""display: flex; justify-content: center; align-items: center;"">
                     <img src=""images/causal/causal_series_4/causal_series_4_d.png"" style=""width: 300px; height: 300px;"" />
                   </div>","null","4","2","D","",""
"","","","","","html-keyboard-response","60","305887","0.0-49.0-0.0-1.0","C8459A8A06F44AE0BD657FCE976BE519","0199d605-1172-7920-a7bf-c697132a17c4","0199d5ef-c7d4-7cab-a194-b2c3afbaf8e8","","null","<div style=""display: flex; justify-content: center; align-items: center;"">
                     <img src=""images/causal/causal_series_4/causal_series_4_e.png"" style=""width: 300px; height: 300px;"" />
                   </div>","null","4","2","E","",""
"","","","","","html-keyboard-response","61","311889","0.0-49.0-0.0-2.0","C8459A8A06F44AE0BD657FCE976BE519","0199d605-1172-7920-a7bf-c697132a17c4","0199d5ef-c7d4-7cab-a194-b2c3afbaf8e8","","null","<div style=""display: flex; justify-content: center; align-items: center;"">
                     <img src=""images/causal/causal_series_4/causal_series_4_f.png"" style=""width: 300px; height: 300px;"" />
                   </div>","null","4","2","F","",""
"","","","","","survey-likert","62","313766","0.0-50.0","C8459A8A06F44AE0BD657FCE976BE519","0199d605-1172-7920-a7bf-c697132a17c4","0199d5ef-c7d4-7cab-a194-b2c3afbaf8e8","","1875","","{""Q0"":2}","4","2","surprise_rating","","[0]"
"","","","","","survey-likert","63","315342","0.0-51.0","C8459A8A06F44AE0BD657FCE976BE519","0199d605-1172-7920-a7bf-c697132a17c4","0199d5ef-c7d4-7cab-a194-b2c3afbaf8e8","","1574","","{""Q0"":1}","4","2","enjoyment_rating","","[0]"
"","","","","","html-keyboard-response","64","321344","0.0-52.0","C8459A8A06F44AE0BD657FCE976BE519","0199d605-1172-7920-a7bf-c697132a17c4","0199d5ef-c7d4-7cab-a194-b2c3afbaf8e8","","null","<div style=""display: flex; justify-content: center; align-items: center;"">
                     <img src=""images/other/blank.png"" style=""width: 300px; height: 300px;"" />
                   </div>","null","0","0","blank","",""
"","","","","","html-keyboard-response","65","327348","0.0-53.0","C8459A8A06F44AE0BD657FCE976BE519","0199d605-1172-7920-a7bf-c697132a17c4","0199d5ef-c7d4-7cab-a194-b2c3afbaf8e8","","null","<div style=""display: flex; justify-content: center; align-items: center;"">
                     <img src=""images/causal/causal_series_6/causal_series_6_a.png"" style=""width: 300px; height: 300px;"" />
                   </div>","null","6","2","A","",""
"","","","","","html-keyboard-response","66","333351","0.0-54.0","C8459A8A06F44AE0BD657FCE976BE519","0199d605-1172-7920-a7bf-c697132a17c4","0199d5ef-c7d4-7cab-a194-b2c3afbaf8e8","","null","<div style=""display: flex; justify-content: center; align-items: center;"">
                     <img src=""images/causal/causal_series_6/causal_series_6_b.png"" style=""width: 300px; height: 300px;"" />
                   </div>","null","6","2","B","",""
"","","","","","html-keyboard-response","67","339355","0.0-55.0","C8459A8A06F44AE0BD657FCE976BE519","0199d605-1172-7920-a7bf-c697132a17c4","0199d5ef-c7d4-7cab-a194-b2c3afbaf8e8","","null","<div style=""display: flex; justify-content: center; align-items: center;"">
                     <img src=""images/causal/causal_series_6/causal_series_6_c.png"" style=""width: 300px; height: 300px;"" />
                   </div>","null","6","2","C","",""
"","","","","","html-button-response","68","340936","0.0-56.0","C8459A8A06F44AE0BD657FCE976BE519","0199d605-1172-7920-a7bf-c697132a17c4","0199d5ef-c7d4-7cab-a194-b2c3afbaf8e8","","1578","
        <div style=""display: flex; justify-content: center; align-items: center;"">
          <img src=""images/red_deck_2.png"" style=""width: 300px; height: 300px; margin-right: 10px;"" />
          <img src=""images/blue_deck_1.png"" style=""width: 300px; height: 300px;"" />
        </div>","0","6","2","choice","0",""
"","","","","","html-keyboard-response","69","346939","0.0-57.0-0.0-0.0","C8459A8A06F44AE0BD657FCE976BE519","0199d605-1172-7920-a7bf-c697132a17c4","0199d5ef-c7d4-7cab-a194-b2c3afbaf8e8","","null","<div style=""display: flex; justify-content: center; align-items: center;"">
                     <img src=""images/causal/causal_series_6/causal_series_6_d.png"" style=""width: 300px; height: 300px;"" />
                   </div>","null","6","2","D","",""
"","","","","","html-keyboard-response","70","352943","0.0-57.0-0.0-1.0","C8459A8A06F44AE0BD657FCE976BE519","0199d605-1172-7920-a7bf-c697132a17c4","0199d5ef-c7d4-7cab-a194-b2c3afbaf8e8","","null","<div style=""display: flex; justify-content: center; align-items: center;"">
                     <img src=""images/causal/causal_series_6/causal_series_6_e.png"" style=""width: 300px; height: 300px;"" />
                   </div>","null","6","2","E","",""
"","","","","","html-keyboard-response","71","358945","0.0-57.0-0.0-2.0","C8459A8A06F44AE0BD657FCE976BE519","0199d605-1172-7920-a7bf-c697132a17c4","0199d5ef-c7d4-7cab-a194-b2c3afbaf8e8","","null","<div style=""display: flex; justify-content: center; align-items: center;"">
                     <img src=""images/causal/causal_series_6/causal_series_6_f.png"" style=""width: 300px; height: 300px;"" />
                   </div>","null","6","2","F","",""
"","","","","","survey-likert","72","360624","0.0-58.0","C8459A8A06F44AE0BD657FCE976BE519","0199d605-1172-7920-a7bf-c697132a17c4","0199d5ef-c7d4-7cab-a194-b2c3afbaf8e8","","1677","","{""Q0"":1}","6","2","surprise_rating","","[0]"
"","","","","","survey-likert","73","362219","0.0-59.0","C8459A8A06F44AE0BD657FCE976BE519","0199d605-1172-7920-a7bf-c697132a17c4","0199d5ef-c7d4-7cab-a194-b2c3afbaf8e8","","1594","","{""Q0"":1}","6","2","enjoyment_rating","","[0]"
"","","","","","html-keyboard-response","74","368223","0.0-60.0","C8459A8A06F44AE0BD657FCE976BE519","0199d605-1172-7920-a7bf-c697132a17c4","0199d5ef-c7d4-7cab-a194-b2c3afbaf8e8","","null","<div style=""display: flex; justify-content: center; align-items: center;"">
                     <img src=""images/other/blank.png"" style=""width: 300px; height: 300px;"" />
                   </div>","null","0","0","blank","",""
"","","","","","html-keyboard-response","75","374226","0.0-61.0","C8459A8A06F44AE0BD657FCE976BE519","0199d605-1172-7920-a7bf-c697132a17c4","0199d5ef-c7d4-7cab-a194-b2c3afbaf8e8","","null","<div style=""display: flex; justify-content: center; align-items: center;"">
                     <img src=""images/causal/causal_series_8/causal_series_8_a.png"" style=""width: 300px; height: 300px;"" />
                   </div>","null","8","2","A","",""
"","","","","","html-keyboard-response","76","380230","0.0-62.0","C8459A8A06F44AE0BD657FCE976BE519","0199d605-1172-7920-a7bf-c697132a17c4","0199d5ef-c7d4-7cab-a194-b2c3afbaf8e8","","null","<div style=""display: flex; justify-content: center; align-items: center;"">
                     <img src=""images/causal/causal_series_8/causal_series_8_b.png"" style=""width: 300px; height: 300px;"" />
                   </div>","null","8","2","B","",""
"","","","","","html-keyboard-response","77","386232","0.0-63.0","C8459A8A06F44AE0BD657FCE976BE519","0199d605-1172-7920-a7bf-c697132a17c4","0199d5ef-c7d4-7cab-a194-b2c3afbaf8e8","","null","<div style=""display: flex; justify-content: center; align-items: center;"">
                     <img src=""images/causal/causal_series_8/causal_series_8_c.png"" style=""width: 300px; height: 300px;"" />
                   </div>","null","8","2","C","",""
"","","","","","html-button-response","78","387232","0.0-64.0","C8459A8A06F44AE0BD657FCE976BE519","0199d605-1172-7920-a7bf-c697132a17c4","0199d5ef-c7d4-7cab-a194-b2c3afbaf8e8","","997","
        <div style=""display: flex; justify-content: center; align-items: center;"">
          <img src=""images/red_deck_2.png"" style=""width: 300px; height: 300px; margin-right: 10px;"" />
          <img src=""images/blue_deck_1.png"" style=""width: 300px; height: 300px;"" />
        </div>","0","8","2","choice","0",""
"","","","","","html-keyboard-response","79","393236","0.0-65.0-0.0-0.0","C8459A8A06F44AE0BD657FCE976BE519","0199d605-1172-7920-a7bf-c697132a17c4","0199d5ef-c7d4-7cab-a194-b2c3afbaf8e8","","null","<div style=""display: flex; justify-content: center; align-items: center;"">
                     <img src=""images/causal/causal_series_8/causal_series_8_d.png"" style=""width: 300px; height: 300px;"" />
                   </div>","null","8","2","D","",""
"","","","","","html-keyboard-response","80","399239","0.0-65.0-0.0-1.0","C8459A8A06F44AE0BD657FCE976BE519","0199d605-1172-7920-a7bf-c697132a17c4","0199d5ef-c7d4-7cab-a194-b2c3afbaf8e8","","null","<div style=""display: flex; justify-content: center; align-items: center;"">
                     <img src=""images/causal/causal_series_8/causal_series_8_e.png"" style=""width: 300px; height: 300px;"" />
                   </div>","null","8","2","E","",""
"","","","","","html-keyboard-response","81","405242","0.0-65.0-0.0-2.0","C8459A8A06F44AE0BD657FCE976BE519","0199d605-1172-7920-a7bf-c697132a17c4","0199d5ef-c7d4-7cab-a194-b2c3afbaf8e8","","null","<div style=""display: flex; justify-content: center; align-items: center;"">
                     <img src=""images/causal/causal_series_8/causal_series_8_f.png"" style=""width: 300px; height: 300px;"" />
                   </div>","null","8","2","F","",""
"","","","","","survey-likert","82","406978","0.0-66.0","C8459A8A06F44AE0BD657FCE976BE519","0199d605-1172-7920-a7bf-c697132a17c4","0199d5ef-c7d4-7cab-a194-b2c3afbaf8e8","","1734","","{""Q0"":0}","8","2","surprise_rating","","[0]"
"","","","","","survey-likert","83","409265","0.0-67.0","C8459A8A06F44AE0BD657FCE976BE519","0199d605-1172-7920-a7bf-c697132a17c4","0199d5ef-c7d4-7cab-a194-b2c3afbaf8e8","","2285","","{""Q0"":1}","8","2","enjoyment_rating","","[0]"
"","","","","","html-keyboard-response","84","415268","0.0-68.0","C8459A8A06F44AE0BD657FCE976BE519","0199d605-1172-7920-a7bf-c697132a17c4","0199d5ef-c7d4-7cab-a194-b2c3afbaf8e8","","null","<div style=""display: flex; justify-content: center; align-items: center;"">
                     <img src=""images/other/blank.png"" style=""width: 300px; height: 300px;"" />
                   </div>","null","0","0","blank","",""
"","","","","","html-keyboard-response","85","421272","0.0-69.0","C8459A8A06F44AE0BD657FCE976BE519","0199d605-1172-7920-a7bf-c697132a17c4","0199d5ef-c7d4-7cab-a194-b2c3afbaf8e8","","null","<div style=""display: flex; justify-content: center; align-items: center;"">
                     <img src=""images/causal/causal_series_9/causal_series_9_a.png"" style=""width: 300px; height: 300px;"" />
                   </div>","null","9","1","A","",""
"","","","","","html-keyboard-response","86","427274","0.0-70.0","C8459A8A06F44AE0BD657FCE976BE519","0199d605-1172-7920-a7bf-c697132a17c4","0199d5ef-c7d4-7cab-a194-b2c3afbaf8e8","","null","<div style=""display: flex; justify-content: center; align-items: center;"">
                     <img src=""images/causal/causal_series_9/causal_series_9_b.png"" style=""width: 300px; height: 300px;"" />
                   </div>","null","9","1","B","",""
"","","","","","html-keyboard-response","87","433275","0.0-71.0","C8459A8A06F44AE0BD657FCE976BE519","0199d605-1172-7920-a7bf-c697132a17c4","0199d5ef-c7d4-7cab-a194-b2c3afbaf8e8","","null","<div style=""display: flex; justify-content: center; align-items: center;"">
                     <img src=""images/causal/causal_series_9/causal_series_9_c.png"" style=""width: 300px; height: 300px;"" />
                   </div>","null","9","1","C","",""
"","","","","","html-button-response","88","434432","0.0-72.0","C8459A8A06F44AE0BD657FCE976BE519","0199d605-1172-7920-a7bf-c697132a17c4","0199d5ef-c7d4-7cab-a194-b2c3afbaf8e8","","1155","
        <div style=""display: flex; justify-content: center; align-items: center;"">
          <img src=""images/red_deck_2.png"" style=""width: 300px; height: 300px; margin-right: 10px;"" />
          <img src=""images/blue_deck_1.png"" style=""width: 300px; height: 300px;"" />
        </div>","0","9","1","choice","0",""
"","","","","","html-keyboard-response","89","440436","0.0-73.0-0.0-0.0","C8459A8A06F44AE0BD657FCE976BE519","0199d605-1172-7920-a7bf-c697132a17c4","0199d5ef-c7d4-7cab-a194-b2c3afbaf8e8","","null","<div style=""display: flex; justify-content: center; align-items: center;"">
                     <img src=""images/causal/causal_series_9/causal_series_9_d.png"" style=""width: 300px; height: 300px;"" />
                   </div>","null","9","1","D","",""
"","","","","","html-keyboard-response","90","446438","0.0-73.0-0.0-1.0","C8459A8A06F44AE0BD657FCE976BE519","0199d605-1172-7920-a7bf-c697132a17c4","0199d5ef-c7d4-7cab-a194-b2c3afbaf8e8","","null","<div style=""display: flex; justify-content: center; align-items: center;"">
                     <img src=""images/causal/causal_series_9/causal_series_9_e.png"" style=""width: 300px; height: 300px;"" />
                   </div>","null","9","1","E","",""
"","","","","","html-keyboard-response","91","452442","0.0-73.0-0.0-2.0","C8459A8A06F44AE0BD657FCE976BE519","0199d605-1172-7920-a7bf-c697132a17c4","0199d5ef-c7d4-7cab-a194-b2c3afbaf8e8","","null","<div style=""display: flex; justify-content: center; align-items: center;"">
                     <img src=""images/causal/causal_series_9/causal_series_9_f.png"" style=""width: 300px; height: 300px;"" />
                   </div>","null","9","1","F","",""
"","","","","","survey-likert","92","455874","0.0-74.0","C8459A8A06F44AE0BD657FCE976BE519","0199d605-1172-7920-a7bf-c697132a17c4","0199d5ef-c7d4-7cab-a194-b2c3afbaf8e8","","3429","","{""Q0"":2}","9","1","surprise_rating","","[0]"
"","","","","","survey-likert","93","459318","0.0-75.0","C8459A8A06F44AE0BD657FCE976BE519","0199d605-1172-7920-a7bf-c697132a17c4","0199d5ef-c7d4-7cab-a194-b2c3afbaf8e8","","3443","","{""Q0"":2}","9","1","enjoyment_rating","","[0]"
"","","","","","html-keyboard-response","94","465321","0.0-76.0","C8459A8A06F44AE0BD657FCE976BE519","0199d605-1172-7920-a7bf-c697132a17c4","0199d5ef-c7d4-7cab-a194-b2c3afbaf8e8","","null","<div style=""display: flex; justify-content: center; align-items: center;"">
                     <img src=""images/other/blank.png"" style=""width: 300px; height: 300px;"" />
                   </div>","null","0","0","blank","",""
"","","","","","html-keyboard-response","95","471324","0.0-77.0","C8459A8A06F44AE0BD657FCE976BE519","0199d605-1172-7920-a7bf-c697132a17c4","0199d5ef-c7d4-7cab-a194-b2c3afbaf8e8","","null","<div style=""display: flex; justify-content: center; align-items: center;"">
                     <img src=""images/causal/causal_series_6/causal_series_6_a.png"" style=""width: 300px; height: 300px;"" />
                   </div>","null","6","1","A","",""
"","","","","","html-keyboard-response","96","477327","0.0-78.0","C8459A8A06F44AE0BD657FCE976BE519","0199d605-1172-7920-a7bf-c697132a17c4","0199d5ef-c7d4-7cab-a194-b2c3afbaf8e8","","null","<div style=""display: flex; justify-content: center; align-items: center;"">
                     <img src=""images/causal/causal_series_6/causal_series_6_b.png"" style=""width: 300px; height: 300px;"" />
                   </div>","null","6","1","B","",""
"","","","","","html-keyboard-response","97","483329","0.0-79.0","C8459A8A06F44AE0BD657FCE976BE519","0199d605-1172-7920-a7bf-c697132a17c4","0199d5ef-c7d4-7cab-a194-b2c3afbaf8e8","","null","<div style=""display: flex; justify-content: center; align-items: center;"">
                     <img src=""images/causal/causal_series_6/causal_series_6_c.png"" style=""width: 300px; height: 300px;"" />
                   </div>","null","6","1","C","",""
"","","","","","html-button-response","98","484681","0.0-80.0","C8459A8A06F44AE0BD657FCE976BE519","0199d605-1172-7920-a7bf-c697132a17c4","0199d5ef-c7d4-7cab-a194-b2c3afbaf8e8","","1350","
        <div style=""display: flex; justify-content: center; align-items: center;"">
          <img src=""images/red_deck_2.png"" style=""width: 300px; height: 300px; margin-right: 10px;"" />
          <img src=""images/blue_deck_1.png"" style=""width: 300px; height: 300px;"" />
        </div>","1","6","1","choice","1",""
"","","","","","html-keyboard-response","99","490684","0.0-81.0-1.0-0.0","C8459A8A06F44AE0BD657FCE976BE519","0199d605-1172-7920-a7bf-c697132a17c4","0199d5ef-c7d4-7cab-a194-b2c3afbaf8e8","","null","<div style=""display: flex; justify-content: center; align-items: center;"">
                     <img src=""images/semantic/semantic_series_6/semantic_series_6_d.png"" style=""width: 300px; height: 300px;"" />
                   </div>","null","6","1","D","",""
"","","","","","html-keyboard-response","100","496688","0.0-81.0-1.0-1.0","C8459A8A06F44AE0BD657FCE976BE519","0199d605-1172-7920-a7bf-c697132a17c4","0199d5ef-c7d4-7cab-a194-b2c3afbaf8e8","","null","<div style=""display: flex; justify-content: center; align-items: center;"">
                     <img src=""images/semantic/semantic_series_6/semantic_series_6_e.png"" style=""width: 300px; height: 300px;"" />
                   </div>","null","6","1","E","",""
"","","","","","html-keyboard-response","101","502691","0.0-81.0-1.0-2.0","C8459A8A06F44AE0BD657FCE976BE519","0199d605-1172-7920-a7bf-c697132a17c4","0199d5ef-c7d4-7cab-a194-b2c3afbaf8e8","","null","<div style=""display: flex; justify-content: center; align-items: center;"">
                     <img src=""images/semantic/semantic_series_6/semantic_series_6_f.png"" style=""width: 300px; height: 300px;"" />
                   </div>","null","6","1","F","",""
"","","","","","survey-likert","102","504266","0.0-82.0","C8459A8A06F44AE0BD657FCE976BE519","0199d605-1172-7920-a7bf-c697132a17c4","0199d5ef-c7d4-7cab-a194-b2c3afbaf8e8","","1572","","{""Q0"":0}","6","1","surprise_rating","","[0]"
"","","","","","survey-likert","103","506616","0.0-83.0","C8459A8A06F44AE0BD657FCE976BE519","0199d605-1172-7920-a7bf-c697132a17c4","0199d5ef-c7d4-7cab-a194-b2c3afbaf8e8","","2349","","{""Q0"":1}","6","1","enjoyment_rating","","[0]"
"","","","","","html-keyboard-response","104","512618","0.0-84.0","C8459A8A06F44AE0BD657FCE976BE519","0199d605-1172-7920-a7bf-c697132a17c4","0199d5ef-c7d4-7cab-a194-b2c3afbaf8e8","","null","<div style=""display: flex; justify-content: center; align-items: center;"">
                     <img src=""images/other/blank.png"" style=""width: 300px; height: 300px;"" />
                   </div>","null","0","0","blank","",""
"","","","","","html-keyboard-response","105","519545","0.0-85.0","C8459A8A06F44AE0BD657FCE976BE519","0199d605-1172-7920-a7bf-c697132a17c4","0199d5ef-c7d4-7cab-a194-b2c3afbaf8e8","","null","<div style=""display: flex; justify-content: center; align-items: center;"">
                     <img src=""images/causal/causal_series_9/causal_series_9_a.png"" style=""width: 300px; height: 300px;"" />
                   </div>","null","9","2","A","",""
"","","","","","html-keyboard-response","106","525547","0.0-86.0","C8459A8A06F44AE0BD657FCE976BE519","0199d605-1172-7920-a7bf-c697132a17c4","0199d5ef-c7d4-7cab-a194-b2c3afbaf8e8","","null","<div style=""display: flex; justify-content: center; align-items: center;"">
                     <img src=""images/causal/causal_series_9/causal_series_9_b.png"" style=""width: 300px; height: 300px;"" />
                   </div>","null","9","2","B","",""
"","","","","","html-keyboard-response","107","531550","0.0-87.0","C8459A8A06F44AE0BD657FCE976BE519","0199d605-1172-7920-a7bf-c697132a17c4","0199d5ef-c7d4-7cab-a194-b2c3afbaf8e8","","null","<div style=""display: flex; justify-content: center; align-items: center;"">
                     <img src=""images/causal/causal_series_9/causal_series_9_c.png"" style=""width: 300px; height: 300px;"" />
                   </div>","null","9","2","C","",""
"","","","","","html-button-response","108","532431","0.0-88.0","C8459A8A06F44AE0BD657FCE976BE519","0199d605-1172-7920-a7bf-c697132a17c4","0199d5ef-c7d4-7cab-a194-b2c3afbaf8e8","","880","
        <div style=""display: flex; justify-content: center; align-items: center;"">
          <img src=""images/red_deck_2.png"" style=""width: 300px; height: 300px; margin-right: 10px;"" />
          <img src=""images/blue_deck_1.png"" style=""width: 300px; height: 300px;"" />
        </div>","1","9","2","choice","1",""
"","","","","","html-keyboard-response","109","538434","0.0-89.0-1.0-0.0","C8459A8A06F44AE0BD657FCE976BE519","0199d605-1172-7920-a7bf-c697132a17c4","0199d5ef-c7d4-7cab-a194-b2c3afbaf8e8","","null","<div style=""display: flex; justify-content: center; align-items: center;"">
                     <img src=""images/semantic/semantic_series_9/semantic_series_9_d.png"" style=""width: 300px; height: 300px;"" />
                   </div>","null","9","2","D","",""
"","","","","","html-keyboard-response","110","544437","0.0-89.0-1.0-1.0","C8459A8A06F44AE0BD657FCE976BE519","0199d605-1172-7920-a7bf-c697132a17c4","0199d5ef-c7d4-7cab-a194-b2c3afbaf8e8","","null","<div style=""display: flex; justify-content: center; align-items: center;"">
                     <img src=""images/semantic/semantic_series_9/semantic_series_9_e.png"" style=""width: 300px; height: 300px;"" />
                   </div>","null","9","2","E","",""
"","","","","","html-keyboard-response","111","550440","0.0-89.0-1.0-2.0","C8459A8A06F44AE0BD657FCE976BE519","0199d605-1172-7920-a7bf-c697132a17c4","0199d5ef-c7d4-7cab-a194-b2c3afbaf8e8","","null","<div style=""display: flex; justify-content: center; align-items: center;"">
                     <img src=""images/semantic/semantic_series_9/semantic_series_9_f.png"" style=""width: 300px; height: 300px;"" />
                   </div>","null","9","2","F","",""
"","","","","","survey-likert","112","551840","0.0-90.0","C8459A8A06F44AE0BD657FCE976BE519","0199d605-1172-7920-a7bf-c697132a17c4","0199d5ef-c7d4-7cab-a194-b2c3afbaf8e8","","1398","","{""Q0"":1}","9","2","surprise_rating","","[0]"
"","","","","","survey-likert","113","553881","0.0-91.0","C8459A8A06F44AE0BD657FCE976BE519","0199d605-1172-7920-a7bf-c697132a17c4","0199d5ef-c7d4-7cab-a194-b2c3afbaf8e8","","2040","","{""Q0"":1}","9","2","enjoyment_rating","","[0]"
"","","","","","html-keyboard-response","114","559885","0.0-92.0","C8459A8A06F44AE0BD657FCE976BE519","0199d605-1172-7920-a7bf-c697132a17c4","0199d5ef-c7d4-7cab-a194-b2c3afbaf8e8","","null","<div style=""display: flex; justify-content: center; align-items: center;"">
                     <img src=""images/other/blank.png"" style=""width: 300px; height: 300px;"" />
                   </div>","null","0","0","blank","",""
"","","","","","html-keyboard-response","115","565888","0.0-93.0","C8459A8A06F44AE0BD657FCE976BE519","0199d605-1172-7920-a7bf-c697132a17c4","0199d5ef-c7d4-7cab-a194-b2c3afbaf8e8","","null","<div style=""display: flex; justify-content: center; align-items: center;"">
                     <img src=""images/causal/causal_series_7/causal_series_7_a.png"" style=""width: 300px; height: 300px;"" />
                   </div>","null","7","2","A","",""
"","","","","","html-keyboard-response","116","571891","0.0-94.0","C8459A8A06F44AE0BD657FCE976BE519","0199d605-1172-7920-a7bf-c697132a17c4","0199d5ef-c7d4-7cab-a194-b2c3afbaf8e8","","null","<div style=""display: flex; justify-content: center; align-items: center;"">
                     <img src=""images/causal/causal_series_7/causal_series_7_b.png"" style=""width: 300px; height: 300px;"" />
                   </div>","null","7","2","B","",""
"","","","","","html-keyboard-response","117","577894","0.0-95.0","C8459A8A06F44AE0BD657FCE976BE519","0199d605-1172-7920-a7bf-c697132a17c4","0199d5ef-c7d4-7cab-a194-b2c3afbaf8e8","","null","<div style=""display: flex; justify-content: center; align-items: center;"">
                     <img src=""images/causal/causal_series_7/causal_series_7_c.png"" style=""width: 300px; height: 300px;"" />
                   </div>","null","7","2","C","",""
"","","","","","html-button-response","118","578880","0.0-96.0","C8459A8A06F44AE0BD657FCE976BE519","0199d605-1172-7920-a7bf-c697132a17c4","0199d5ef-c7d4-7cab-a194-b2c3afbaf8e8","","983","
        <div style=""display: flex; justify-content: center; align-items: center;"">
          <img src=""images/red_deck_2.png"" style=""width: 300px; height: 300px; margin-right: 10px;"" />
          <img src=""images/blue_deck_1.png"" style=""width: 300px; height: 300px;"" />
        </div>","1","7","2","choice","1",""
"","","","","","html-keyboard-response","119","584883","0.0-97.0-1.0-0.0","C8459A8A06F44AE0BD657FCE976BE519","0199d605-1172-7920-a7bf-c697132a17c4","0199d5ef-c7d4-7cab-a194-b2c3afbaf8e8","","null","<div style=""display: flex; justify-content: center; align-items: center;"">
                     <img src=""images/semantic/semantic_series_7/semantic_series_7_d.png"" style=""width: 300px; height: 300px;"" />
                   </div>","null","7","2","D","",""
"","","","","","html-keyboard-response","120","590887","0.0-97.0-1.0-1.0","C8459A8A06F44AE0BD657FCE976BE519","0199d605-1172-7920-a7bf-c697132a17c4","0199d5ef-c7d4-7cab-a194-b2c3afbaf8e8","","null","<div style=""display: flex; justify-content: center; align-items: center;"">
                     <img src=""images/semantic/semantic_series_7/semantic_series_7_e.png"" style=""width: 300px; height: 300px;"" />
                   </div>","null","7","2","E","",""
"","","","","","html-keyboard-response","121","596890","0.0-97.0-1.0-2.0","C8459A8A06F44AE0BD657FCE976BE519","0199d605-1172-7920-a7bf-c697132a17c4","0199d5ef-c7d4-7cab-a194-b2c3afbaf8e8","","null","<div style=""display: flex; justify-content: center; align-items: center;"">
                     <img src=""images/semantic/semantic_series_7/semantic_series_7_f.png"" style=""width: 300px; height: 300px;"" />
                   </div>","null","7","2","F","",""
"","","","","","survey-likert","122","600340","0.0-98.0","C8459A8A06F44AE0BD657FCE976BE519","0199d605-1172-7920-a7bf-c697132a17c4","0199d5ef-c7d4-7cab-a194-b2c3afbaf8e8","","3448","","{""Q0"":2}","7","2","surprise_rating","","[0]"
"","","","","","survey-likert","123","602517","0.0-99.0","C8459A8A06F44AE0BD657FCE976BE519","0199d605-1172-7920-a7bf-c697132a17c4","0199d5ef-c7d4-7cab-a194-b2c3afbaf8e8","","2176","","{""Q0"":1}","7","2","enjoyment_rating","","[0]"
"","","","","","html-keyboard-response","124","608521","0.0-100.0","C8459A8A06F44AE0BD657FCE976BE519","0199d605-1172-7920-a7bf-c697132a17c4","0199d5ef-c7d4-7cab-a194-b2c3afbaf8e8","","null","<div style=""display: flex; justify-content: center; align-items: center;"">
                     <img src=""images/other/blank.png"" style=""width: 300px; height: 300px;"" />
                   </div>","null","0","0","blank","",""
"","","","","","html-keyboard-response","125","614524","0.0-101.0","C8459A8A06F44AE0BD657FCE976BE519","0199d605-1172-7920-a7bf-c697132a17c4","0199d5ef-c7d4-7cab-a194-b2c3afbaf8e8","","null","<div style=""display: flex; justify-content: center; align-items: center;"">
                     <img src=""images/causal/causal_series_5/causal_series_5_a.png"" style=""width: 300px; height: 300px;"" />
                   </div>","null","5","1","A","",""
"","","","","","html-keyboard-response","126","620528","0.0-102.0","C8459A8A06F44AE0BD657FCE976BE519","0199d605-1172-7920-a7bf-c697132a17c4","0199d5ef-c7d4-7cab-a194-b2c3afbaf8e8","","null","<div style=""display: flex; justify-content: center; align-items: center;"">
                     <img src=""images/causal/causal_series_5/causal_series_5_b.png"" style=""width: 300px; height: 300px;"" />
                   </div>","null","5","1","B","",""
"","","","","","html-keyboard-response","127","626532","0.0-103.0","C8459A8A06F44AE0BD657FCE976BE519","0199d605-1172-7920-a7bf-c697132a17c4","0199d5ef-c7d4-7cab-a194-b2c3afbaf8e8","","null","<div style=""display: flex; justify-content: center; align-items: center;"">
                     <img src=""images/causal/causal_series_5/causal_series_5_c.png"" style=""width: 300px; height: 300px;"" />
                   </div>","null","5","1","C","",""
"","","","","","html-button-response","128","627842","0.0-104.0","C8459A8A06F44AE0BD657FCE976BE519","0199d605-1172-7920-a7bf-c697132a17c4","0199d5ef-c7d4-7cab-a194-b2c3afbaf8e8","","1307","
        <div style=""display: flex; justify-content: center; align-items: center;"">
          <img src=""images/red_deck_2.png"" style=""width: 300px; height: 300px; margin-right: 10px;"" />
          <img src=""images/blue_deck_1.png"" style=""width: 300px; height: 300px;"" />
        </div>","0","5","1","choice","0",""
"","","","","","html-keyboard-response","129","633846","0.0-105.0-0.0-0.0","C8459A8A06F44AE0BD657FCE976BE519","0199d605-1172-7920-a7bf-c697132a17c4","0199d5ef-c7d4-7cab-a194-b2c3afbaf8e8","","null","<div style=""display: flex; justify-content: center; align-items: center;"">
                     <img src=""images/causal/causal_series_5/causal_series_5_d.png"" style=""width: 300px; height: 300px;"" />
                   </div>","null","5","1","D","",""
"","","","","","html-keyboard-response","130","639849","0.0-105.0-0.0-1.0","C8459A8A06F44AE0BD657FCE976BE519","0199d605-1172-7920-a7bf-c697132a17c4","0199d5ef-c7d4-7cab-a194-b2c3afbaf8e8","","null","<div style=""display: flex; justify-content: center; align-items: center;"">
                     <img src=""images/causal/causal_series_5/causal_series_5_e.png"" style=""width: 300px; height: 300px;"" />
                   </div>","null","5","1","E","",""
"","","","","","html-keyboard-response","131","645853","0.0-105.0-0.0-2.0","C8459A8A06F44AE0BD657FCE976BE519","0199d605-1172-7920-a7bf-c697132a17c4","0199d5ef-c7d4-7cab-a194-b2c3afbaf8e8","","null","<div style=""display: flex; justify-content: center; align-items: center;"">
                     <img src=""images/causal/causal_series_5/causal_series_5_f.png"" style=""width: 300px; height: 300px;"" />
                   </div>","null","5","1","F","",""
"","","","","","survey-likert","132","648296","0.0-106.0","C8459A8A06F44AE0BD657FCE976BE519","0199d605-1172-7920-a7bf-c697132a17c4","0199d5ef-c7d4-7cab-a194-b2c3afbaf8e8","","2441","","{""Q0"":1}","5","1","surprise_rating","","[0]"
"","","","","","survey-likert","133","650306","0.0-107.0","C8459A8A06F44AE0BD657FCE976BE519","0199d605-1172-7920-a7bf-c697132a17c4","0199d5ef-c7d4-7cab-a194-b2c3afbaf8e8","","2009","","{""Q0"":0}","5","1","enjoyment_rating","","[0]"
"","","","","","html-keyboard-response","134","656309","0.0-108.0","C8459A8A06F44AE0BD657FCE976BE519","0199d605-1172-7920-a7bf-c697132a17c4","0199d5ef-c7d4-7cab-a194-b2c3afbaf8e8","","null","<div style=""display: flex; justify-content: center; align-items: center;"">
                     <img src=""images/other/blank.png"" style=""width: 300px; height: 300px;"" />
                   </div>","null","0","0","blank","",""
"","","","","","html-keyboard-response","135","662312","0.0-109.0","C8459A8A06F44AE0BD657FCE976BE519","0199d605-1172-7920-a7bf-c697132a17c4","0199d5ef-c7d4-7cab-a194-b2c3afbaf8e8","","null","<div style=""display: flex; justify-content: center; align-items: center;"">
                     <img src=""images/causal/causal_series_4/causal_series_4_a.png"" style=""width: 300px; height: 300px;"" />
                   </div>","null","4","1","A","",""
"","","","","","html-keyboard-response","136","668315","0.0-110.0","C8459A8A06F44AE0BD657FCE976BE519","0199d605-1172-7920-a7bf-c697132a17c4","0199d5ef-c7d4-7cab-a194-b2c3afbaf8e8","","null","<div style=""display: flex; justify-content: center; align-items: center;"">
                     <img src=""images/causal/causal_series_4/causal_series_4_b.png"" style=""width: 300px; height: 300px;"" />
                   </div>","null","4","1","B","",""
"","","","","","html-keyboard-response","137","674318","0.0-111.0","C8459A8A06F44AE0BD657FCE976BE519","0199d605-1172-7920-a7bf-c697132a17c4","0199d5ef-c7d4-7cab-a194-b2c3afbaf8e8","","null","<div style=""display: flex; justify-content: center; align-items: center;"">
                     <img src=""images/causal/causal_series_4/causal_series_4_c.png"" style=""width: 300px; height: 300px;"" />
                   </div>","null","4","1","C","",""
"","","","","","html-button-response","138","675918","0.0-112.0","C8459A8A06F44AE0BD657FCE976BE519","0199d605-1172-7920-a7bf-c697132a17c4","0199d5ef-c7d4-7cab-a194-b2c3afbaf8e8","","1599","
        <div style=""display: flex; justify-content: center; align-items: center;"">
          <img src=""images/red_deck_2.png"" style=""width: 300px; height: 300px; margin-right: 10px;"" />
          <img src=""images/blue_deck_1.png"" style=""width: 300px; height: 300px;"" />
        </div>","1","4","1","choice","1",""
"","","","","","html-keyboard-response","139","681921","0.0-113.0-1.0-0.0","C8459A8A06F44AE0BD657FCE976BE519","0199d605-1172-7920-a7bf-c697132a17c4","0199d5ef-c7d4-7cab-a194-b2c3afbaf8e8","","null","<div style=""display: flex; justify-content: center; align-items: center;"">
                     <img src=""images/semantic/semantic_series_4/semantic_series_4_d.png"" style=""width: 300px; height: 300px;"" />
                   </div>","null","4","1","D","",""
"","","","","","html-keyboard-response","140","687924","0.0-113.0-1.0-1.0","C8459A8A06F44AE0BD657FCE976BE519","0199d605-1172-7920-a7bf-c697132a17c4","0199d5ef-c7d4-7cab-a194-b2c3afbaf8e8","","null","<div style=""display: flex; justify-content: center; align-items: center;"">
                     <img src=""images/semantic/semantic_series_4/semantic_series_4_e.png"" style=""width: 300px; height: 300px;"" />
                   </div>","null","4","1","E","",""
"","","","","","html-keyboard-response","141","693927","0.0-113.0-1.0-2.0","C8459A8A06F44AE0BD657FCE976BE519","0199d605-1172-7920-a7bf-c697132a17c4","0199d5ef-c7d4-7cab-a194-b2c3afbaf8e8","","null","<div style=""display: flex; justify-content: center; align-items: center;"">
                     <img src=""images/semantic/semantic_series_4/semantic_series_4_f.png"" style=""width: 300px; height: 300px;"" />
                   </div>","null","4","1","F","",""
"","","","","","survey-likert","142","695629","0.0-114.0","C8459A8A06F44AE0BD657FCE976BE519","0199d605-1172-7920-a7bf-c697132a17c4","0199d5ef-c7d4-7cab-a194-b2c3afbaf8e8","","1700","","{""Q0"":1}","4","1","surprise_rating","","[0]"
"","","","","","survey-likert","143","697702","0.0-115.0","C8459A8A06F44AE0BD657FCE976BE519","0199d605-1172-7920-a7bf-c697132a17c4","0199d5ef-c7d4-7cab-a194-b2c3afbaf8e8","","2072","","{""Q0"":1}","4","1","enjoyment_rating","","[0]"
"","","","","","html-keyboard-response","144","703705","0.0-116.0","C8459A8A06F44AE0BD657FCE976BE519","0199d605-1172-7920-a7bf-c697132a17c4","0199d5ef-c7d4-7cab-a194-b2c3afbaf8e8","","null","<div style=""display: flex; justify-content: center; align-items: center;"">
                     <img src=""images/other/blank.png"" style=""width: 300px; height: 300px;"" />
                   </div>","null","0","0","blank","",""
"","","","","","html-keyboard-response","145","709709","0.0-117.0","C8459A8A06F44AE0BD657FCE976BE519","0199d605-1172-7920-a7bf-c697132a17c4","0199d5ef-c7d4-7cab-a194-b2c3afbaf8e8","","null","<div style=""display: flex; justify-content: center; align-items: center;"">
                     <img src=""images/causal/causal_series_3/causal_series_3_a.png"" style=""width: 300px; height: 300px;"" />
                   </div>","null","3","1","A","",""
"","","","","","html-keyboard-response","146","715711","0.0-118.0","C8459A8A06F44AE0BD657FCE976BE519","0199d605-1172-7920-a7bf-c697132a17c4","0199d5ef-c7d4-7cab-a194-b2c3afbaf8e8","","null","<div style=""display: flex; justify-content: center; align-items: center;"">
                     <img src=""images/causal/causal_series_3/causal_series_3_b.png"" style=""width: 300px; height: 300px;"" />
                   </div>","null","3","1","B","",""
"","","","","","html-keyboard-response","147","721714","0.0-119.0","C8459A8A06F44AE0BD657FCE976BE519","0199d605-1172-7920-a7bf-c697132a17c4","0199d5ef-c7d4-7cab-a194-b2c3afbaf8e8","","null","<div style=""display: flex; justify-content: center; align-items: center;"">
                     <img src=""images/causal/causal_series_3/causal_series_3_c.png"" style=""width: 300px; height: 300px;"" />
                   </div>","null","3","1","C","",""
"","","","","","html-button-response","148","730512","0.0-120.0","C8459A8A06F44AE0BD657FCE976BE519","0199d605-1172-7920-a7bf-c697132a17c4","0199d5ef-c7d4-7cab-a194-b2c3afbaf8e8","","8795","
        <div style=""display: flex; justify-content: center; align-items: center;"">
          <img src=""images/red_deck_2.png"" style=""width: 300px; height: 300px; margin-right: 10px;"" />
          <img src=""images/blue_deck_1.png"" style=""width: 300px; height: 300px;"" />
        </div>","0","3","1","choice","0",""
"","","","","","html-keyboard-response","149","736515","0.0-121.0-0.0-0.0","C8459A8A06F44AE0BD657FCE976BE519","0199d605-1172-7920-a7bf-c697132a17c4","0199d5ef-c7d4-7cab-a194-b2c3afbaf8e8","","null","<div style=""display: flex; justify-content: center; align-items: center;"">
                     <img src=""images/causal/causal_series_3/causal_series_3_d.png"" style=""width: 300px; height: 300px;"" />
                   </div>","null","3","1","D","",""
"","","","","","html-keyboard-response","150","742518","0.0-121.0-0.0-1.0","C8459A8A06F44AE0BD657FCE976BE519","0199d605-1172-7920-a7bf-c697132a17c4","0199d5ef-c7d4-7cab-a194-b2c3afbaf8e8","","null","<div style=""display: flex; justify-content: center; align-items: center;"">
                     <img src=""images/causal/causal_series_3/causal_series_3_e.png"" style=""width: 300px; height: 300px;"" />
                   </div>","null","3","1","E","",""
"","","","","","html-keyboard-response","151","748523","0.0-121.0-0.0-2.0","C8459A8A06F44AE0BD657FCE976BE519","0199d605-1172-7920-a7bf-c697132a17c4","0199d5ef-c7d4-7cab-a194-b2c3afbaf8e8","","null","<div style=""display: flex; justify-content: center; align-items: center;"">
                     <img src=""images/causal/causal_series_3/causal_series_3_f.png"" style=""width: 300px; height: 300px;"" />
                   </div>","null","3","1","F","",""
"","","","","","survey-likert","152","750586","0.0-122.0","C8459A8A06F44AE0BD657FCE976BE519","0199d605-1172-7920-a7bf-c697132a17c4","0199d5ef-c7d4-7cab-a194-b2c3afbaf8e8","","2062","","{""Q0"":2}","3","1","surprise_rating","","[0]"
"","","","","","survey-likert","153","753038","0.0-123.0","C8459A8A06F44AE0BD657FCE976BE519","0199d605-1172-7920-a7bf-c697132a17c4","0199d5ef-c7d4-7cab-a194-b2c3afbaf8e8","","2451","","{""Q0"":1}","3","1","enjoyment_rating","","[0]"
"","","","","","html-keyboard-response","154","759042","0.0-124.0","C8459A8A06F44AE0BD657FCE976BE519","0199d605-1172-7920-a7bf-c697132a17c4","0199d5ef-c7d4-7cab-a194-b2c3afbaf8e8","","null","<div style=""display: flex; justify-content: center; align-items: center;"">
                     <img src=""images/other/blank.png"" style=""width: 300px; height: 300px;"" />
                   </div>","null","0","0","blank","",""
"","","","","","html-keyboard-response","155","765045","0.0-125.0","C8459A8A06F44AE0BD657FCE976BE519","0199d605-1172-7920-a7bf-c697132a17c4","0199d5ef-c7d4-7cab-a194-b2c3afbaf8e8","","null","<div style=""display: flex; justify-content: center; align-items: center;"">
                     <img src=""images/causal/causal_series_3/causal_series_3_a.png"" style=""width: 300px; height: 300px;"" />
                   </div>","null","3","2","A","",""
"","","","","","html-keyboard-response","156","771048","0.0-126.0","C8459A8A06F44AE0BD657FCE976BE519","0199d605-1172-7920-a7bf-c697132a17c4","0199d5ef-c7d4-7cab-a194-b2c3afbaf8e8","","null","<div style=""display: flex; justify-content: center; align-items: center;"">
                     <img src=""images/causal/causal_series_3/causal_series_3_b.png"" style=""width: 300px; height: 300px;"" />
                   </div>","null","3","2","B","",""
"","","","","","html-keyboard-response","157","777051","0.0-127.0","C8459A8A06F44AE0BD657FCE976BE519","0199d605-1172-7920-a7bf-c697132a17c4","0199d5ef-c7d4-7cab-a194-b2c3afbaf8e8","","null","<div style=""display: flex; justify-content: center; align-items: center;"">
                     <img src=""images/causal/causal_series_3/causal_series_3_c.png"" style=""width: 300px; height: 300px;"" />
                   </div>","null","3","2","C","",""
"","","","","","html-button-response","158","786889","0.0-128.0","C8459A8A06F44AE0BD657FCE976BE519","0199d605-1172-7920-a7bf-c697132a17c4","0199d5ef-c7d4-7cab-a194-b2c3afbaf8e8","","9835","
        <div style=""display: flex; justify-content: center; align-items: center;"">
          <img src=""images/red_deck_2.png"" style=""width: 300px; height: 300px; margin-right: 10px;"" />
          <img src=""images/blue_deck_1.png"" style=""width: 300px; height: 300px;"" />
        </div>","1","3","2","choice","1",""
"","","","","","html-keyboard-response","159","792892","0.0-129.0-1.0-0.0","C8459A8A06F44AE0BD657FCE976BE519","0199d605-1172-7920-a7bf-c697132a17c4","0199d5ef-c7d4-7cab-a194-b2c3afbaf8e8","","null","<div style=""display: flex; justify-content: center; align-items: center;"">
                     <img src=""images/semantic/semantic_series_3/semantic_series_3_d.png"" style=""width: 300px; height: 300px;"" />
                   </div>","null","3","2","D","",""
"","","","","","html-keyboard-response","160","798897","0.0-129.0-1.0-1.0","C8459A8A06F44AE0BD657FCE976BE519","0199d605-1172-7920-a7bf-c697132a17c4","0199d5ef-c7d4-7cab-a194-b2c3afbaf8e8","","null","<div style=""display: flex; justify-content: center; align-items: center;"">
                     <img src=""images/semantic/semantic_series_3/semantic_series_3_e.png"" style=""width: 300px; height: 300px;"" />
                   </div>","null","3","2","E","",""
"","","","","","html-keyboard-response","161","804900","0.0-129.0-1.0-2.0","C8459A8A06F44AE0BD657FCE976BE519","0199d605-1172-7920-a7bf-c697132a17c4","0199d5ef-c7d4-7cab-a194-b2c3afbaf8e8","","null","<div style=""display: flex; justify-content: center; align-items: center;"">
                     <img src=""images/semantic/semantic_series_3/semantic_series_3_f.png"" style=""width: 300px; height: 300px;"" />
                   </div>","null","3","2","F","",""
"","","","","","survey-likert","162","808065","0.0-130.0","C8459A8A06F44AE0BD657FCE976BE519","0199d605-1172-7920-a7bf-c697132a17c4","0199d5ef-c7d4-7cab-a194-b2c3afbaf8e8","","3162","","{""Q0"":2}","3","2","surprise_rating","","[0]"
"","","","","","survey-likert","163","811522","0.0-131.0","C8459A8A06F44AE0BD657FCE976BE519","0199d605-1172-7920-a7bf-c697132a17c4","0199d5ef-c7d4-7cab-a194-b2c3afbaf8e8","","3456","","{""Q0"":1}","3","2","enjoyment_rating","","[0]"
"","","","","","html-keyboard-response","164","817526","0.0-132.0","C8459A8A06F44AE0BD657FCE976BE519","0199d605-1172-7920-a7bf-c697132a17c4","0199d5ef-c7d4-7cab-a194-b2c3afbaf8e8","","null","<div style=""display: flex; justify-content: center; align-items: center;"">
                     <img src=""images/other/blank.png"" style=""width: 300px; height: 300px;"" />
                   </div>","null","0","0","blank","",""
"","","","","","html-keyboard-response","165","823529","0.0-133.0","C8459A8A06F44AE0BD657FCE976BE519","0199d605-1172-7920-a7bf-c697132a17c4","0199d5ef-c7d4-7cab-a194-b2c3afbaf8e8","","null","<div style=""display: flex; justify-content: center; align-items: center;"">
                     <img src=""images/causal/causal_series_1/causal_series_1_a.png"" style=""width: 300px; height: 300px;"" />
                   </div>","null","1","1","A","",""
"","","","","","html-keyboard-response","166","829544","0.0-134.0","C8459A8A06F44AE0BD657FCE976BE519","0199d605-1172-7920-a7bf-c697132a17c4","0199d5ef-c7d4-7cab-a194-b2c3afbaf8e8","","null","<div style=""display: flex; justify-content: center; align-items: center;"">
                     <img src=""images/causal/causal_series_1/causal_series_1_b.png"" style=""width: 300px; height: 300px;"" />
                   </div>","null","1","1","B","",""
"","","","","","html-keyboard-response","167","835548","0.0-135.0","C8459A8A06F44AE0BD657FCE976BE519","0199d605-1172-7920-a7bf-c697132a17c4","0199d5ef-c7d4-7cab-a194-b2c3afbaf8e8","","null","<div style=""display: flex; justify-content: center; align-items: center;"">
                     <img src=""images/causal/causal_series_1/causal_series_1_c.png"" style=""width: 300px; height: 300px;"" />
                   </div>","null","1","1","C","",""
"","","","","","html-button-response","168","837051","0.0-136.0","C8459A8A06F44AE0BD657FCE976BE519","0199d605-1172-7920-a7bf-c697132a17c4","0199d5ef-c7d4-7cab-a194-b2c3afbaf8e8","","1500","
        <div style=""display: flex; justify-content: center; align-items: center;"">
          <img src=""images/red_deck_2.png"" style=""width: 300px; height: 300px; margin-right: 10px;"" />
          <img src=""images/blue_deck_1.png"" style=""width: 300px; height: 300px;"" />
        </div>","1","1","1","choice","1",""
"","","","","","html-keyboard-response","169","843054","0.0-137.0-1.0-0.0","C8459A8A06F44AE0BD657FCE976BE519","0199d605-1172-7920-a7bf-c697132a17c4","0199d5ef-c7d4-7cab-a194-b2c3afbaf8e8","","null","<div style=""display: flex; justify-content: center; align-items: center;"">
                     <img src=""images/semantic/semantic_series_1/semantic_series_1_d.png"" style=""width: 300px; height: 300px;"" />
                   </div>","null","1","1","D","",""
"","","","","","html-keyboard-response","170","849057","0.0-137.0-1.0-1.0","C8459A8A06F44AE0BD657FCE976BE519","0199d605-1172-7920-a7bf-c697132a17c4","0199d5ef-c7d4-7cab-a194-b2c3afbaf8e8","","null","<div style=""display: flex; justify-content: center; align-items: center;"">
                     <img src=""images/semantic/semantic_series_1/semantic_series_1_e.png"" style=""width: 300px; height: 300px;"" />
                   </div>","null","1","1","E","",""
"","","","","","html-keyboard-response","171","855061","0.0-137.0-1.0-2.0","C8459A8A06F44AE0BD657FCE976BE519","0199d605-1172-7920-a7bf-c697132a17c4","0199d5ef-c7d4-7cab-a194-b2c3afbaf8e8","","null","<div style=""display: flex; justify-content: center; align-items: center;"">
                     <img src=""images/semantic/semantic_series_1/semantic_series_1_f.png"" style=""width: 300px; height: 300px;"" />
                   </div>","null","1","1","F","",""
"","","","","","survey-likert","172","856672","0.0-138.0","C8459A8A06F44AE0BD657FCE976BE519","0199d605-1172-7920-a7bf-c697132a17c4","0199d5ef-c7d4-7cab-a194-b2c3afbaf8e8","","1610","","{""Q0"":2}","1","1","surprise_rating","","[0]"
"","","","","","survey-likert","173","858297","0.0-139.0","C8459A8A06F44AE0BD657FCE976BE519","0199d605-1172-7920-a7bf-c697132a17c4","0199d5ef-c7d4-7cab-a194-b2c3afbaf8e8","","1623","","{""Q0"":1}","1","1","enjoyment_rating","","[0]"
"","","","","","html-keyboard-response","174","864300","0.0-140.0","C8459A8A06F44AE0BD657FCE976BE519","0199d605-1172-7920-a7bf-c697132a17c4","0199d5ef-c7d4-7cab-a194-b2c3afbaf8e8","","null","<div style=""display: flex; justify-content: center; align-items: center;"">
                     <img src=""images/other/blank.png"" style=""width: 300px; height: 300px;"" />
                   </div>","null","0","0","blank","",""
"","","","","","html-keyboard-response","175","870304","0.0-141.0","C8459A8A06F44AE0BD657FCE976BE519","0199d605-1172-7920-a7bf-c697132a17c4","0199d5ef-c7d4-7cab-a194-b2c3afbaf8e8","","null","<div style=""display: flex; justify-content: center; align-items: center;"">
                     <img src=""images/causal/causal_series_5/causal_series_5_a.png"" style=""width: 300px; height: 300px;"" />
                   </div>","null","5","2","A","",""
"","","","","","html-keyboard-response","176","876308","0.0-142.0","C8459A8A06F44AE0BD657FCE976BE519","0199d605-1172-7920-a7bf-c697132a17c4","0199d5ef-c7d4-7cab-a194-b2c3afbaf8e8","","null","<div style=""display: flex; justify-content: center; align-items: center;"">
                     <img src=""images/causal/causal_series_5/causal_series_5_b.png"" style=""width: 300px; height: 300px;"" />
                   </div>","null","5","2","B","",""
"","","","","","html-keyboard-response","177","882311","0.0-143.0","C8459A8A06F44AE0BD657FCE976BE519","0199d605-1172-7920-a7bf-c697132a17c4","0199d5ef-c7d4-7cab-a194-b2c3afbaf8e8","","null","<div style=""display: flex; justify-content: center; align-items: center;"">
                     <img src=""images/causal/causal_series_5/causal_series_5_c.png"" style=""width: 300px; height: 300px;"" />
                   </div>","null","5","2","C","",""
"","","","","","html-button-response","178","884063","0.0-144.0","C8459A8A06F44AE0BD657FCE976BE519","0199d605-1172-7920-a7bf-c697132a17c4","0199d5ef-c7d4-7cab-a194-b2c3afbaf8e8","","1749","
        <div style=""display: flex; justify-content: center; align-items: center;"">
          <img src=""images/red_deck_2.png"" style=""width: 300px; height: 300px; margin-right: 10px;"" />
          <img src=""images/blue_deck_1.png"" style=""width: 300px; height: 300px;"" />
        </div>","1","5","2","choice","1",""
"","","","","","html-keyboard-response","179","890066","0.0-145.0-1.0-0.0","C8459A8A06F44AE0BD657FCE976BE519","0199d605-1172-7920-a7bf-c697132a17c4","0199d5ef-c7d4-7cab-a194-b2c3afbaf8e8","","null","<div style=""display: flex; justify-content: center; align-items: center;"">
                     <img src=""images/semantic/semantic_series_5/semantic_series_5_d.png"" style=""width: 300px; height: 300px;"" />
                   </div>","null","5","2","D","",""
"","","","","","html-keyboard-response","180","896070","0.0-145.0-1.0-1.0","C8459A8A06F44AE0BD657FCE976BE519","0199d605-1172-7920-a7bf-c697132a17c4","0199d5ef-c7d4-7cab-a194-b2c3afbaf8e8","","null","<div style=""display: flex; justify-content: center; align-items: center;"">
                     <img src=""images/semantic/semantic_series_5/semantic_series_5_e.png"" style=""width: 300px; height: 300px;"" />
                   </div>","null","5","2","E","",""
"","","","","","html-keyboard-response","181","902074","0.0-145.0-1.0-2.0","C8459A8A06F44AE0BD657FCE976BE519","0199d605-1172-7920-a7bf-c697132a17c4","0199d5ef-c7d4-7cab-a194-b2c3afbaf8e8","","null","<div style=""display: flex; justify-content: center; align-items: center;"">
                     <img src=""images/semantic/semantic_series_5/semantic_series_5_f.png"" style=""width: 300px; height: 300px;"" />
                   </div>","null","5","2","F","",""
"","","","","","survey-likert","182","904754","0.0-146.0","C8459A8A06F44AE0BD657FCE976BE519","0199d605-1172-7920-a7bf-c697132a17c4","0199d5ef-c7d4-7cab-a194-b2c3afbaf8e8","","2678","","{""Q0"":2}","5","2","surprise_rating","","[0]"
"","","","","","survey-likert","183","909014","0.0-147.0","C8459A8A06F44AE0BD657FCE976BE519","0199d605-1172-7920-a7bf-c697132a17c4","0199d5ef-c7d4-7cab-a194-b2c3afbaf8e8","","4259","","{""Q0"":1}","5","2","enjoyment_rating","","[0]"
"","","","","","html-keyboard-response","184","915017","0.0-148.0","C8459A8A06F44AE0BD657FCE976BE519","0199d605-1172-7920-a7bf-c697132a17c4","0199d5ef-c7d4-7cab-a194-b2c3afbaf8e8","","null","<div style=""display: flex; justify-content: center; align-items: center;"">
                     <img src=""images/other/blank.png"" style=""width: 300px; height: 300px;"" />
                   </div>","null","0","0","blank","",""
"","","","","","html-keyboard-response","185","921020","0.0-149.0","C8459A8A06F44AE0BD657FCE976BE519","0199d605-1172-7920-a7bf-c697132a17c4","0199d5ef-c7d4-7cab-a194-b2c3afbaf8e8","","null","<div style=""display: flex; justify-content: center; align-items: center;"">
                     <img src=""images/causal/causal_series_2/causal_series_2_a.png"" style=""width: 300px; height: 300px;"" />
                   </div>","null","2","2","A","",""
"","","","","","html-keyboard-response","186","927022","0.0-150.0","C8459A8A06F44AE0BD657FCE976BE519","0199d605-1172-7920-a7bf-c697132a17c4","0199d5ef-c7d4-7cab-a194-b2c3afbaf8e8","","null","<div style=""display: flex; justify-content: center; align-items: center;"">
                     <img src=""images/causal/causal_series_2/causal_series_2_b.png"" style=""width: 300px; height: 300px;"" />
                   </div>","null","2","2","B","",""
"","","","","","html-keyboard-response","187","933024","0.0-151.0","C8459A8A06F44AE0BD657FCE976BE519","0199d605-1172-7920-a7bf-c697132a17c4","0199d5ef-c7d4-7cab-a194-b2c3afbaf8e8","","null","<div style=""display: flex; justify-content: center; align-items: center;"">
                     <img src=""images/causal/causal_series_2/causal_series_2_c.png"" style=""width: 300px; height: 300px;"" />
                   </div>","null","2","2","C","",""
"","","","","","html-button-response","188","933632","0.0-152.0","C8459A8A06F44AE0BD657FCE976BE519","0199d605-1172-7920-a7bf-c697132a17c4","0199d5ef-c7d4-7cab-a194-b2c3afbaf8e8","","606","
        <div style=""display: flex; justify-content: center; align-items: center;"">
          <img src=""images/red_deck_2.png"" style=""width: 300px; height: 300px; margin-right: 10px;"" />
          <img src=""images/blue_deck_1.png"" style=""width: 300px; height: 300px;"" />
        </div>","0","2","2","choice","0",""
"","","","","","html-keyboard-response","189","939635","0.0-153.0-0.0-0.0","C8459A8A06F44AE0BD657FCE976BE519","0199d605-1172-7920-a7bf-c697132a17c4","0199d5ef-c7d4-7cab-a194-b2c3afbaf8e8","","null","<div style=""display: flex; justify-content: center; align-items: center;"">
                     <img src=""images/causal/causal_series_2/causal_series_2_d.png"" style=""width: 300px; height: 300px;"" />
                   </div>","null","2","2","D","",""
"","","","","","html-keyboard-response","190","945637","0.0-153.0-0.0-1.0","C8459A8A06F44AE0BD657FCE976BE519","0199d605-1172-7920-a7bf-c697132a17c4","0199d5ef-c7d4-7cab-a194-b2c3afbaf8e8","","null","<div style=""display: flex; justify-content: center; align-items: center;"">
                     <img src=""images/causal/causal_series_2/causal_series_2_e.png"" style=""width: 300px; height: 300px;"" />
                   </div>","null","2","2","E","",""
"","","","","","html-keyboard-response","191","951640","0.0-153.0-0.0-2.0","C8459A8A06F44AE0BD657FCE976BE519","0199d605-1172-7920-a7bf-c697132a17c4","0199d5ef-c7d4-7cab-a194-b2c3afbaf8e8","","null","<div style=""display: flex; justify-content: center; align-items: center;"">
                     <img src=""images/causal/causal_series_2/causal_series_2_f.png"" style=""width: 300px; height: 300px;"" />
                   </div>","null","2","2","F","",""
"","","","","","survey-likert","192","953664","0.0-154.0","C8459A8A06F44AE0BD657FCE976BE519","0199d605-1172-7920-a7bf-c697132a17c4","0199d5ef-c7d4-7cab-a194-b2c3afbaf8e8","","2022","","{""Q0"":1}","2","2","surprise_rating","","[0]"
"","","","","","survey-likert","193","954913","0.0-155.0","C8459A8A06F44AE0BD657FCE976BE519","0199d605-1172-7920-a7bf-c697132a17c4","0199d5ef-c7d4-7cab-a194-b2c3afbaf8e8","","1248","","{""Q0"":0}","2","2","enjoyment_rating","","[0]"
"","","","","","html-keyboard-response","194","960916","0.0-156.0","C8459A8A06F44AE0BD657FCE976BE519","0199d605-1172-7920-a7bf-c697132a17c4","0199d5ef-c7d4-7cab-a194-b2c3afbaf8e8","","null","<div style=""display: flex; justify-content: center; align-items: center;"">
                     <img src=""images/other/blank.png"" style=""width: 300px; height: 300px;"" />
                   </div>","null","0","0","blank","",""
"","","","","","html-keyboard-response","195","966920","0.0-157.0","C8459A8A06F44AE0BD657FCE976BE519","0199d605-1172-7920-a7bf-c697132a17c4","0199d5ef-c7d4-7cab-a194-b2c3afbaf8e8","","null","<div style=""display: flex; justify-content: center; align-items: center;"">
                     <img src=""images/causal/causal_series_2/causal_series_2_a.png"" style=""width: 300px; height: 300px;"" />
                   </div>","null","2","1","A","",""
"","","","","","html-keyboard-response","196","972923","0.0-158.0","C8459A8A06F44AE0BD657FCE976BE519","0199d605-1172-7920-a7bf-c697132a17c4","0199d5ef-c7d4-7cab-a194-b2c3afbaf8e8","","null","<div style=""display: flex; justify-content: center; align-items: center;"">
                     <img src=""images/causal/causal_series_2/causal_series_2_b.png"" style=""width: 300px; height: 300px;"" />
                   </div>","null","2","1","B","",""
"","","","","","html-keyboard-response","197","978927","0.0-159.0","C8459A8A06F44AE0BD657FCE976BE519","0199d605-1172-7920-a7bf-c697132a17c4","0199d5ef-c7d4-7cab-a194-b2c3afbaf8e8","","null","<div style=""display: flex; justify-content: center; align-items: center;"">
                     <img src=""images/causal/causal_series_2/causal_series_2_c.png"" style=""width: 300px; height: 300px;"" />
                   </div>","null","2","1","C","",""
"","","","","","html-button-response","198","979848","0.0-160.0","C8459A8A06F44AE0BD657FCE976BE519","0199d605-1172-7920-a7bf-c697132a17c4","0199d5ef-c7d4-7cab-a194-b2c3afbaf8e8","","918","
        <div style=""display: flex; justify-content: center; align-items: center;"">
          <img src=""images/red_deck_2.png"" style=""width: 300px; height: 300px; margin-right: 10px;"" />
          <img src=""images/blue_deck_1.png"" style=""width: 300px; height: 300px;"" />
        </div>","1","2","1","choice","1",""
"","","","","","html-keyboard-response","199","985851","0.0-161.0-1.0-0.0","C8459A8A06F44AE0BD657FCE976BE519","0199d605-1172-7920-a7bf-c697132a17c4","0199d5ef-c7d4-7cab-a194-b2c3afbaf8e8","","null","<div style=""display: flex; justify-content: center; align-items: center;"">
                     <img src=""images/semantic/semantic_series_2/semantic_series_2_d.png"" style=""width: 300px; height: 300px;"" />
                   </div>","null","2","1","D","",""
"","","","","","html-keyboard-response","200","991853","0.0-161.0-1.0-1.0","C8459A8A06F44AE0BD657FCE976BE519","0199d605-1172-7920-a7bf-c697132a17c4","0199d5ef-c7d4-7cab-a194-b2c3afbaf8e8","","null","<div style=""display: flex; justify-content: center; align-items: center;"">
                     <img src=""images/semantic/semantic_series_2/semantic_series_2_e.png"" style=""width: 300px; height: 300px;"" />
                   </div>","null","2","1","E","",""
"","","","","","html-keyboard-response","201","997856","0.0-161.0-1.0-2.0","C8459A8A06F44AE0BD657FCE976BE519","0199d605-1172-7920-a7bf-c697132a17c4","0199d5ef-c7d4-7cab-a194-b2c3afbaf8e8","","null","<div style=""display: flex; justify-content: center; align-items: center;"">
                     <img src=""images/semantic/semantic_series_2/semantic_series_2_f.png"" style=""width: 300px; height: 300px;"" />
                   </div>","null","2","1","F","",""
"","","","","","survey-likert","202","999572","0.0-162.0","C8459A8A06F44AE0BD657FCE976BE519","0199d605-1172-7920-a7bf-c697132a17c4","0199d5ef-c7d4-7cab-a194-b2c3afbaf8e8","","1713","","{""Q0"":0}","2","1","surprise_rating","","[0]"
"","","","","","survey-likert","203","1000885","0.0-163.0","C8459A8A06F44AE0BD657FCE976BE519","0199d605-1172-7920-a7bf-c697132a17c4","0199d5ef-c7d4-7cab-a194-b2c3afbaf8e8","","1311","","{""Q0"":1}","2","1","enjoyment_rating","","[0]"
"","","","","","html-keyboard-response","204","1006888","0.0-164.0","C8459A8A06F44AE0BD657FCE976BE519","0199d605-1172-7920-a7bf-c697132a17c4","0199d5ef-c7d4-7cab-a194-b2c3afbaf8e8","","null","<div style=""display: flex; justify-content: center; align-items: center;"">
                     <img src=""images/other/blank.png"" style=""width: 300px; height: 300px;"" />
                   </div>","null","0","0","blank","",""
"","","","","","survey-text","205","1018646","0.0-165.0","C8459A8A06F44AE0BD657FCE976BE519","0199d605-1172-7920-a7bf-c697132a17c4","0199d5ef-c7d4-7cab-a194-b2c3afbaf8e8","","11729","","{""Q0"":""the color""}","","","","",""
"","","","","","html-button-response","206","1027832","0.0-166.0","C8459A8A06F44AE0BD657FCE976BE519","0199d605-1172-7920-a7bf-c697132a17c4","0199d5ef-c7d4-7cab-a194-b2c3afbaf8e8","","9185","Which color deck do the following sentences continue the story from?","1","","","","",""
"","","","","","html-button-response","207","1029344","0.0-167.0","C8459A8A06F44AE0BD657FCE976BE519","0199d605-1172-7920-a7bf-c697132a17c4","0199d5ef-c7d4-7cab-a194-b2c3afbaf8e8","","1511","Which color deck do the following sentences NOT follow the story from?","0","","","","",""
"","","","","","html-button-response","208","1042029","0.0-168.0","C8459A8A06F44AE0BD657FCE976BE519","0199d605-1172-7920-a7bf-c697132a17c4","0199d5ef-c7d4-7cab-a194-b2c3afbaf8e8","","12684","Which type of deck did you prefer overall?","1","","","","",""
"","","","","","survey-text","209","1050384","0.0-169.0","C8459A8A06F44AE0BD657FCE976BE519","0199d605-1172-7920-a7bf-c697132a17c4","0199d5ef-c7d4-7cab-a194-b2c3afbaf8e8","","8348","","{""Q0"":""female"",""Q1"":""25""}","","","","",""
"","","","","","instructions","210","1054280","0.0-170.0","C8459A8A06F44AE0BD657FCE976BE519","0199d605-1172-7920-a7bf-c697132a17c4","0199d5ef-c7d4-7cab-a194-b2c3afbaf8e8","[{""page_index"":0,""viewing_time"":3895}]","3895","","","","","","",""
