"success","timeout","failed_images","failed_audio","failed_video","trial_type","trial_index","time_elapsed","internal_node_id","subject_id","study_id","session_id","view_history","rt","stimulus","response","choice","question_order"
"true","false","[]","[]","[]","preload","0","431","0.0-0.0","030C3DF8D8684C098400FF9FE8DFA9FD","0199d161-35dc-745a-98c3-f19da0b28227","0199d150-d572-71e8-9cbf-93368501134d","","","","","",""
"","","","","","instructions","1","5324","0.0-1.0","030C3DF8D8684C098400FF9FE8DFA9FD","0199d161-35dc-745a-98c3-f19da0b28227","0199d150-d572-71e8-9cbf-93368501134d","[{""page_index"":0,""viewing_time"":4892}]","4892","","","",""
"","","","","","instructions","2","33661","0.0-2.0","030C3DF8D8684C098400FF9FE8DFA9FD","0199d161-35dc-745a-98c3-f19da0b28227","0199d150-d572-71e8-9cbf-93368501134d","[{""page_index"":0,""viewing_time"":28336}]","28336","","","",""
"true","","","","","fullscreen","3","43326","0.0-3.0","030C3DF8D8684C098400FF9FE8DFA9FD","0199d161-35dc-745a-98c3-f19da0b28227","0199d150-d572-71e8-9cbf-93368501134d","","8661","","","",""
"","","","","","instructions","4","65854","0.0-4.0","030C3DF8D8684C098400FF9FE8DFA9FD","0199d161-35dc-745a-98c3-f19da0b28227","0199d150-d572-71e8-9cbf-93368501134d","[{""page_index"":0,""viewing_time"":22528}]","22528","","","",""
"","","","","","html-keyboard-response","5","72857","0.0-5.0","030C3DF8D8684C098400FF9FE8DFA9FD","0199d161-35dc-745a-98c3-f19da0b28227","0199d150-d572-71e8-9cbf-93368501134d","","null","<div style=""display: flex; justify-content: center; align-items: center;"">
                     <img src=""images/causal/causal_series_7/causal_series_7_a.png"" style=""width: 300px; height: 300px;"" />
                   </div>","null","",""
"","","","","","html-keyboard-response","6","79861","0.0-6.0","030C3DF8D8684C098400FF9FE8DFA9FD","0199d161-35dc-745a-98c3-f19da0b28227","0199d150-d572-71e8-9cbf-93368501134d","","null","<div style=""display: flex; justify-content: center; align-items: center;"">
                     <img src=""images/causal/causal_series_7/causal_series_7_b.png"" style=""width: 300px; height: 300px;"" />
                   </div>","null","",""
"","","","","","html-keyboard-response","7","86865","0.0-7.0","030C3DF8D8684C098400FF9FE8DFA9FD","0199d161-35dc-745a-98c3-f19da0b28227","0199d150-d572-71e8-9cbf-93368501134d","","null","<div style=""display: flex; justify-content: center; align-items: center;"">
                     <img src=""images/causal/causal_series_7/causal_series_7_c.png"" style=""width: 300px; height: 300px;"" />
                   </div>","null","",""
"","","","","","html-button-response","8","91681","0.0-8.0","030C3DF8D8684C098400FF9FE8DFA9FD","0199d161-35dc-745a-98c3-f19da0b28227","0199d150-d572-71e8-9cbf-93368501134d","","4813","
        <div style=""display: flex; justify-content: center; align-items: center;"">
          <img src=""images/red_deck_2.png"" style=""width: 300px; height: 300px; margin-right: 10px;"" />
          <img src=""images/blue_deck_1.png"" style=""width: 300px; height: 300px;"" />
        </div>","1","1",""
"","","","","","html-keyboard-response","9","98684","0.0-9.0-1.0-0.0","030C3DF8D8684C098400FF9FE8DFA9FD","0199d161-35dc-745a-98c3-f19da0b28227","0199d150-d572-71e8-9cbf-93368501134d","","null","<div style=""display: flex; justify-content: center; align-items: center;"">
                     <img src=""images/semantic/semantic_series_4/semantic_series_4_d.png"" style=""width: 300px; height: 300px;"" />
                   </div>","null","",""
"","","","","","survey-likert","10","105034","0.0-10.0","030C3DF8D8684C098400FF9FE8DFA9FD","0199d161-35dc-745a-98c3-f19da0b28227","0199d150-d572-71e8-9cbf-93368501134d","","6346","","{""Q0"":3}","","[0]"
"","","","","","survey-likert","11","111849","0.0-11.0","030C3DF8D8684C098400FF9FE8DFA9FD","0199d161-35dc-745a-98c3-f19da0b28227","0199d150-d572-71e8-9cbf-93368501134d","","6813","","{""Q0"":2}","","[0]"
"","","","","","html-keyboard-response","12","118853","0.0-12.0","030C3DF8D8684C098400FF9FE8DFA9FD","0199d161-35dc-745a-98c3-f19da0b28227","0199d150-d572-71e8-9cbf-93368501134d","","null","<div style=""display: flex; justify-content: center; align-items: center;"">
                     <img src=""images/other/blank.png"" style=""width: 300px; height: 300px;"" />
                   </div>","null","",""
"","","","","","html-keyboard-response","13","125855","0.0-13.0","030C3DF8D8684C098400FF9FE8DFA9FD","0199d161-35dc-745a-98c3-f19da0b28227","0199d150-d572-71e8-9cbf-93368501134d","","null","<div style=""display: flex; justify-content: center; align-items: center;"">
                     <img src=""images/causal/causal_series_3/causal_series_3_a.png"" style=""width: 300px; height: 300px;"" />
                   </div>","null","",""
"","","","","","html-keyboard-response","14","132859","0.0-14.0","030C3DF8D8684C098400FF9FE8DFA9FD","0199d161-35dc-745a-98c3-f19da0b28227","0199d150-d572-71e8-9cbf-93368501134d","","null","<div style=""display: flex; justify-content: center; align-items: center;"">
                     <img src=""images/causal/causal_series_3/causal_series_3_b.png"" style=""width: 300px; height: 300px;"" />
                   </div>","null","",""
"","","","","","html-keyboard-response","15","139862","0.0-15.0","030C3DF8D8684C098400FF9FE8DFA9FD","0199d161-35dc-745a-98c3-f19da0b28227","0199d150-d572-71e8-9cbf-93368501134d","","null","<div style=""display: flex; justify-content: center; align-items: center;"">
                     <img src=""images/causal/causal_series_3/causal_series_3_c.png"" style=""width: 300px; height: 300px;"" />
                   </div>","null","",""
"","","","","","html-button-response","16","141031","0.0-16.0","030C3DF8D8684C098400FF9FE8DFA9FD","0199d161-35dc-745a-98c3-f19da0b28227","0199d150-d572-71e8-9cbf-93368501134d","","1166","
        <div style=""display: flex; justify-content: center; align-items: center;"">
          <img src=""images/red_deck_2.png"" style=""width: 300px; height: 300px; margin-right: 10px;"" />
          <img src=""images/blue_deck_1.png"" style=""width: 300px; height: 300px;"" />
        </div>","0","0",""
"","","","","","html-keyboard-response","17","148033","0.0-17.0-0.0-0.0","030C3DF8D8684C098400FF9FE8DFA9FD","0199d161-35dc-745a-98c3-f19da0b28227","0199d150-d572-71e8-9cbf-93368501134d","","null","<div style=""display: flex; justify-content: center; align-items: center;"">
                     <img src=""images/causal/causal_series_3/causal_series_3_d.png"" style=""width: 300px; height: 300px;"" />
                   </div>","null","",""
"","","","","","survey-likert","18","155715","0.0-18.0","030C3DF8D8684C098400FF9FE8DFA9FD","0199d161-35dc-745a-98c3-f19da0b28227","0199d150-d572-71e8-9cbf-93368501134d","","7680","","{""Q0"":2}","","[0]"
"","","","","","survey-likert","19","158931","0.0-19.0","030C3DF8D8684C098400FF9FE8DFA9FD","0199d161-35dc-745a-98c3-f19da0b28227","0199d150-d572-71e8-9cbf-93368501134d","","3215","","{""Q0"":3}","","[0]"
"","","","","","html-keyboard-response","20","165933","0.0-20.0","030C3DF8D8684C098400FF9FE8DFA9FD","0199d161-35dc-745a-98c3-f19da0b28227","0199d150-d572-71e8-9cbf-93368501134d","","null","<div style=""display: flex; justify-content: center; align-items: center;"">
                     <img src=""images/other/blank.png"" style=""width: 300px; height: 300px;"" />
                   </div>","null","",""
"","","","","","html-keyboard-response","21","172936","0.0-21.0","030C3DF8D8684C098400FF9FE8DFA9FD","0199d161-35dc-745a-98c3-f19da0b28227","0199d150-d572-71e8-9cbf-93368501134d","","null","<div style=""display: flex; justify-content: center; align-items: center;"">
                     <img src=""images/causal/causal_series_8/causal_series_8_a.png"" style=""width: 300px; height: 300px;"" />
                   </div>","null","",""
"","","","","","html-keyboard-response","22","179939","0.0-22.0","030C3DF8D8684C098400FF9FE8DFA9FD","0199d161-35dc-745a-98c3-f19da0b28227","0199d150-d572-71e8-9cbf-93368501134d","","null","<div style=""display: flex; justify-content: center; align-items: center;"">
                     <img src=""images/causal/causal_series_8/causal_series_8_b.png"" style=""width: 300px; height: 300px;"" />
                   </div>","null","",""
"","","","","","html-keyboard-response","23","186943","0.0-23.0","030C3DF8D8684C098400FF9FE8DFA9FD","0199d161-35dc-745a-98c3-f19da0b28227","0199d150-d572-71e8-9cbf-93368501134d","","null","<div style=""display: flex; justify-content: center; align-items: center;"">
                     <img src=""images/causal/causal_series_8/causal_series_8_c.png"" style=""width: 300px; height: 300px;"" />
                   </div>","null","",""
"","","","","","html-button-response","24","188719","0.0-24.0","030C3DF8D8684C098400FF9FE8DFA9FD","0199d161-35dc-745a-98c3-f19da0b28227","0199d150-d572-71e8-9cbf-93368501134d","","1774","
        <div style=""display: flex; justify-content: center; align-items: center;"">
          <img src=""images/red_deck_2.png"" style=""width: 300px; height: 300px; margin-right: 10px;"" />
          <img src=""images/blue_deck_1.png"" style=""width: 300px; height: 300px;"" />
        </div>","0","0",""
"","","","","","html-keyboard-response","25","195721","0.0-25.0-0.0-0.0","030C3DF8D8684C098400FF9FE8DFA9FD","0199d161-35dc-745a-98c3-f19da0b28227","0199d150-d572-71e8-9cbf-93368501134d","","null","<div style=""display: flex; justify-content: center; align-items: center;"">
                     <img src=""images/causal/causal_series_8/causal_series_8_d.png"" style=""width: 300px; height: 300px;"" />
                   </div>","null","",""
"","","","","","survey-likert","26","198940","0.0-26.0","030C3DF8D8684C098400FF9FE8DFA9FD","0199d161-35dc-745a-98c3-f19da0b28227","0199d150-d572-71e8-9cbf-93368501134d","","3217","","{""Q0"":3}","","[0]"
"","","","","","survey-likert","27","201746","0.0-27.0","030C3DF8D8684C098400FF9FE8DFA9FD","0199d161-35dc-745a-98c3-f19da0b28227","0199d150-d572-71e8-9cbf-93368501134d","","2804","","{""Q0"":3}","","[0]"
"","","","","","html-keyboard-response","28","208748","0.0-28.0","030C3DF8D8684C098400FF9FE8DFA9FD","0199d161-35dc-745a-98c3-f19da0b28227","0199d150-d572-71e8-9cbf-93368501134d","","null","<div style=""display: flex; justify-content: center; align-items: center;"">
                     <img src=""images/other/blank.png"" style=""width: 300px; height: 300px;"" />
                   </div>","null","",""
"","","","","","html-keyboard-response","29","215751","0.0-29.0","030C3DF8D8684C098400FF9FE8DFA9FD","0199d161-35dc-745a-98c3-f19da0b28227","0199d150-d572-71e8-9cbf-93368501134d","","null","<div style=""display: flex; justify-content: center; align-items: center;"">
                     <img src=""images/causal/causal_series_4/causal_series_4_a.png"" style=""width: 300px; height: 300px;"" />
                   </div>","null","",""
"","","","","","html-keyboard-response","30","222754","0.0-30.0","030C3DF8D8684C098400FF9FE8DFA9FD","0199d161-35dc-745a-98c3-f19da0b28227","0199d150-d572-71e8-9cbf-93368501134d","","null","<div style=""display: flex; justify-content: center; align-items: center;"">
                     <img src=""images/causal/causal_series_4/causal_series_4_b.png"" style=""width: 300px; height: 300px;"" />
                   </div>","null","",""
"","","","","","html-keyboard-response","31","229757","0.0-31.0","030C3DF8D8684C098400FF9FE8DFA9FD","0199d161-35dc-745a-98c3-f19da0b28227","0199d150-d572-71e8-9cbf-93368501134d","","null","<div style=""display: flex; justify-content: center; align-items: center;"">
                     <img src=""images/causal/causal_series_4/causal_series_4_c.png"" style=""width: 300px; height: 300px;"" />
                   </div>","null","",""
"","","","","","html-button-response","32","231213","0.0-32.0","030C3DF8D8684C098400FF9FE8DFA9FD","0199d161-35dc-745a-98c3-f19da0b28227","0199d150-d572-71e8-9cbf-93368501134d","","1454","
        <div style=""display: flex; justify-content: center; align-items: center;"">
          <img src=""images/red_deck_2.png"" style=""width: 300px; height: 300px; margin-right: 10px;"" />
          <img src=""images/blue_deck_1.png"" style=""width: 300px; height: 300px;"" />
        </div>","1","1",""
"","","","","","html-keyboard-response","33","238216","0.0-33.0-1.0-0.0","030C3DF8D8684C098400FF9FE8DFA9FD","0199d161-35dc-745a-98c3-f19da0b28227","0199d150-d572-71e8-9cbf-93368501134d","","null","<div style=""display: flex; justify-content: center; align-items: center;"">
                     <img src=""images/semantic/semantic_series_9/semantic_series_9_d.png"" style=""width: 300px; height: 300px;"" />
                   </div>","null","",""
"","","","","","survey-likert","34","242030","0.0-34.0","030C3DF8D8684C098400FF9FE8DFA9FD","0199d161-35dc-745a-98c3-f19da0b28227","0199d150-d572-71e8-9cbf-93368501134d","","3812","","{""Q0"":3}","","[0]"
"","","","","","survey-likert","35","247374","0.0-35.0","030C3DF8D8684C098400FF9FE8DFA9FD","0199d161-35dc-745a-98c3-f19da0b28227","0199d150-d572-71e8-9cbf-93368501134d","","5343","","{""Q0"":1}","","[0]"
"","","","","","html-keyboard-response","36","254377","0.0-36.0","030C3DF8D8684C098400FF9FE8DFA9FD","0199d161-35dc-745a-98c3-f19da0b28227","0199d150-d572-71e8-9cbf-93368501134d","","null","<div style=""display: flex; justify-content: center; align-items: center;"">
                     <img src=""images/other/blank.png"" style=""width: 300px; height: 300px;"" />
                   </div>","null","",""
"","","","","","html-keyboard-response","37","261381","0.0-37.0","030C3DF8D8684C098400FF9FE8DFA9FD","0199d161-35dc-745a-98c3-f19da0b28227","0199d150-d572-71e8-9cbf-93368501134d","","null","<div style=""display: flex; justify-content: center; align-items: center;"">
                     <img src=""images/causal/causal_series_9/causal_series_9_a.png"" style=""width: 300px; height: 300px;"" />
                   </div>","null","",""
"","","","","","html-keyboard-response","38","268382","0.0-38.0","030C3DF8D8684C098400FF9FE8DFA9FD","0199d161-35dc-745a-98c3-f19da0b28227","0199d150-d572-71e8-9cbf-93368501134d","","null","<div style=""display: flex; justify-content: center; align-items: center;"">
                     <img src=""images/causal/causal_series_9/causal_series_9_b.png"" style=""width: 300px; height: 300px;"" />
                   </div>","null","",""
"","","","","","html-keyboard-response","39","275385","0.0-39.0","030C3DF8D8684C098400FF9FE8DFA9FD","0199d161-35dc-745a-98c3-f19da0b28227","0199d150-d572-71e8-9cbf-93368501134d","","null","<div style=""display: flex; justify-content: center; align-items: center;"">
                     <img src=""images/causal/causal_series_9/causal_series_9_c.png"" style=""width: 300px; height: 300px;"" />
                   </div>","null","",""
"","","","","","html-button-response","40","276339","0.0-40.0","030C3DF8D8684C098400FF9FE8DFA9FD","0199d161-35dc-745a-98c3-f19da0b28227","0199d150-d572-71e8-9cbf-93368501134d","","951","
        <div style=""display: flex; justify-content: center; align-items: center;"">
          <img src=""images/red_deck_2.png"" style=""width: 300px; height: 300px; margin-right: 10px;"" />
          <img src=""images/blue_deck_1.png"" style=""width: 300px; height: 300px;"" />
        </div>","0","0",""
"","","","","","html-keyboard-response","41","283341","0.0-41.0-0.0-0.0","030C3DF8D8684C098400FF9FE8DFA9FD","0199d161-35dc-745a-98c3-f19da0b28227","0199d150-d572-71e8-9cbf-93368501134d","","null","<div style=""display: flex; justify-content: center; align-items: center;"">
                     <img src=""images/causal/causal_series_9/causal_series_9_d.png"" style=""width: 300px; height: 300px;"" />
                   </div>","null","",""
"","","","","","survey-likert","42","286993","0.0-42.0","030C3DF8D8684C098400FF9FE8DFA9FD","0199d161-35dc-745a-98c3-f19da0b28227","0199d150-d572-71e8-9cbf-93368501134d","","3650","","{""Q0"":3}","","[0]"
"","","","","","survey-likert","43","288748","0.0-43.0","030C3DF8D8684C098400FF9FE8DFA9FD","0199d161-35dc-745a-98c3-f19da0b28227","0199d150-d572-71e8-9cbf-93368501134d","","1754","","{""Q0"":3}","","[0]"
"","","","","","html-keyboard-response","44","295751","0.0-44.0","030C3DF8D8684C098400FF9FE8DFA9FD","0199d161-35dc-745a-98c3-f19da0b28227","0199d150-d572-71e8-9cbf-93368501134d","","null","<div style=""display: flex; justify-content: center; align-items: center;"">
                     <img src=""images/other/blank.png"" style=""width: 300px; height: 300px;"" />
                   </div>","null","",""
"","","","","","html-keyboard-response","45","302755","0.0-45.0","030C3DF8D8684C098400FF9FE8DFA9FD","0199d161-35dc-745a-98c3-f19da0b28227","0199d150-d572-71e8-9cbf-93368501134d","","null","<div style=""display: flex; justify-content: center; align-items: center;"">
                     <img src=""images/causal/causal_series_6/causal_series_6_a.png"" style=""width: 300px; height: 300px;"" />
                   </div>","null","",""
"","","","","","html-keyboard-response","46","309758","0.0-46.0","030C3DF8D8684C098400FF9FE8DFA9FD","0199d161-35dc-745a-98c3-f19da0b28227","0199d150-d572-71e8-9cbf-93368501134d","","null","<div style=""display: flex; justify-content: center; align-items: center;"">
                     <img src=""images/causal/causal_series_6/causal_series_6_b.png"" style=""width: 300px; height: 300px;"" />
                   </div>","null","",""
"","","","","","html-keyboard-response","47","316760","0.0-47.0","030C3DF8D8684C098400FF9FE8DFA9FD","0199d161-35dc-745a-98c3-f19da0b28227","0199d150-d572-71e8-9cbf-93368501134d","","null","<div style=""display: flex; justify-content: center; align-items: center;"">
                     <img src=""images/causal/causal_series_6/causal_series_6_c.png"" style=""width: 300px; height: 300px;"" />
                   </div>","null","",""
"","","","","","html-button-response","48","317641","0.0-48.0","030C3DF8D8684C098400FF9FE8DFA9FD","0199d161-35dc-745a-98c3-f19da0b28227","0199d150-d572-71e8-9cbf-93368501134d","","880","
        <div style=""display: flex; justify-content: center; align-items: center;"">
          <img src=""images/red_deck_2.png"" style=""width: 300px; height: 300px; margin-right: 10px;"" />
          <img src=""images/blue_deck_1.png"" style=""width: 300px; height: 300px;"" />
        </div>","0","0",""
"","","","","","html-keyboard-response","49","324645","0.0-49.0-0.0-0.0","030C3DF8D8684C098400FF9FE8DFA9FD","0199d161-35dc-745a-98c3-f19da0b28227","0199d150-d572-71e8-9cbf-93368501134d","","null","<div style=""display: flex; justify-content: center; align-items: center;"">
                     <img src=""images/causal/causal_series_6/causal_series_6_d.png"" style=""width: 300px; height: 300px;"" />
                   </div>","null","",""
"","","","","","survey-likert","50","331429","0.0-50.0","030C3DF8D8684C098400FF9FE8DFA9FD","0199d161-35dc-745a-98c3-f19da0b28227","0199d150-d572-71e8-9cbf-93368501134d","","6783","","{""Q0"":4}","","[0]"
"","","","","","survey-likert","51","333939","0.0-51.0","030C3DF8D8684C098400FF9FE8DFA9FD","0199d161-35dc-745a-98c3-f19da0b28227","0199d150-d572-71e8-9cbf-93368501134d","","2508","","{""Q0"":3}","","[0]"
"","","","","","html-keyboard-response","52","340943","0.0-52.0","030C3DF8D8684C098400FF9FE8DFA9FD","0199d161-35dc-745a-98c3-f19da0b28227","0199d150-d572-71e8-9cbf-93368501134d","","null","<div style=""display: flex; justify-content: center; align-items: center;"">
                     <img src=""images/other/blank.png"" style=""width: 300px; height: 300px;"" />
                   </div>","null","",""
"","","","","","html-keyboard-response","53","347946","0.0-53.0","030C3DF8D8684C098400FF9FE8DFA9FD","0199d161-35dc-745a-98c3-f19da0b28227","0199d150-d572-71e8-9cbf-93368501134d","","null","<div style=""display: flex; justify-content: center; align-items: center;"">
                     <img src=""images/causal/causal_series_2/causal_series_2_a.png"" style=""width: 300px; height: 300px;"" />
                   </div>","null","",""
"","","","","","html-keyboard-response","54","354951","0.0-54.0","030C3DF8D8684C098400FF9FE8DFA9FD","0199d161-35dc-745a-98c3-f19da0b28227","0199d150-d572-71e8-9cbf-93368501134d","","null","<div style=""display: flex; justify-content: center; align-items: center;"">
                     <img src=""images/causal/causal_series_2/causal_series_2_b.png"" style=""width: 300px; height: 300px;"" />
                   </div>","null","",""
"","","","","","html-keyboard-response","55","361954","0.0-55.0","030C3DF8D8684C098400FF9FE8DFA9FD","0199d161-35dc-745a-98c3-f19da0b28227","0199d150-d572-71e8-9cbf-93368501134d","","null","<div style=""display: flex; justify-content: center; align-items: center;"">
                     <img src=""images/causal/causal_series_2/causal_series_2_c.png"" style=""width: 300px; height: 300px;"" />
                   </div>","null","",""
"","","","","","html-button-response","56","363408","0.0-56.0","030C3DF8D8684C098400FF9FE8DFA9FD","0199d161-35dc-745a-98c3-f19da0b28227","0199d150-d572-71e8-9cbf-93368501134d","","1451","
        <div style=""display: flex; justify-content: center; align-items: center;"">
          <img src=""images/red_deck_2.png"" style=""width: 300px; height: 300px; margin-right: 10px;"" />
          <img src=""images/blue_deck_1.png"" style=""width: 300px; height: 300px;"" />
        </div>","0","0",""
"","","","","","html-keyboard-response","57","370411","0.0-57.0-0.0-0.0","030C3DF8D8684C098400FF9FE8DFA9FD","0199d161-35dc-745a-98c3-f19da0b28227","0199d150-d572-71e8-9cbf-93368501134d","","null","<div style=""display: flex; justify-content: center; align-items: center;"">
                     <img src=""images/causal/causal_series_2/causal_series_2_d.png"" style=""width: 300px; height: 300px;"" />
                   </div>","null","",""
"","","","","","survey-likert","58","372721","0.0-58.0","030C3DF8D8684C098400FF9FE8DFA9FD","0199d161-35dc-745a-98c3-f19da0b28227","0199d150-d572-71e8-9cbf-93368501134d","","2308","","{""Q0"":3}","","[0]"
"","","","","","survey-likert","59","374963","0.0-59.0","030C3DF8D8684C098400FF9FE8DFA9FD","0199d161-35dc-745a-98c3-f19da0b28227","0199d150-d572-71e8-9cbf-93368501134d","","2241","","{""Q0"":3}","","[0]"
"","","","","","html-keyboard-response","60","381968","0.0-60.0","030C3DF8D8684C098400FF9FE8DFA9FD","0199d161-35dc-745a-98c3-f19da0b28227","0199d150-d572-71e8-9cbf-93368501134d","","null","<div style=""display: flex; justify-content: center; align-items: center;"">
                     <img src=""images/other/blank.png"" style=""width: 300px; height: 300px;"" />
                   </div>","null","",""
"","","","","","html-keyboard-response","61","388973","0.0-61.0","030C3DF8D8684C098400FF9FE8DFA9FD","0199d161-35dc-745a-98c3-f19da0b28227","0199d150-d572-71e8-9cbf-93368501134d","","null","<div style=""display: flex; justify-content: center; align-items: center;"">
                     <img src=""images/causal/causal_series_5/causal_series_5_a.png"" style=""width: 300px; height: 300px;"" />
                   </div>","null","",""
"","","","","","html-keyboard-response","62","395976","0.0-62.0","030C3DF8D8684C098400FF9FE8DFA9FD","0199d161-35dc-745a-98c3-f19da0b28227","0199d150-d572-71e8-9cbf-93368501134d","","null","<div style=""display: flex; justify-content: center; align-items: center;"">
                     <img src=""images/causal/causal_series_5/causal_series_5_b.png"" style=""width: 300px; height: 300px;"" />
                   </div>","null","",""
"","","","","","html-keyboard-response","63","402978","0.0-63.0","030C3DF8D8684C098400FF9FE8DFA9FD","0199d161-35dc-745a-98c3-f19da0b28227","0199d150-d572-71e8-9cbf-93368501134d","","null","<div style=""display: flex; justify-content: center; align-items: center;"">
                     <img src=""images/causal/causal_series_5/causal_series_5_c.png"" style=""width: 300px; height: 300px;"" />
                   </div>","null","",""
"","","","","","html-button-response","64","404091","0.0-64.0","030C3DF8D8684C098400FF9FE8DFA9FD","0199d161-35dc-745a-98c3-f19da0b28227","0199d150-d572-71e8-9cbf-93368501134d","","1109","
        <div style=""display: flex; justify-content: center; align-items: center;"">
          <img src=""images/red_deck_2.png"" style=""width: 300px; height: 300px; margin-right: 10px;"" />
          <img src=""images/blue_deck_1.png"" style=""width: 300px; height: 300px;"" />
        </div>","0","0",""
"","","","","","html-keyboard-response","65","411094","0.0-65.0-0.0-0.0","030C3DF8D8684C098400FF9FE8DFA9FD","0199d161-35dc-745a-98c3-f19da0b28227","0199d150-d572-71e8-9cbf-93368501134d","","null","<div style=""display: flex; justify-content: center; align-items: center;"">
                     <img src=""images/causal/causal_series_5/causal_series_5_d.png"" style=""width: 300px; height: 300px;"" />
                   </div>","null","",""
"","","","","","survey-likert","66","413528","0.0-66.0","030C3DF8D8684C098400FF9FE8DFA9FD","0199d161-35dc-745a-98c3-f19da0b28227","0199d150-d572-71e8-9cbf-93368501134d","","2433","","{""Q0"":2}","","[0]"
"","","","","","survey-likert","67","417300","0.0-67.0","030C3DF8D8684C098400FF9FE8DFA9FD","0199d161-35dc-745a-98c3-f19da0b28227","0199d150-d572-71e8-9cbf-93368501134d","","3772","","{""Q0"":3}","","[0]"
"","","","","","html-keyboard-response","68","424303","0.0-68.0","030C3DF8D8684C098400FF9FE8DFA9FD","0199d161-35dc-745a-98c3-f19da0b28227","0199d150-d572-71e8-9cbf-93368501134d","","null","<div style=""display: flex; justify-content: center; align-items: center;"">
                     <img src=""images/other/blank.png"" style=""width: 300px; height: 300px;"" />
                   </div>","null","",""
"","","","","","html-keyboard-response","69","431306","0.0-69.0","030C3DF8D8684C098400FF9FE8DFA9FD","0199d161-35dc-745a-98c3-f19da0b28227","0199d150-d572-71e8-9cbf-93368501134d","","null","<div style=""display: flex; justify-content: center; align-items: center;"">
                     <img src=""images/causal/causal_series_1/causal_series_1_a.png"" style=""width: 300px; height: 300px;"" />
                   </div>","null","",""
"","","","","","html-keyboard-response","70","438310","0.0-70.0","030C3DF8D8684C098400FF9FE8DFA9FD","0199d161-35dc-745a-98c3-f19da0b28227","0199d150-d572-71e8-9cbf-93368501134d","","null","<div style=""display: flex; justify-content: center; align-items: center;"">
                     <img src=""images/causal/causal_series_1/causal_series_1_b.png"" style=""width: 300px; height: 300px;"" />
                   </div>","null","",""
"","","","","","html-keyboard-response","71","445312","0.0-71.0","030C3DF8D8684C098400FF9FE8DFA9FD","0199d161-35dc-745a-98c3-f19da0b28227","0199d150-d572-71e8-9cbf-93368501134d","","null","<div style=""display: flex; justify-content: center; align-items: center;"">
                     <img src=""images/causal/causal_series_1/causal_series_1_c.png"" style=""width: 300px; height: 300px;"" />
                   </div>","null","",""
"","","","","","html-button-response","72","446695","0.0-72.0","030C3DF8D8684C098400FF9FE8DFA9FD","0199d161-35dc-745a-98c3-f19da0b28227","0199d150-d572-71e8-9cbf-93368501134d","","1379","
        <div style=""display: flex; justify-content: center; align-items: center;"">
          <img src=""images/red_deck_2.png"" style=""width: 300px; height: 300px; margin-right: 10px;"" />
          <img src=""images/blue_deck_1.png"" style=""width: 300px; height: 300px;"" />
        </div>","0","0",""
"","","","","","html-keyboard-response","73","453697","0.0-73.0-0.0-0.0","030C3DF8D8684C098400FF9FE8DFA9FD","0199d161-35dc-745a-98c3-f19da0b28227","0199d150-d572-71e8-9cbf-93368501134d","","null","<div style=""display: flex; justify-content: center; align-items: center;"">
                     <img src=""images/causal/causal_series_1/causal_series_1_d.png"" style=""width: 300px; height: 300px;"" />
                   </div>","null","",""
"","","","","","survey-likert","74","456867","0.0-74.0","030C3DF8D8684C098400FF9FE8DFA9FD","0199d161-35dc-745a-98c3-f19da0b28227","0199d150-d572-71e8-9cbf-93368501134d","","3167","","{""Q0"":2}","","[0]"
"","","","","","survey-likert","75","458483","0.0-75.0","030C3DF8D8684C098400FF9FE8DFA9FD","0199d161-35dc-745a-98c3-f19da0b28227","0199d150-d572-71e8-9cbf-93368501134d","","1614","","{""Q0"":3}","","[0]"
"","","","","","html-keyboard-response","76","465486","0.0-76.0","030C3DF8D8684C098400FF9FE8DFA9FD","0199d161-35dc-745a-98c3-f19da0b28227","0199d150-d572-71e8-9cbf-93368501134d","","null","<div style=""display: flex; justify-content: center; align-items: center;"">
                     <img src=""images/other/blank.png"" style=""width: 300px; height: 300px;"" />
                   </div>","null","",""
"","","","","","html-keyboard-response","77","472490","0.0-77.0","030C3DF8D8684C098400FF9FE8DFA9FD","0199d161-35dc-745a-98c3-f19da0b28227","0199d150-d572-71e8-9cbf-93368501134d","","null","<div style=""display: flex; justify-content: center; align-items: center;"">
                     <img src=""images/causal/causal_series_10/causal_series_10_a.png"" style=""width: 300px; height: 300px;"" />
                   </div>","null","",""
"","","","","","html-keyboard-response","78","479493","0.0-78.0","030C3DF8D8684C098400FF9FE8DFA9FD","0199d161-35dc-745a-98c3-f19da0b28227","0199d150-d572-71e8-9cbf-93368501134d","","null","<div style=""display: flex; justify-content: center; align-items: center;"">
                     <img src=""images/causal/causal_series_10/causal_series_10_b.png"" style=""width: 300px; height: 300px;"" />
                   </div>","null","",""
"","","","","","html-keyboard-response","79","486495","0.0-79.0","030C3DF8D8684C098400FF9FE8DFA9FD","0199d161-35dc-745a-98c3-f19da0b28227","0199d150-d572-71e8-9cbf-93368501134d","","null","<div style=""display: flex; justify-content: center; align-items: center;"">
                     <img src=""images/causal/causal_series_10/causal_series_10_c.png"" style=""width: 300px; height: 300px;"" />
                   </div>","null","",""
"","","","","","html-button-response","80","487562","0.0-80.0","030C3DF8D8684C098400FF9FE8DFA9FD","0199d161-35dc-745a-98c3-f19da0b28227","0199d150-d572-71e8-9cbf-93368501134d","","1065","
        <div style=""display: flex; justify-content: center; align-items: center;"">
          <img src=""images/red_deck_2.png"" style=""width: 300px; height: 300px; margin-right: 10px;"" />
          <img src=""images/blue_deck_1.png"" style=""width: 300px; height: 300px;"" />
        </div>","0","0",""
"","","","","","html-keyboard-response","81","494565","0.0-81.0-0.0-0.0","030C3DF8D8684C098400FF9FE8DFA9FD","0199d161-35dc-745a-98c3-f19da0b28227","0199d150-d572-71e8-9cbf-93368501134d","","null","<div style=""display: flex; justify-content: center; align-items: center;"">
                     <img src=""images/causal/causal_series_10/causal_series_10_d.png"" style=""width: 300px; height: 300px;"" />
                   </div>","null","",""
"","","","","","survey-likert","82","496659","0.0-82.0","030C3DF8D8684C098400FF9FE8DFA9FD","0199d161-35dc-745a-98c3-f19da0b28227","0199d150-d572-71e8-9cbf-93368501134d","","2092","","{""Q0"":3}","","[0]"
"","","","","","survey-likert","83","498095","0.0-83.0","030C3DF8D8684C098400FF9FE8DFA9FD","0199d161-35dc-745a-98c3-f19da0b28227","0199d150-d572-71e8-9cbf-93368501134d","","1434","","{""Q0"":3}","","[0]"
"","","","","","html-keyboard-response","84","505099","0.0-84.0","030C3DF8D8684C098400FF9FE8DFA9FD","0199d161-35dc-745a-98c3-f19da0b28227","0199d150-d572-71e8-9cbf-93368501134d","","null","<div style=""display: flex; justify-content: center; align-items: center;"">
                     <img src=""images/other/blank.png"" style=""width: 300px; height: 300px;"" />
                   </div>","null","",""
"","","","","","survey-text","85","604369","0.0-85.0","030C3DF8D8684C098400FF9FE8DFA9FD","0199d161-35dc-745a-98c3-f19da0b28227","0199d150-d572-71e8-9cbf-93368501134d","","99267","","{""Q0"":""One deck follows from the previous descriptions, but it does so in a nonsensical manner, often using characters and events in humorous and illogical ways. The second deck describes an event that is totally unrelated to the previous descriptions, but it in itself is not nonsensical or illogical.""}","",""
"","","","","","html-button-response","86","610268","0.0-86.0","030C3DF8D8684C098400FF9FE8DFA9FD","0199d161-35dc-745a-98c3-f19da0b28227","0199d150-d572-71e8-9cbf-93368501134d","","5897","Which color deck do the following images continue the story from?","0","",""
"","","","","","html-button-response","87","614584","0.0-87.0","030C3DF8D8684C098400FF9FE8DFA9FD","0199d161-35dc-745a-98c3-f19da0b28227","0199d150-d572-71e8-9cbf-93368501134d","","4315","Which color deck do the following images NOT follow the story from?","1","",""
"","","","","","html-button-response","88","618839","0.0-88.0","030C3DF8D8684C098400FF9FE8DFA9FD","0199d161-35dc-745a-98c3-f19da0b28227","0199d150-d572-71e8-9cbf-93368501134d","","4253","Which type of deck did you prefer overall?","1","",""
"","","","","","survey-text","89","626167","0.0-89.0","030C3DF8D8684C098400FF9FE8DFA9FD","0199d161-35dc-745a-98c3-f19da0b28227","0199d150-d572-71e8-9cbf-93368501134d","","7325","","{""Q0"":""MALE"",""Q1"":""33""}","",""
"","","","","","instructions","90","631906","0.0-90.0","030C3DF8D8684C098400FF9FE8DFA9FD","0199d161-35dc-745a-98c3-f19da0b28227","0199d150-d572-71e8-9cbf-93368501134d","[{""page_index"":0,""viewing_time"":5738}]","5738","","","",""
