"success","timeout","failed_images","failed_audio","failed_video","trial_type","trial_index","time_elapsed","internal_node_id","subject_id","study_id","session_id","view_history","rt","stimulus","response","choice"
"true","false","[]","[]","[]","preload","0","888","0.0-0.0","6487A8C9E78E406A94C5CD498C9B43D1","22197a6f-6932-4c73-9838-f48678e6fdd1","23db58b9-63b0-4bce-8714-07ce439e665e","","","","",""
"","","","","","instructions","1","4244","0.0-1.0","6487A8C9E78E406A94C5CD498C9B43D1","22197a6f-6932-4c73-9838-f48678e6fdd1","23db58b9-63b0-4bce-8714-07ce439e665e","[{""page_index"":0,""viewing_time"":3356}]","3356","","",""
"","","","","","instructions","2","11957","0.0-2.0","6487A8C9E78E406A94C5CD498C9B43D1","22197a6f-6932-4c73-9838-f48678e6fdd1","23db58b9-63b0-4bce-8714-07ce439e665e","[{""page_index"":0,""viewing_time"":7712}]","7712","","",""
"true","","","","","fullscreen","3","15557","0.0-3.0","6487A8C9E78E406A94C5CD498C9B43D1","22197a6f-6932-4c73-9838-f48678e6fdd1","23db58b9-63b0-4bce-8714-07ce439e665e","","2590","","",""
"","","","","","instructions","4","21748","0.0-4.0","6487A8C9E78E406A94C5CD498C9B43D1","22197a6f-6932-4c73-9838-f48678e6fdd1","23db58b9-63b0-4bce-8714-07ce439e665e","[{""page_index"":0,""viewing_time"":6190}]","6191","","",""
"","","","","","html-keyboard-response","5","24759","0.0-5.0","6487A8C9E78E406A94C5CD498C9B43D1","22197a6f-6932-4c73-9838-f48678e6fdd1","23db58b9-63b0-4bce-8714-07ce439e665e","","null","<div style=""display: flex; justify-content: center; align-items: center;"">
                <img src=""images/causal/causal_series_3/causal_series_3_a.jpg"" style=""width: 300px; height: 300px;"" />
              </div>","null",""
"","","","","","html-button-response","6","27748","0.0-6.0","6487A8C9E78E406A94C5CD498C9B43D1","22197a6f-6932-4c73-9838-f48678e6fdd1","23db58b9-63b0-4bce-8714-07ce439e665e","","2987","
    <div style=""display: flex; justify-content: center; align-items: center;"">
      <img src=""images/red_deck_2.png"" style=""width: 300px; height: 300px; margin-right: 10px;"" />
      <img src=""images/blue_deck_1.png"" style=""width: 300px; height: 300px;"" />
    </div>","0","0"
"","","","","","html-keyboard-response","7","30761","0.0-7.0-0.0-0.0","6487A8C9E78E406A94C5CD498C9B43D1","22197a6f-6932-4c73-9838-f48678e6fdd1","23db58b9-63b0-4bce-8714-07ce439e665e","","null","<div style=""display: flex; justify-content: center; align-items: center;"">
                <img src=""images/causal/causal_series_3/causal_series_3_b.jpg"" style=""width: 300px; height: 300px;"" />
              </div>","null",""
"","","","","","html-keyboard-response","8","33763","0.0-7.0-0.0-1.0","6487A8C9E78E406A94C5CD498C9B43D1","22197a6f-6932-4c73-9838-f48678e6fdd1","23db58b9-63b0-4bce-8714-07ce439e665e","","null","<div style=""display: flex; justify-content: center; align-items: center;"">
                <img src=""images/causal/causal_series_3/causal_series_3_c.jpg"" style=""width: 300px; height: 300px;"" />
              </div>","null",""
"","","","","","html-keyboard-response","9","36766","0.0-7.0-0.0-2.0","6487A8C9E78E406A94C5CD498C9B43D1","22197a6f-6932-4c73-9838-f48678e6fdd1","23db58b9-63b0-4bce-8714-07ce439e665e","","null","<div style=""display: flex; justify-content: center; align-items: center;"">
                <img src=""images/causal/causal_series_3/causal_series_3_d.jpg"" style=""width: 300px; height: 300px;"" />
              </div>","null",""
"","","","","","html-keyboard-response","10","39772","0.0-8.0","6487A8C9E78E406A94C5CD498C9B43D1","22197a6f-6932-4c73-9838-f48678e6fdd1","23db58b9-63b0-4bce-8714-07ce439e665e","","null","<div style=""display: flex; justify-content: center; align-items: center;"">
                <img src=""images/other/blank.jpg"" style=""width: 300px; height: 300px;"" />
              </div>","null",""
"","","","","","html-keyboard-response","11","42777","0.0-9.0","6487A8C9E78E406A94C5CD498C9B43D1","22197a6f-6932-4c73-9838-f48678e6fdd1","23db58b9-63b0-4bce-8714-07ce439e665e","","null","<div style=""display: flex; justify-content: center; align-items: center;"">
                <img src=""images/causal/causal_series_2/causal_series_2_a.jpg"" style=""width: 300px; height: 300px;"" />
              </div>","null",""
"","","","","","html-button-response","12","44380","0.0-10.0","6487A8C9E78E406A94C5CD498C9B43D1","22197a6f-6932-4c73-9838-f48678e6fdd1","23db58b9-63b0-4bce-8714-07ce439e665e","","1601","
    <div style=""display: flex; justify-content: center; align-items: center;"">
      <img src=""images/red_deck_2.png"" style=""width: 300px; height: 300px; margin-right: 10px;"" />
      <img src=""images/blue_deck_1.png"" style=""width: 300px; height: 300px;"" />
    </div>","1","1"
"","","","","","html-keyboard-response","13","47393","0.0-11.0-1.0-0.0","6487A8C9E78E406A94C5CD498C9B43D1","22197a6f-6932-4c73-9838-f48678e6fdd1","23db58b9-63b0-4bce-8714-07ce439e665e","","null","<div style=""display: flex; justify-content: center; align-items: center;"">
                <img src=""images/semantic/semantic_series_3/semantic_series_3_d.jpg"" style=""width: 300px; height: 300px;"" />
              </div>","null",""
"","","","","","html-keyboard-response","14","50396","0.0-11.0-1.0-1.0","6487A8C9E78E406A94C5CD498C9B43D1","22197a6f-6932-4c73-9838-f48678e6fdd1","23db58b9-63b0-4bce-8714-07ce439e665e","","null","<div style=""display: flex; justify-content: center; align-items: center;"">
                <img src=""images/semantic/semantic_series_4/semantic_series_4_d.jpg"" style=""width: 300px; height: 300px;"" />
              </div>","null",""
"","","","","","html-keyboard-response","15","53413","0.0-11.0-1.0-2.0","6487A8C9E78E406A94C5CD498C9B43D1","22197a6f-6932-4c73-9838-f48678e6fdd1","23db58b9-63b0-4bce-8714-07ce439e665e","","null","<div style=""display: flex; justify-content: center; align-items: center;"">
                <img src=""images/semantic/semantic_series_5/semantic_series_5_d.jpg"" style=""width: 300px; height: 300px;"" />
              </div>","null",""
"","","","","","html-keyboard-response","16","56419","0.0-12.0","6487A8C9E78E406A94C5CD498C9B43D1","22197a6f-6932-4c73-9838-f48678e6fdd1","23db58b9-63b0-4bce-8714-07ce439e665e","","null","<div style=""display: flex; justify-content: center; align-items: center;"">
                <img src=""images/other/blank.jpg"" style=""width: 300px; height: 300px;"" />
              </div>","null",""
"","","","","","html-keyboard-response","17","59422","0.0-13.0","6487A8C9E78E406A94C5CD498C9B43D1","22197a6f-6932-4c73-9838-f48678e6fdd1","23db58b9-63b0-4bce-8714-07ce439e665e","","null","<div style=""display: flex; justify-content: center; align-items: center;"">
                <img src=""images/causal/causal_series_12/causal_series_12_a.jpg"" style=""width: 300px; height: 300px;"" />
              </div>","null",""
"","","","","","html-button-response","18","60597","0.0-14.0","6487A8C9E78E406A94C5CD498C9B43D1","22197a6f-6932-4c73-9838-f48678e6fdd1","23db58b9-63b0-4bce-8714-07ce439e665e","","1173","
    <div style=""display: flex; justify-content: center; align-items: center;"">
      <img src=""images/red_deck_2.png"" style=""width: 300px; height: 300px; margin-right: 10px;"" />
      <img src=""images/blue_deck_1.png"" style=""width: 300px; height: 300px;"" />
    </div>","0","0"
"","","","","","html-keyboard-response","19","63604","0.0-15.0-0.0-0.0","6487A8C9E78E406A94C5CD498C9B43D1","22197a6f-6932-4c73-9838-f48678e6fdd1","23db58b9-63b0-4bce-8714-07ce439e665e","","null","<div style=""display: flex; justify-content: center; align-items: center;"">
                <img src=""images/causal/causal_series_12/causal_series_12_b.jpg"" style=""width: 300px; height: 300px;"" />
              </div>","null",""
"","","","","","html-keyboard-response","20","66618","0.0-15.0-0.0-1.0","6487A8C9E78E406A94C5CD498C9B43D1","22197a6f-6932-4c73-9838-f48678e6fdd1","23db58b9-63b0-4bce-8714-07ce439e665e","","null","<div style=""display: flex; justify-content: center; align-items: center;"">
                <img src=""images/causal/causal_series_12/causal_series_12_c.jpg"" style=""width: 300px; height: 300px;"" />
              </div>","null",""
"","","","","","html-keyboard-response","21","69623","0.0-15.0-0.0-2.0","6487A8C9E78E406A94C5CD498C9B43D1","22197a6f-6932-4c73-9838-f48678e6fdd1","23db58b9-63b0-4bce-8714-07ce439e665e","","null","<div style=""display: flex; justify-content: center; align-items: center;"">
                <img src=""images/causal/causal_series_12/causal_series_12_d.jpg"" style=""width: 300px; height: 300px;"" />
              </div>","null",""
"","","","","","html-keyboard-response","22","72634","0.0-16.0","6487A8C9E78E406A94C5CD498C9B43D1","22197a6f-6932-4c73-9838-f48678e6fdd1","23db58b9-63b0-4bce-8714-07ce439e665e","","null","<div style=""display: flex; justify-content: center; align-items: center;"">
                <img src=""images/other/blank.jpg"" style=""width: 300px; height: 300px;"" />
              </div>","null",""
"","","","","","html-keyboard-response","23","75649","0.0-17.0","6487A8C9E78E406A94C5CD498C9B43D1","22197a6f-6932-4c73-9838-f48678e6fdd1","23db58b9-63b0-4bce-8714-07ce439e665e","","null","<div style=""display: flex; justify-content: center; align-items: center;"">
                <img src=""images/causal/causal_series_9/causal_series_9_a.jpg"" style=""width: 300px; height: 300px;"" />
              </div>","null",""
"","","","","","html-button-response","24","77036","0.0-18.0","6487A8C9E78E406A94C5CD498C9B43D1","22197a6f-6932-4c73-9838-f48678e6fdd1","23db58b9-63b0-4bce-8714-07ce439e665e","","1386","
    <div style=""display: flex; justify-content: center; align-items: center;"">
      <img src=""images/red_deck_2.png"" style=""width: 300px; height: 300px; margin-right: 10px;"" />
      <img src=""images/blue_deck_1.png"" style=""width: 300px; height: 300px;"" />
    </div>","0","0"
"","","","","","html-keyboard-response","25","80044","0.0-19.0-0.0-0.0","6487A8C9E78E406A94C5CD498C9B43D1","22197a6f-6932-4c73-9838-f48678e6fdd1","23db58b9-63b0-4bce-8714-07ce439e665e","","null","<div style=""display: flex; justify-content: center; align-items: center;"">
                <img src=""images/causal/causal_series_9/causal_series_9_b.jpg"" style=""width: 300px; height: 300px;"" />
              </div>","null",""
"","","","","","html-keyboard-response","26","83058","0.0-19.0-0.0-1.0","6487A8C9E78E406A94C5CD498C9B43D1","22197a6f-6932-4c73-9838-f48678e6fdd1","23db58b9-63b0-4bce-8714-07ce439e665e","","null","<div style=""display: flex; justify-content: center; align-items: center;"">
                <img src=""images/causal/causal_series_9/causal_series_9_c.jpg"" style=""width: 300px; height: 300px;"" />
              </div>","null",""
"","","","","","html-keyboard-response","27","86066","0.0-19.0-0.0-2.0","6487A8C9E78E406A94C5CD498C9B43D1","22197a6f-6932-4c73-9838-f48678e6fdd1","23db58b9-63b0-4bce-8714-07ce439e665e","","null","<div style=""display: flex; justify-content: center; align-items: center;"">
                <img src=""images/causal/causal_series_9/causal_series_9_d.jpg"" style=""width: 300px; height: 300px;"" />
              </div>","null",""
"","","","","","html-keyboard-response","28","89068","0.0-20.0","6487A8C9E78E406A94C5CD498C9B43D1","22197a6f-6932-4c73-9838-f48678e6fdd1","23db58b9-63b0-4bce-8714-07ce439e665e","","null","<div style=""display: flex; justify-content: center; align-items: center;"">
                <img src=""images/other/blank.jpg"" style=""width: 300px; height: 300px;"" />
              </div>","null",""
"","","","","","html-keyboard-response","29","92081","0.0-21.0","6487A8C9E78E406A94C5CD498C9B43D1","22197a6f-6932-4c73-9838-f48678e6fdd1","23db58b9-63b0-4bce-8714-07ce439e665e","","null","<div style=""display: flex; justify-content: center; align-items: center;"">
                <img src=""images/causal/causal_series_15/causal_series_15_a.jpg"" style=""width: 300px; height: 300px;"" />
              </div>","null",""
"","","","","","html-button-response","30","93764","0.0-22.0","6487A8C9E78E406A94C5CD498C9B43D1","22197a6f-6932-4c73-9838-f48678e6fdd1","23db58b9-63b0-4bce-8714-07ce439e665e","","1681","
    <div style=""display: flex; justify-content: center; align-items: center;"">
      <img src=""images/red_deck_2.png"" style=""width: 300px; height: 300px; margin-right: 10px;"" />
      <img src=""images/blue_deck_1.png"" style=""width: 300px; height: 300px;"" />
    </div>","1","1"
"","","","","","html-keyboard-response","31","96776","0.0-23.0-1.0-0.0","6487A8C9E78E406A94C5CD498C9B43D1","22197a6f-6932-4c73-9838-f48678e6fdd1","23db58b9-63b0-4bce-8714-07ce439e665e","","null","<div style=""display: flex; justify-content: center; align-items: center;"">
                <img src=""images/semantic/semantic_series_6/semantic_series_6_d.jpg"" style=""width: 300px; height: 300px;"" />
              </div>","null",""
"","","","","","html-keyboard-response","32","99792","0.0-23.0-1.0-1.0","6487A8C9E78E406A94C5CD498C9B43D1","22197a6f-6932-4c73-9838-f48678e6fdd1","23db58b9-63b0-4bce-8714-07ce439e665e","","null","<div style=""display: flex; justify-content: center; align-items: center;"">
                <img src=""images/semantic/semantic_series_7/semantic_series_7_d.jpg"" style=""width: 300px; height: 300px;"" />
              </div>","null",""
"","","","","","html-keyboard-response","33","102806","0.0-23.0-1.0-2.0","6487A8C9E78E406A94C5CD498C9B43D1","22197a6f-6932-4c73-9838-f48678e6fdd1","23db58b9-63b0-4bce-8714-07ce439e665e","","null","<div style=""display: flex; justify-content: center; align-items: center;"">
                <img src=""images/semantic/semantic_series_8/semantic_series_8_d.jpg"" style=""width: 300px; height: 300px;"" />
              </div>","null",""
"","","","","","html-keyboard-response","34","105821","0.0-24.0","6487A8C9E78E406A94C5CD498C9B43D1","22197a6f-6932-4c73-9838-f48678e6fdd1","23db58b9-63b0-4bce-8714-07ce439e665e","","null","<div style=""display: flex; justify-content: center; align-items: center;"">
                <img src=""images/other/blank.jpg"" style=""width: 300px; height: 300px;"" />
              </div>","null",""
"","","","","","html-keyboard-response","35","108828","0.0-25.0","6487A8C9E78E406A94C5CD498C9B43D1","22197a6f-6932-4c73-9838-f48678e6fdd1","23db58b9-63b0-4bce-8714-07ce439e665e","","null","<div style=""display: flex; justify-content: center; align-items: center;"">
                <img src=""images/causal/causal_series_7/causal_series_7_a.jpg"" style=""width: 300px; height: 300px;"" />
              </div>","null",""
"","","","","","html-button-response","36","110219","0.0-26.0","6487A8C9E78E406A94C5CD498C9B43D1","22197a6f-6932-4c73-9838-f48678e6fdd1","23db58b9-63b0-4bce-8714-07ce439e665e","","1390","
    <div style=""display: flex; justify-content: center; align-items: center;"">
      <img src=""images/red_deck_2.png"" style=""width: 300px; height: 300px; margin-right: 10px;"" />
      <img src=""images/blue_deck_1.png"" style=""width: 300px; height: 300px;"" />
    </div>","1","1"
"","","","","","html-keyboard-response","37","113223","0.0-27.0-1.0-0.0","6487A8C9E78E406A94C5CD498C9B43D1","22197a6f-6932-4c73-9838-f48678e6fdd1","23db58b9-63b0-4bce-8714-07ce439e665e","","null","<div style=""display: flex; justify-content: center; align-items: center;"">
                <img src=""images/semantic/semantic_series_18/semantic_series_18_d.jpg"" style=""width: 300px; height: 300px;"" />
              </div>","null",""
"","","","","","html-keyboard-response","38","116230","0.0-27.0-1.0-1.0","6487A8C9E78E406A94C5CD498C9B43D1","22197a6f-6932-4c73-9838-f48678e6fdd1","23db58b9-63b0-4bce-8714-07ce439e665e","","null","<div style=""display: flex; justify-content: center; align-items: center;"">
                <img src=""images/semantic/semantic_series_1/semantic_series_1_d.jpg"" style=""width: 300px; height: 300px;"" />
              </div>","null",""
"","","","","","html-keyboard-response","39","119244","0.0-27.0-1.0-2.0","6487A8C9E78E406A94C5CD498C9B43D1","22197a6f-6932-4c73-9838-f48678e6fdd1","23db58b9-63b0-4bce-8714-07ce439e665e","","null","<div style=""display: flex; justify-content: center; align-items: center;"">
                <img src=""images/semantic/semantic_series_2/semantic_series_2_d.jpg"" style=""width: 300px; height: 300px;"" />
              </div>","null",""
"","","","","","html-keyboard-response","40","122260","0.0-28.0","6487A8C9E78E406A94C5CD498C9B43D1","22197a6f-6932-4c73-9838-f48678e6fdd1","23db58b9-63b0-4bce-8714-07ce439e665e","","null","<div style=""display: flex; justify-content: center; align-items: center;"">
                <img src=""images/other/blank.jpg"" style=""width: 300px; height: 300px;"" />
              </div>","null",""
"","","","","","html-keyboard-response","41","125277","0.0-29.0","6487A8C9E78E406A94C5CD498C9B43D1","22197a6f-6932-4c73-9838-f48678e6fdd1","23db58b9-63b0-4bce-8714-07ce439e665e","","null","<div style=""display: flex; justify-content: center; align-items: center;"">
                <img src=""images/causal/causal_series_1/causal_series_1_a.jpg"" style=""width: 300px; height: 300px;"" />
              </div>","null",""
"","","","","","html-button-response","42","126211","0.0-30.0","6487A8C9E78E406A94C5CD498C9B43D1","22197a6f-6932-4c73-9838-f48678e6fdd1","23db58b9-63b0-4bce-8714-07ce439e665e","","933","
    <div style=""display: flex; justify-content: center; align-items: center;"">
      <img src=""images/red_deck_2.png"" style=""width: 300px; height: 300px; margin-right: 10px;"" />
      <img src=""images/blue_deck_1.png"" style=""width: 300px; height: 300px;"" />
    </div>","1","1"
"","","","","","html-keyboard-response","43","129213","0.0-31.0-1.0-0.0","6487A8C9E78E406A94C5CD498C9B43D1","22197a6f-6932-4c73-9838-f48678e6fdd1","23db58b9-63b0-4bce-8714-07ce439e665e","","null","<div style=""display: flex; justify-content: center; align-items: center;"">
                <img src=""images/semantic/semantic_series_18/semantic_series_18_d.jpg"" style=""width: 300px; height: 300px;"" />
              </div>","null",""
"","","","","","html-keyboard-response","44","132225","0.0-31.0-1.0-1.0","6487A8C9E78E406A94C5CD498C9B43D1","22197a6f-6932-4c73-9838-f48678e6fdd1","23db58b9-63b0-4bce-8714-07ce439e665e","","null","<div style=""display: flex; justify-content: center; align-items: center;"">
                <img src=""images/semantic/semantic_series_1/semantic_series_1_d.jpg"" style=""width: 300px; height: 300px;"" />
              </div>","null",""
"","","","","","html-keyboard-response","45","135230","0.0-31.0-1.0-2.0","6487A8C9E78E406A94C5CD498C9B43D1","22197a6f-6932-4c73-9838-f48678e6fdd1","23db58b9-63b0-4bce-8714-07ce439e665e","","null","<div style=""display: flex; justify-content: center; align-items: center;"">
                <img src=""images/semantic/semantic_series_2/semantic_series_2_d.jpg"" style=""width: 300px; height: 300px;"" />
              </div>","null",""
"","","","","","html-keyboard-response","46","138244","0.0-32.0","6487A8C9E78E406A94C5CD498C9B43D1","22197a6f-6932-4c73-9838-f48678e6fdd1","23db58b9-63b0-4bce-8714-07ce439e665e","","null","<div style=""display: flex; justify-content: center; align-items: center;"">
                <img src=""images/other/blank.jpg"" style=""width: 300px; height: 300px;"" />
              </div>","null",""
"","","","","","html-keyboard-response","47","141248","0.0-33.0","6487A8C9E78E406A94C5CD498C9B43D1","22197a6f-6932-4c73-9838-f48678e6fdd1","23db58b9-63b0-4bce-8714-07ce439e665e","","null","<div style=""display: flex; justify-content: center; align-items: center;"">
                <img src=""images/causal/causal_series_16/causal_series_16_a.jpg"" style=""width: 300px; height: 300px;"" />
              </div>","null",""
"","","","","","html-button-response","48","142165","0.0-34.0","6487A8C9E78E406A94C5CD498C9B43D1","22197a6f-6932-4c73-9838-f48678e6fdd1","23db58b9-63b0-4bce-8714-07ce439e665e","","915","
    <div style=""display: flex; justify-content: center; align-items: center;"">
      <img src=""images/red_deck_2.png"" style=""width: 300px; height: 300px; margin-right: 10px;"" />
      <img src=""images/blue_deck_1.png"" style=""width: 300px; height: 300px;"" />
    </div>","0","0"
"","","","","","html-keyboard-response","49","145168","0.0-35.0-0.0-0.0","6487A8C9E78E406A94C5CD498C9B43D1","22197a6f-6932-4c73-9838-f48678e6fdd1","23db58b9-63b0-4bce-8714-07ce439e665e","","null","<div style=""display: flex; justify-content: center; align-items: center;"">
                <img src=""images/causal/causal_series_16/causal_series_16_b.jpg"" style=""width: 300px; height: 300px;"" />
              </div>","null",""
"","","","","","html-keyboard-response","50","148180","0.0-35.0-0.0-1.0","6487A8C9E78E406A94C5CD498C9B43D1","22197a6f-6932-4c73-9838-f48678e6fdd1","23db58b9-63b0-4bce-8714-07ce439e665e","","null","<div style=""display: flex; justify-content: center; align-items: center;"">
                <img src=""images/causal/causal_series_16/causal_series_16_c.jpg"" style=""width: 300px; height: 300px;"" />
              </div>","null",""
"","","","","","html-keyboard-response","51","151194","0.0-35.0-0.0-2.0","6487A8C9E78E406A94C5CD498C9B43D1","22197a6f-6932-4c73-9838-f48678e6fdd1","23db58b9-63b0-4bce-8714-07ce439e665e","","null","<div style=""display: flex; justify-content: center; align-items: center;"">
                <img src=""images/causal/causal_series_16/causal_series_16_d.jpg"" style=""width: 300px; height: 300px;"" />
              </div>","null",""
"","","","","","html-keyboard-response","52","154202","0.0-36.0","6487A8C9E78E406A94C5CD498C9B43D1","22197a6f-6932-4c73-9838-f48678e6fdd1","23db58b9-63b0-4bce-8714-07ce439e665e","","null","<div style=""display: flex; justify-content: center; align-items: center;"">
                <img src=""images/other/blank.jpg"" style=""width: 300px; height: 300px;"" />
              </div>","null",""
"","","","","","html-keyboard-response","53","157207","0.0-37.0","6487A8C9E78E406A94C5CD498C9B43D1","22197a6f-6932-4c73-9838-f48678e6fdd1","23db58b9-63b0-4bce-8714-07ce439e665e","","null","<div style=""display: flex; justify-content: center; align-items: center;"">
                <img src=""images/causal/causal_series_11/causal_series_11_a.jpg"" style=""width: 300px; height: 300px;"" />
              </div>","null",""
"","","","","","html-button-response","54","158113","0.0-38.0","6487A8C9E78E406A94C5CD498C9B43D1","22197a6f-6932-4c73-9838-f48678e6fdd1","23db58b9-63b0-4bce-8714-07ce439e665e","","905","
    <div style=""display: flex; justify-content: center; align-items: center;"">
      <img src=""images/red_deck_2.png"" style=""width: 300px; height: 300px; margin-right: 10px;"" />
      <img src=""images/blue_deck_1.png"" style=""width: 300px; height: 300px;"" />
    </div>","1","1"
"","","","","","html-keyboard-response","55","161115","0.0-39.0-1.0-0.0","6487A8C9E78E406A94C5CD498C9B43D1","22197a6f-6932-4c73-9838-f48678e6fdd1","23db58b9-63b0-4bce-8714-07ce439e665e","","null","<div style=""display: flex; justify-content: center; align-items: center;"">
                <img src=""images/semantic/semantic_series_12/semantic_series_12_d.jpg"" style=""width: 300px; height: 300px;"" />
              </div>","null",""
"","","","","","html-keyboard-response","56","164124","0.0-39.0-1.0-1.0","6487A8C9E78E406A94C5CD498C9B43D1","22197a6f-6932-4c73-9838-f48678e6fdd1","23db58b9-63b0-4bce-8714-07ce439e665e","","null","<div style=""display: flex; justify-content: center; align-items: center;"">
                <img src=""images/semantic/semantic_series_13/semantic_series_13_d.jpg"" style=""width: 300px; height: 300px;"" />
              </div>","null",""
"","","","","","html-keyboard-response","57","167139","0.0-39.0-1.0-2.0","6487A8C9E78E406A94C5CD498C9B43D1","22197a6f-6932-4c73-9838-f48678e6fdd1","23db58b9-63b0-4bce-8714-07ce439e665e","","null","<div style=""display: flex; justify-content: center; align-items: center;"">
                <img src=""images/semantic/semantic_series_14/semantic_series_14_d.jpg"" style=""width: 300px; height: 300px;"" />
              </div>","null",""
"","","","","","html-keyboard-response","58","170147","0.0-40.0","6487A8C9E78E406A94C5CD498C9B43D1","22197a6f-6932-4c73-9838-f48678e6fdd1","23db58b9-63b0-4bce-8714-07ce439e665e","","null","<div style=""display: flex; justify-content: center; align-items: center;"">
                <img src=""images/other/blank.jpg"" style=""width: 300px; height: 300px;"" />
              </div>","null",""
"","","","","","html-keyboard-response","59","173157","0.0-41.0","6487A8C9E78E406A94C5CD498C9B43D1","22197a6f-6932-4c73-9838-f48678e6fdd1","23db58b9-63b0-4bce-8714-07ce439e665e","","null","<div style=""display: flex; justify-content: center; align-items: center;"">
                <img src=""images/causal/causal_series_18/causal_series_18_a.jpg"" style=""width: 300px; height: 300px;"" />
              </div>","null",""
"","","","","","html-button-response","60","175969","0.0-42.0","6487A8C9E78E406A94C5CD498C9B43D1","22197a6f-6932-4c73-9838-f48678e6fdd1","23db58b9-63b0-4bce-8714-07ce439e665e","","2810","
    <div style=""display: flex; justify-content: center; align-items: center;"">
      <img src=""images/red_deck_2.png"" style=""width: 300px; height: 300px; margin-right: 10px;"" />
      <img src=""images/blue_deck_1.png"" style=""width: 300px; height: 300px;"" />
    </div>","1","1"
"","","","","","html-keyboard-response","61","178981","0.0-43.0-1.0-0.0","6487A8C9E78E406A94C5CD498C9B43D1","22197a6f-6932-4c73-9838-f48678e6fdd1","23db58b9-63b0-4bce-8714-07ce439e665e","","null","<div style=""display: flex; justify-content: center; align-items: center;"">
                <img src=""images/semantic/semantic_series_15/semantic_series_15_d.jpg"" style=""width: 300px; height: 300px;"" />
              </div>","null",""
"","","","","","html-keyboard-response","62","182468","0.0-43.0-1.0-1.0","6487A8C9E78E406A94C5CD498C9B43D1","22197a6f-6932-4c73-9838-f48678e6fdd1","23db58b9-63b0-4bce-8714-07ce439e665e","","null","<div style=""display: flex; justify-content: center; align-items: center;"">
                <img src=""images/semantic/semantic_series_16/semantic_series_16_d.jpg"" style=""width: 300px; height: 300px;"" />
              </div>","null",""
"","","","","","html-keyboard-response","63","185480","0.0-43.0-1.0-2.0","6487A8C9E78E406A94C5CD498C9B43D1","22197a6f-6932-4c73-9838-f48678e6fdd1","23db58b9-63b0-4bce-8714-07ce439e665e","","null","<div style=""display: flex; justify-content: center; align-items: center;"">
                <img src=""images/semantic/semantic_series_17/semantic_series_17_d.jpg"" style=""width: 300px; height: 300px;"" />
              </div>","null",""
"","","","","","html-keyboard-response","64","188488","0.0-44.0","6487A8C9E78E406A94C5CD498C9B43D1","22197a6f-6932-4c73-9838-f48678e6fdd1","23db58b9-63b0-4bce-8714-07ce439e665e","","null","<div style=""display: flex; justify-content: center; align-items: center;"">
                <img src=""images/other/blank.jpg"" style=""width: 300px; height: 300px;"" />
              </div>","null",""
"","","","","","html-keyboard-response","65","191491","0.0-45.0","6487A8C9E78E406A94C5CD498C9B43D1","22197a6f-6932-4c73-9838-f48678e6fdd1","23db58b9-63b0-4bce-8714-07ce439e665e","","null","<div style=""display: flex; justify-content: center; align-items: center;"">
                <img src=""images/causal/causal_series_13/causal_series_13_a.jpg"" style=""width: 300px; height: 300px;"" />
              </div>","null",""
"","","","","","html-button-response","66","193354","0.0-46.0","6487A8C9E78E406A94C5CD498C9B43D1","22197a6f-6932-4c73-9838-f48678e6fdd1","23db58b9-63b0-4bce-8714-07ce439e665e","","1861","
    <div style=""display: flex; justify-content: center; align-items: center;"">
      <img src=""images/red_deck_2.png"" style=""width: 300px; height: 300px; margin-right: 10px;"" />
      <img src=""images/blue_deck_1.png"" style=""width: 300px; height: 300px;"" />
    </div>","0","0"
"","","","","","html-keyboard-response","67","196356","0.0-47.0-0.0-0.0","6487A8C9E78E406A94C5CD498C9B43D1","22197a6f-6932-4c73-9838-f48678e6fdd1","23db58b9-63b0-4bce-8714-07ce439e665e","","null","<div style=""display: flex; justify-content: center; align-items: center;"">
                <img src=""images/causal/causal_series_13/causal_series_13_b.jpg"" style=""width: 300px; height: 300px;"" />
              </div>","null",""
"","","","","","html-keyboard-response","68","199372","0.0-47.0-0.0-1.0","6487A8C9E78E406A94C5CD498C9B43D1","22197a6f-6932-4c73-9838-f48678e6fdd1","23db58b9-63b0-4bce-8714-07ce439e665e","","null","<div style=""display: flex; justify-content: center; align-items: center;"">
                <img src=""images/causal/causal_series_13/causal_series_13_c.jpg"" style=""width: 300px; height: 300px;"" />
              </div>","null",""
"","","","","","html-keyboard-response","69","202377","0.0-47.0-0.0-2.0","6487A8C9E78E406A94C5CD498C9B43D1","22197a6f-6932-4c73-9838-f48678e6fdd1","23db58b9-63b0-4bce-8714-07ce439e665e","","null","<div style=""display: flex; justify-content: center; align-items: center;"">
                <img src=""images/causal/causal_series_13/causal_series_13_d.jpg"" style=""width: 300px; height: 300px;"" />
              </div>","null",""
"","","","","","html-keyboard-response","70","205391","0.0-48.0","6487A8C9E78E406A94C5CD498C9B43D1","22197a6f-6932-4c73-9838-f48678e6fdd1","23db58b9-63b0-4bce-8714-07ce439e665e","","null","<div style=""display: flex; justify-content: center; align-items: center;"">
                <img src=""images/other/blank.jpg"" style=""width: 300px; height: 300px;"" />
              </div>","null",""
"","","","","","html-keyboard-response","71","208400","0.0-49.0","6487A8C9E78E406A94C5CD498C9B43D1","22197a6f-6932-4c73-9838-f48678e6fdd1","23db58b9-63b0-4bce-8714-07ce439e665e","","null","<div style=""display: flex; justify-content: center; align-items: center;"">
                <img src=""images/causal/causal_series_4/causal_series_4_a.jpg"" style=""width: 300px; height: 300px;"" />
              </div>","null",""
"","","","","","html-button-response","72","212561","0.0-50.0","6487A8C9E78E406A94C5CD498C9B43D1","22197a6f-6932-4c73-9838-f48678e6fdd1","23db58b9-63b0-4bce-8714-07ce439e665e","","4160","
    <div style=""display: flex; justify-content: center; align-items: center;"">
      <img src=""images/red_deck_2.png"" style=""width: 300px; height: 300px; margin-right: 10px;"" />
      <img src=""images/blue_deck_1.png"" style=""width: 300px; height: 300px;"" />
    </div>","0","0"
"","","","","","html-keyboard-response","73","215562","0.0-51.0-0.0-0.0","6487A8C9E78E406A94C5CD498C9B43D1","22197a6f-6932-4c73-9838-f48678e6fdd1","23db58b9-63b0-4bce-8714-07ce439e665e","","null","<div style=""display: flex; justify-content: center; align-items: center;"">
                <img src=""images/causal/causal_series_4/causal_series_4_b.jpg"" style=""width: 300px; height: 300px;"" />
              </div>","null",""
"","","","","","html-keyboard-response","74","218563","0.0-51.0-0.0-1.0","6487A8C9E78E406A94C5CD498C9B43D1","22197a6f-6932-4c73-9838-f48678e6fdd1","23db58b9-63b0-4bce-8714-07ce439e665e","","null","<div style=""display: flex; justify-content: center; align-items: center;"">
                <img src=""images/causal/causal_series_4/causal_series_4_c.jpg"" style=""width: 300px; height: 300px;"" />
              </div>","null",""
"","","","","","html-keyboard-response","75","221786","0.0-51.0-0.0-2.0","6487A8C9E78E406A94C5CD498C9B43D1","22197a6f-6932-4c73-9838-f48678e6fdd1","23db58b9-63b0-4bce-8714-07ce439e665e","","null","<div style=""display: flex; justify-content: center; align-items: center;"">
                <img src=""images/causal/causal_series_4/causal_series_4_d.jpg"" style=""width: 300px; height: 300px;"" />
              </div>","null",""
"","","","","","html-keyboard-response","76","224802","0.0-52.0","6487A8C9E78E406A94C5CD498C9B43D1","22197a6f-6932-4c73-9838-f48678e6fdd1","23db58b9-63b0-4bce-8714-07ce439e665e","","null","<div style=""display: flex; justify-content: center; align-items: center;"">
                <img src=""images/other/blank.jpg"" style=""width: 300px; height: 300px;"" />
              </div>","null",""
"","","","","","html-keyboard-response","77","227808","0.0-53.0","6487A8C9E78E406A94C5CD498C9B43D1","22197a6f-6932-4c73-9838-f48678e6fdd1","23db58b9-63b0-4bce-8714-07ce439e665e","","null","<div style=""display: flex; justify-content: center; align-items: center;"">
                <img src=""images/causal/causal_series_5/causal_series_5_a.jpg"" style=""width: 300px; height: 300px;"" />
              </div>","null",""
"","","","","","html-button-response","78","229018","0.0-54.0","6487A8C9E78E406A94C5CD498C9B43D1","22197a6f-6932-4c73-9838-f48678e6fdd1","23db58b9-63b0-4bce-8714-07ce439e665e","","1209","
    <div style=""display: flex; justify-content: center; align-items: center;"">
      <img src=""images/red_deck_2.png"" style=""width: 300px; height: 300px; margin-right: 10px;"" />
      <img src=""images/blue_deck_1.png"" style=""width: 300px; height: 300px;"" />
    </div>","1","1"
"","","","","","html-keyboard-response","79","232026","0.0-55.0-1.0-0.0","6487A8C9E78E406A94C5CD498C9B43D1","22197a6f-6932-4c73-9838-f48678e6fdd1","23db58b9-63b0-4bce-8714-07ce439e665e","","null","<div style=""display: flex; justify-content: center; align-items: center;"">
                <img src=""images/semantic/semantic_series_12/semantic_series_12_d.jpg"" style=""width: 300px; height: 300px;"" />
              </div>","null",""
"","","","","","html-keyboard-response","80","235030","0.0-55.0-1.0-1.0","6487A8C9E78E406A94C5CD498C9B43D1","22197a6f-6932-4c73-9838-f48678e6fdd1","23db58b9-63b0-4bce-8714-07ce439e665e","","null","<div style=""display: flex; justify-content: center; align-items: center;"">
                <img src=""images/semantic/semantic_series_13/semantic_series_13_d.jpg"" style=""width: 300px; height: 300px;"" />
              </div>","null",""
"","","","","","html-keyboard-response","81","238044","0.0-55.0-1.0-2.0","6487A8C9E78E406A94C5CD498C9B43D1","22197a6f-6932-4c73-9838-f48678e6fdd1","23db58b9-63b0-4bce-8714-07ce439e665e","","null","<div style=""display: flex; justify-content: center; align-items: center;"">
                <img src=""images/semantic/semantic_series_14/semantic_series_14_d.jpg"" style=""width: 300px; height: 300px;"" />
              </div>","null",""
"","","","","","html-keyboard-response","82","241061","0.0-56.0","6487A8C9E78E406A94C5CD498C9B43D1","22197a6f-6932-4c73-9838-f48678e6fdd1","23db58b9-63b0-4bce-8714-07ce439e665e","","null","<div style=""display: flex; justify-content: center; align-items: center;"">
                <img src=""images/other/blank.jpg"" style=""width: 300px; height: 300px;"" />
              </div>","null",""
"","","","","","html-keyboard-response","83","244070","0.0-57.0","6487A8C9E78E406A94C5CD498C9B43D1","22197a6f-6932-4c73-9838-f48678e6fdd1","23db58b9-63b0-4bce-8714-07ce439e665e","","null","<div style=""display: flex; justify-content: center; align-items: center;"">
                <img src=""images/causal/causal_series_10/causal_series_10_a.jpg"" style=""width: 300px; height: 300px;"" />
              </div>","null",""
"","","","","","html-button-response","84","245633","0.0-58.0","6487A8C9E78E406A94C5CD498C9B43D1","22197a6f-6932-4c73-9838-f48678e6fdd1","23db58b9-63b0-4bce-8714-07ce439e665e","","1561","
    <div style=""display: flex; justify-content: center; align-items: center;"">
      <img src=""images/red_deck_2.png"" style=""width: 300px; height: 300px; margin-right: 10px;"" />
      <img src=""images/blue_deck_1.png"" style=""width: 300px; height: 300px;"" />
    </div>","0","0"
"","","","","","html-keyboard-response","85","248637","0.0-59.0-0.0-0.0","6487A8C9E78E406A94C5CD498C9B43D1","22197a6f-6932-4c73-9838-f48678e6fdd1","23db58b9-63b0-4bce-8714-07ce439e665e","","null","<div style=""display: flex; justify-content: center; align-items: center;"">
                <img src=""images/causal/causal_series_10/causal_series_10_b.jpg"" style=""width: 300px; height: 300px;"" />
              </div>","null",""
"","","","","","html-keyboard-response","86","251653","0.0-59.0-0.0-1.0","6487A8C9E78E406A94C5CD498C9B43D1","22197a6f-6932-4c73-9838-f48678e6fdd1","23db58b9-63b0-4bce-8714-07ce439e665e","","null","<div style=""display: flex; justify-content: center; align-items: center;"">
                <img src=""images/causal/causal_series_10/causal_series_10_c.jpg"" style=""width: 300px; height: 300px;"" />
              </div>","null",""
"","","","","","html-keyboard-response","87","254659","0.0-59.0-0.0-2.0","6487A8C9E78E406A94C5CD498C9B43D1","22197a6f-6932-4c73-9838-f48678e6fdd1","23db58b9-63b0-4bce-8714-07ce439e665e","","null","<div style=""display: flex; justify-content: center; align-items: center;"">
                <img src=""images/causal/causal_series_10/causal_series_10_d.jpg"" style=""width: 300px; height: 300px;"" />
              </div>","null",""
"","","","","","html-keyboard-response","88","257668","0.0-60.0","6487A8C9E78E406A94C5CD498C9B43D1","22197a6f-6932-4c73-9838-f48678e6fdd1","23db58b9-63b0-4bce-8714-07ce439e665e","","null","<div style=""display: flex; justify-content: center; align-items: center;"">
                <img src=""images/other/blank.jpg"" style=""width: 300px; height: 300px;"" />
              </div>","null",""
"","","","","","html-keyboard-response","89","260671","0.0-61.0","6487A8C9E78E406A94C5CD498C9B43D1","22197a6f-6932-4c73-9838-f48678e6fdd1","23db58b9-63b0-4bce-8714-07ce439e665e","","null","<div style=""display: flex; justify-content: center; align-items: center;"">
                <img src=""images/causal/causal_series_6/causal_series_6_a.jpg"" style=""width: 300px; height: 300px;"" />
              </div>","null",""
"","","","","","html-button-response","90","261753","0.0-62.0","6487A8C9E78E406A94C5CD498C9B43D1","22197a6f-6932-4c73-9838-f48678e6fdd1","23db58b9-63b0-4bce-8714-07ce439e665e","","1082","
    <div style=""display: flex; justify-content: center; align-items: center;"">
      <img src=""images/red_deck_2.png"" style=""width: 300px; height: 300px; margin-right: 10px;"" />
      <img src=""images/blue_deck_1.png"" style=""width: 300px; height: 300px;"" />
    </div>","1","1"
"","","","","","html-keyboard-response","91","264766","0.0-63.0-1.0-0.0","6487A8C9E78E406A94C5CD498C9B43D1","22197a6f-6932-4c73-9838-f48678e6fdd1","23db58b9-63b0-4bce-8714-07ce439e665e","","null","<div style=""display: flex; justify-content: center; align-items: center;"">
                <img src=""images/semantic/semantic_series_15/semantic_series_15_d.jpg"" style=""width: 300px; height: 300px;"" />
              </div>","null",""
"","","","","","html-keyboard-response","92","267770","0.0-63.0-1.0-1.0","6487A8C9E78E406A94C5CD498C9B43D1","22197a6f-6932-4c73-9838-f48678e6fdd1","23db58b9-63b0-4bce-8714-07ce439e665e","","null","<div style=""display: flex; justify-content: center; align-items: center;"">
                <img src=""images/semantic/semantic_series_16/semantic_series_16_d.jpg"" style=""width: 300px; height: 300px;"" />
              </div>","null",""
"","","","","","html-keyboard-response","93","270785","0.0-63.0-1.0-2.0","6487A8C9E78E406A94C5CD498C9B43D1","22197a6f-6932-4c73-9838-f48678e6fdd1","23db58b9-63b0-4bce-8714-07ce439e665e","","null","<div style=""display: flex; justify-content: center; align-items: center;"">
                <img src=""images/semantic/semantic_series_17/semantic_series_17_d.jpg"" style=""width: 300px; height: 300px;"" />
              </div>","null",""
"","","","","","html-keyboard-response","94","273795","0.0-64.0","6487A8C9E78E406A94C5CD498C9B43D1","22197a6f-6932-4c73-9838-f48678e6fdd1","23db58b9-63b0-4bce-8714-07ce439e665e","","null","<div style=""display: flex; justify-content: center; align-items: center;"">
                <img src=""images/other/blank.jpg"" style=""width: 300px; height: 300px;"" />
              </div>","null",""
"","","","","","html-keyboard-response","95","276796","0.0-65.0","6487A8C9E78E406A94C5CD498C9B43D1","22197a6f-6932-4c73-9838-f48678e6fdd1","23db58b9-63b0-4bce-8714-07ce439e665e","","null","<div style=""display: flex; justify-content: center; align-items: center;"">
                <img src=""images/causal/causal_series_8/causal_series_8_a.jpg"" style=""width: 300px; height: 300px;"" />
              </div>","null",""
"","","","","","html-button-response","96","277920","0.0-66.0","6487A8C9E78E406A94C5CD498C9B43D1","22197a6f-6932-4c73-9838-f48678e6fdd1","23db58b9-63b0-4bce-8714-07ce439e665e","","1124","
    <div style=""display: flex; justify-content: center; align-items: center;"">
      <img src=""images/red_deck_2.png"" style=""width: 300px; height: 300px; margin-right: 10px;"" />
      <img src=""images/blue_deck_1.png"" style=""width: 300px; height: 300px;"" />
    </div>","0","0"
"","","","","","html-keyboard-response","97","280932","0.0-67.0-0.0-0.0","6487A8C9E78E406A94C5CD498C9B43D1","22197a6f-6932-4c73-9838-f48678e6fdd1","23db58b9-63b0-4bce-8714-07ce439e665e","","null","<div style=""display: flex; justify-content: center; align-items: center;"">
                <img src=""images/causal/causal_series_8/causal_series_8_b.jpg"" style=""width: 300px; height: 300px;"" />
              </div>","null",""
"","","","","","html-keyboard-response","98","283939","0.0-67.0-0.0-1.0","6487A8C9E78E406A94C5CD498C9B43D1","22197a6f-6932-4c73-9838-f48678e6fdd1","23db58b9-63b0-4bce-8714-07ce439e665e","","null","<div style=""display: flex; justify-content: center; align-items: center;"">
                <img src=""images/causal/causal_series_8/causal_series_8_c.jpg"" style=""width: 300px; height: 300px;"" />
              </div>","null",""
"","","","","","html-keyboard-response","99","286952","0.0-67.0-0.0-2.0","6487A8C9E78E406A94C5CD498C9B43D1","22197a6f-6932-4c73-9838-f48678e6fdd1","23db58b9-63b0-4bce-8714-07ce439e665e","","null","<div style=""display: flex; justify-content: center; align-items: center;"">
                <img src=""images/causal/causal_series_8/causal_series_8_d.jpg"" style=""width: 300px; height: 300px;"" />
              </div>","null",""
"","","","","","html-keyboard-response","100","289965","0.0-68.0","6487A8C9E78E406A94C5CD498C9B43D1","22197a6f-6932-4c73-9838-f48678e6fdd1","23db58b9-63b0-4bce-8714-07ce439e665e","","null","<div style=""display: flex; justify-content: center; align-items: center;"">
                <img src=""images/other/blank.jpg"" style=""width: 300px; height: 300px;"" />
              </div>","null",""
"","","","","","html-keyboard-response","101","292970","0.0-69.0","6487A8C9E78E406A94C5CD498C9B43D1","22197a6f-6932-4c73-9838-f48678e6fdd1","23db58b9-63b0-4bce-8714-07ce439e665e","","null","<div style=""display: flex; justify-content: center; align-items: center;"">
                <img src=""images/causal/causal_series_17/causal_series_17_a.jpg"" style=""width: 300px; height: 300px;"" />
              </div>","null",""
"","","","","","html-button-response","102","293705","0.0-70.0","6487A8C9E78E406A94C5CD498C9B43D1","22197a6f-6932-4c73-9838-f48678e6fdd1","23db58b9-63b0-4bce-8714-07ce439e665e","","734","
    <div style=""display: flex; justify-content: center; align-items: center;"">
      <img src=""images/red_deck_2.png"" style=""width: 300px; height: 300px; margin-right: 10px;"" />
      <img src=""images/blue_deck_1.png"" style=""width: 300px; height: 300px;"" />
    </div>","1","1"
"","","","","","html-keyboard-response","103","296718","0.0-71.0-1.0-0.0","6487A8C9E78E406A94C5CD498C9B43D1","22197a6f-6932-4c73-9838-f48678e6fdd1","23db58b9-63b0-4bce-8714-07ce439e665e","","null","<div style=""display: flex; justify-content: center; align-items: center;"">
                <img src=""images/semantic/semantic_series_12/semantic_series_12_d.jpg"" style=""width: 300px; height: 300px;"" />
              </div>","null",""
"","","","","","html-keyboard-response","104","299734","0.0-71.0-1.0-1.0","6487A8C9E78E406A94C5CD498C9B43D1","22197a6f-6932-4c73-9838-f48678e6fdd1","23db58b9-63b0-4bce-8714-07ce439e665e","","null","<div style=""display: flex; justify-content: center; align-items: center;"">
                <img src=""images/semantic/semantic_series_13/semantic_series_13_d.jpg"" style=""width: 300px; height: 300px;"" />
              </div>","null",""
"","","","","","html-keyboard-response","105","302741","0.0-71.0-1.0-2.0","6487A8C9E78E406A94C5CD498C9B43D1","22197a6f-6932-4c73-9838-f48678e6fdd1","23db58b9-63b0-4bce-8714-07ce439e665e","","null","<div style=""display: flex; justify-content: center; align-items: center;"">
                <img src=""images/semantic/semantic_series_14/semantic_series_14_d.jpg"" style=""width: 300px; height: 300px;"" />
              </div>","null",""
"","","","","","html-keyboard-response","106","305753","0.0-72.0","6487A8C9E78E406A94C5CD498C9B43D1","22197a6f-6932-4c73-9838-f48678e6fdd1","23db58b9-63b0-4bce-8714-07ce439e665e","","null","<div style=""display: flex; justify-content: center; align-items: center;"">
                <img src=""images/other/blank.jpg"" style=""width: 300px; height: 300px;"" />
              </div>","null",""
"","","","","","html-keyboard-response","107","308769","0.0-73.0","6487A8C9E78E406A94C5CD498C9B43D1","22197a6f-6932-4c73-9838-f48678e6fdd1","23db58b9-63b0-4bce-8714-07ce439e665e","","null","<div style=""display: flex; justify-content: center; align-items: center;"">
                <img src=""images/causal/causal_series_14/causal_series_14_a.jpg"" style=""width: 300px; height: 300px;"" />
              </div>","null",""
"","","","","","html-button-response","108","309561","0.0-74.0","6487A8C9E78E406A94C5CD498C9B43D1","22197a6f-6932-4c73-9838-f48678e6fdd1","23db58b9-63b0-4bce-8714-07ce439e665e","","792","
    <div style=""display: flex; justify-content: center; align-items: center;"">
      <img src=""images/red_deck_2.png"" style=""width: 300px; height: 300px; margin-right: 10px;"" />
      <img src=""images/blue_deck_1.png"" style=""width: 300px; height: 300px;"" />
    </div>","0","0"
"","","","","","html-keyboard-response","109","312576","0.0-75.0-0.0-0.0","6487A8C9E78E406A94C5CD498C9B43D1","22197a6f-6932-4c73-9838-f48678e6fdd1","23db58b9-63b0-4bce-8714-07ce439e665e","","null","<div style=""display: flex; justify-content: center; align-items: center;"">
                <img src=""images/causal/causal_series_14/causal_series_14_b.jpg"" style=""width: 300px; height: 300px;"" />
              </div>","null",""
"","","","","","html-keyboard-response","110","315579","0.0-75.0-0.0-1.0","6487A8C9E78E406A94C5CD498C9B43D1","22197a6f-6932-4c73-9838-f48678e6fdd1","23db58b9-63b0-4bce-8714-07ce439e665e","","null","<div style=""display: flex; justify-content: center; align-items: center;"">
                <img src=""images/causal/causal_series_14/causal_series_14_c.jpg"" style=""width: 300px; height: 300px;"" />
              </div>","null",""
"","","","","","html-keyboard-response","111","318586","0.0-75.0-0.0-2.0","6487A8C9E78E406A94C5CD498C9B43D1","22197a6f-6932-4c73-9838-f48678e6fdd1","23db58b9-63b0-4bce-8714-07ce439e665e","","null","<div style=""display: flex; justify-content: center; align-items: center;"">
                <img src=""images/causal/causal_series_14/causal_series_14_d.jpg"" style=""width: 300px; height: 300px;"" />
              </div>","null",""
"","","","","","html-keyboard-response","112","321590","0.0-76.0","6487A8C9E78E406A94C5CD498C9B43D1","22197a6f-6932-4c73-9838-f48678e6fdd1","23db58b9-63b0-4bce-8714-07ce439e665e","","null","<div style=""display: flex; justify-content: center; align-items: center;"">
                <img src=""images/other/blank.jpg"" style=""width: 300px; height: 300px;"" />
              </div>","null",""
"","","","","","survey-text","113","351577","0.0-77.0","6487A8C9E78E406A94C5CD498C9B43D1","22197a6f-6932-4c73-9838-f48678e6fdd1","23db58b9-63b0-4bce-8714-07ce439e665e","","29980","","{""Q0"":""One continues the \""plot\"" of the images and the other continues with random images that don't continue the story""}",""
"","","","","","survey-text","114","364145","0.0-78.0","6487A8C9E78E406A94C5CD498C9B43D1","22197a6f-6932-4c73-9838-f48678e6fdd1","23db58b9-63b0-4bce-8714-07ce439e665e","","12565","","{""Q0"":""Neither seemed more interesting""}",""
"","","","","","html-button-response","115","374006","0.0-79.0","6487A8C9E78E406A94C5CD498C9B43D1","22197a6f-6932-4c73-9838-f48678e6fdd1","23db58b9-63b0-4bce-8714-07ce439e665e","","9861","Which color deck does the fourth image continue the story from the series?","1",""
"","","","","","html-button-response","116","375703","0.0-80.0","6487A8C9E78E406A94C5CD498C9B43D1","22197a6f-6932-4c73-9838-f48678e6fdd1","23db58b9-63b0-4bce-8714-07ce439e665e","","1697","Which color deck does the fourth image not follow the story from the series?","0",""
"","","","","","survey-text","117","380631","0.0-81.0","6487A8C9E78E406A94C5CD498C9B43D1","22197a6f-6932-4c73-9838-f48678e6fdd1","23db58b9-63b0-4bce-8714-07ce439e665e","","4925","","{""Q0"":""Female"",""Q1"":""24""}",""
"","","","","","instructions","118","404511","0.0-82.0","6487A8C9E78E406A94C5CD498C9B43D1","22197a6f-6932-4c73-9838-f48678e6fdd1","23db58b9-63b0-4bce-8714-07ce439e665e","[{""page_index"":0,""viewing_time"":23879}]","23879","","",""
