"success","timeout","failed_images","failed_audio","failed_video","trial_type","trial_index","time_elapsed","internal_node_id","subject_id","study_id","session_id","view_history","rt","stimulus","response","series","repetition","phase","choice","question_order"
"true","false","[]","[]","[]","preload","0","551","0.0-0.0","D66EA70CA4F64CC0B50F9A805D8F79D5","0199d689-5151-7dc7-b7fb-3a88b6ee2dd1","0199d675-8795-765b-adc2-c813de8cd3d1","","","","","","","","",""
"","","","","","instructions","1","9468","0.0-1.0","D66EA70CA4F64CC0B50F9A805D8F79D5","0199d689-5151-7dc7-b7fb-3a88b6ee2dd1","0199d675-8795-765b-adc2-c813de8cd3d1","[{""page_index"":0,""viewing_time"":8916}]","8916","","","","","","",""
"","","","","","instructions","2","12745","0.0-2.0","D66EA70CA4F64CC0B50F9A805D8F79D5","0199d689-5151-7dc7-b7fb-3a88b6ee2dd1","0199d675-8795-765b-adc2-c813de8cd3d1","[{""page_index"":0,""viewing_time"":3276}]","3276","","","","","","",""
"true","","","","","fullscreen","3","32518","0.0-3.0","D66EA70CA4F64CC0B50F9A805D8F79D5","0199d689-5151-7dc7-b7fb-3a88b6ee2dd1","0199d675-8795-765b-adc2-c813de8cd3d1","","18768","","","","","","",""
"","","","","","instructions","4","50189","0.0-4.0","D66EA70CA4F64CC0B50F9A805D8F79D5","0199d689-5151-7dc7-b7fb-3a88b6ee2dd1","0199d675-8795-765b-adc2-c813de8cd3d1","[{""page_index"":0,""viewing_time"":17670}]","17670","","","","","","",""
"","","","","","html-keyboard-response","5","56199","0.0-5.0","D66EA70CA4F64CC0B50F9A805D8F79D5","0199d689-5151-7dc7-b7fb-3a88b6ee2dd1","0199d675-8795-765b-adc2-c813de8cd3d1","","null","<div style=""display: flex; justify-content: center; align-items: center;"">
                     <img src=""images/causal/causal_series_4/causal_series_4_a.png"" style=""width: 300px; height: 300px;"" />
                   </div>","null","4","1","A","",""
"","","","","","html-button-response","6","58362","0.0-6.0","D66EA70CA4F64CC0B50F9A805D8F79D5","0199d689-5151-7dc7-b7fb-3a88b6ee2dd1","0199d675-8795-765b-adc2-c813de8cd3d1","","2160","
        <div style=""display: flex; justify-content: center; align-items: center;"">
          <img src=""images/red_deck_2.png"" style=""width: 300px; height: 300px; margin-right: 10px;"" />
          <img src=""images/blue_deck_1.png"" style=""width: 300px; height: 300px;"" />
        </div>","0","4","1","choice","0",""
"","","","","","html-keyboard-response","7","64370","0.0-7.0-0.0-0.0","D66EA70CA4F64CC0B50F9A805D8F79D5","0199d689-5151-7dc7-b7fb-3a88b6ee2dd1","0199d675-8795-765b-adc2-c813de8cd3d1","","null","<div style=""display: flex; justify-content: center; align-items: center;"">
                     <img src=""images/causal/causal_series_4/causal_series_4_b.png"" style=""width: 300px; height: 300px;"" />
                   </div>","null","4","1","B","",""
"","","","","","html-keyboard-response","8","70382","0.0-7.0-0.0-1.0","D66EA70CA4F64CC0B50F9A805D8F79D5","0199d689-5151-7dc7-b7fb-3a88b6ee2dd1","0199d675-8795-765b-adc2-c813de8cd3d1","","null","<div style=""display: flex; justify-content: center; align-items: center;"">
                     <img src=""images/causal/causal_series_4/causal_series_4_c.png"" style=""width: 300px; height: 300px;"" />
                   </div>","null","4","1","C","",""
"","","","","","html-keyboard-response","9","76397","0.0-7.0-0.0-2.0","D66EA70CA4F64CC0B50F9A805D8F79D5","0199d689-5151-7dc7-b7fb-3a88b6ee2dd1","0199d675-8795-765b-adc2-c813de8cd3d1","","null","<div style=""display: flex; justify-content: center; align-items: center;"">
                     <img src=""images/causal/causal_series_4/causal_series_4_d.png"" style=""width: 300px; height: 300px;"" />
                   </div>","null","4","1","D","",""
"","","","","","survey-likert","10","82406","0.0-8.0","D66EA70CA4F64CC0B50F9A805D8F79D5","0199d689-5151-7dc7-b7fb-3a88b6ee2dd1","0199d675-8795-765b-adc2-c813de8cd3d1","","6006","","{""Q0"":3}","4","1","surprise_rating","","[0]"
"","","","","","survey-likert","11","84950","0.0-9.0","D66EA70CA4F64CC0B50F9A805D8F79D5","0199d689-5151-7dc7-b7fb-3a88b6ee2dd1","0199d675-8795-765b-adc2-c813de8cd3d1","","2544","","{""Q0"":4}","4","1","enjoyment_rating","","[0]"
"","","","","","html-keyboard-response","12","90952","0.0-10.0","D66EA70CA4F64CC0B50F9A805D8F79D5","0199d689-5151-7dc7-b7fb-3a88b6ee2dd1","0199d675-8795-765b-adc2-c813de8cd3d1","","null","<div style=""display: flex; justify-content: center; align-items: center;"">
                     <img src=""images/other/blank.png"" style=""width: 300px; height: 300px;"" />
                   </div>","null","0","0","blank","",""
"","","","","","html-keyboard-response","13","96960","0.0-11.0","D66EA70CA4F64CC0B50F9A805D8F79D5","0199d689-5151-7dc7-b7fb-3a88b6ee2dd1","0199d675-8795-765b-adc2-c813de8cd3d1","","null","<div style=""display: flex; justify-content: center; align-items: center;"">
                     <img src=""images/causal/causal_series_5/causal_series_5_a.png"" style=""width: 300px; height: 300px;"" />
                   </div>","null","5","1","A","",""
"","","","","","html-button-response","14","98011","0.0-12.0","D66EA70CA4F64CC0B50F9A805D8F79D5","0199d689-5151-7dc7-b7fb-3a88b6ee2dd1","0199d675-8795-765b-adc2-c813de8cd3d1","","1050","
        <div style=""display: flex; justify-content: center; align-items: center;"">
          <img src=""images/red_deck_2.png"" style=""width: 300px; height: 300px; margin-right: 10px;"" />
          <img src=""images/blue_deck_1.png"" style=""width: 300px; height: 300px;"" />
        </div>","1","5","1","choice","1",""
"","","","","","html-keyboard-response","15","104015","0.0-13.0-1.0-0.0","D66EA70CA4F64CC0B50F9A805D8F79D5","0199d689-5151-7dc7-b7fb-3a88b6ee2dd1","0199d675-8795-765b-adc2-c813de8cd3d1","","null","<div style=""display: flex; justify-content: center; align-items: center;"">
                     <img src=""images/semantic/semantic_series_5/semantic_series_5_b.png"" style=""width: 300px; height: 300px;"" />
                   </div>","null","5","1","B","",""
"","","","","","html-keyboard-response","16","110029","0.0-13.0-1.0-1.0","D66EA70CA4F64CC0B50F9A805D8F79D5","0199d689-5151-7dc7-b7fb-3a88b6ee2dd1","0199d675-8795-765b-adc2-c813de8cd3d1","","null","<div style=""display: flex; justify-content: center; align-items: center;"">
                     <img src=""images/semantic/semantic_series_5/semantic_series_5_c.png"" style=""width: 300px; height: 300px;"" />
                   </div>","null","5","1","C","",""
"","","","","","html-keyboard-response","17","116042","0.0-13.0-1.0-2.0","D66EA70CA4F64CC0B50F9A805D8F79D5","0199d689-5151-7dc7-b7fb-3a88b6ee2dd1","0199d675-8795-765b-adc2-c813de8cd3d1","","null","<div style=""display: flex; justify-content: center; align-items: center;"">
                     <img src=""images/semantic/semantic_series_5/semantic_series_5_d.png"" style=""width: 300px; height: 300px;"" />
                   </div>","null","5","1","D","",""
"","","","","","survey-likert","18","119573","0.0-14.0","D66EA70CA4F64CC0B50F9A805D8F79D5","0199d689-5151-7dc7-b7fb-3a88b6ee2dd1","0199d675-8795-765b-adc2-c813de8cd3d1","","3529","","{""Q0"":4}","5","1","surprise_rating","","[0]"
"","","","","","survey-likert","19","121516","0.0-15.0","D66EA70CA4F64CC0B50F9A805D8F79D5","0199d689-5151-7dc7-b7fb-3a88b6ee2dd1","0199d675-8795-765b-adc2-c813de8cd3d1","","1942","","{""Q0"":4}","5","1","enjoyment_rating","","[0]"
"","","","","","html-keyboard-response","20","127527","0.0-16.0","D66EA70CA4F64CC0B50F9A805D8F79D5","0199d689-5151-7dc7-b7fb-3a88b6ee2dd1","0199d675-8795-765b-adc2-c813de8cd3d1","","null","<div style=""display: flex; justify-content: center; align-items: center;"">
                     <img src=""images/other/blank.png"" style=""width: 300px; height: 300px;"" />
                   </div>","null","0","0","blank","",""
"","","","","","html-keyboard-response","21","133540","0.0-17.0","D66EA70CA4F64CC0B50F9A805D8F79D5","0199d689-5151-7dc7-b7fb-3a88b6ee2dd1","0199d675-8795-765b-adc2-c813de8cd3d1","","null","<div style=""display: flex; justify-content: center; align-items: center;"">
                     <img src=""images/causal/causal_series_10/causal_series_10_a.png"" style=""width: 300px; height: 300px;"" />
                   </div>","null","10","1","A","",""
"","","","","","html-button-response","22","134366","0.0-18.0","D66EA70CA4F64CC0B50F9A805D8F79D5","0199d689-5151-7dc7-b7fb-3a88b6ee2dd1","0199d675-8795-765b-adc2-c813de8cd3d1","","825","
        <div style=""display: flex; justify-content: center; align-items: center;"">
          <img src=""images/red_deck_2.png"" style=""width: 300px; height: 300px; margin-right: 10px;"" />
          <img src=""images/blue_deck_1.png"" style=""width: 300px; height: 300px;"" />
        </div>","1","10","1","choice","1",""
"","","","","","html-keyboard-response","23","140379","0.0-19.0-1.0-0.0","D66EA70CA4F64CC0B50F9A805D8F79D5","0199d689-5151-7dc7-b7fb-3a88b6ee2dd1","0199d675-8795-765b-adc2-c813de8cd3d1","","null","<div style=""display: flex; justify-content: center; align-items: center;"">
                     <img src=""images/semantic/semantic_series_10/semantic_series_10_b.png"" style=""width: 300px; height: 300px;"" />
                   </div>","null","10","1","B","",""
"","","","","","html-keyboard-response","24","146382","0.0-19.0-1.0-1.0","D66EA70CA4F64CC0B50F9A805D8F79D5","0199d689-5151-7dc7-b7fb-3a88b6ee2dd1","0199d675-8795-765b-adc2-c813de8cd3d1","","null","<div style=""display: flex; justify-content: center; align-items: center;"">
                     <img src=""images/semantic/semantic_series_10/semantic_series_10_c.png"" style=""width: 300px; height: 300px;"" />
                   </div>","null","10","1","C","",""
"","","","","","html-keyboard-response","25","152397","0.0-19.0-1.0-2.0","D66EA70CA4F64CC0B50F9A805D8F79D5","0199d689-5151-7dc7-b7fb-3a88b6ee2dd1","0199d675-8795-765b-adc2-c813de8cd3d1","","null","<div style=""display: flex; justify-content: center; align-items: center;"">
                     <img src=""images/semantic/semantic_series_10/semantic_series_10_d.png"" style=""width: 300px; height: 300px;"" />
                   </div>","null","10","1","D","",""
"","","","","","survey-likert","26","155924","0.0-20.0","D66EA70CA4F64CC0B50F9A805D8F79D5","0199d689-5151-7dc7-b7fb-3a88b6ee2dd1","0199d675-8795-765b-adc2-c813de8cd3d1","","3527","","{""Q0"":2}","10","1","surprise_rating","","[0]"
"","","","","","survey-likert","27","158664","0.0-21.0","D66EA70CA4F64CC0B50F9A805D8F79D5","0199d689-5151-7dc7-b7fb-3a88b6ee2dd1","0199d675-8795-765b-adc2-c813de8cd3d1","","2739","","{""Q0"":2}","10","1","enjoyment_rating","","[0]"
"","","","","","html-keyboard-response","28","164668","0.0-22.0","D66EA70CA4F64CC0B50F9A805D8F79D5","0199d689-5151-7dc7-b7fb-3a88b6ee2dd1","0199d675-8795-765b-adc2-c813de8cd3d1","","null","<div style=""display: flex; justify-content: center; align-items: center;"">
                     <img src=""images/other/blank.png"" style=""width: 300px; height: 300px;"" />
                   </div>","null","0","0","blank","",""
"","","","","","html-keyboard-response","29","170673","0.0-23.0","D66EA70CA4F64CC0B50F9A805D8F79D5","0199d689-5151-7dc7-b7fb-3a88b6ee2dd1","0199d675-8795-765b-adc2-c813de8cd3d1","","null","<div style=""display: flex; justify-content: center; align-items: center;"">
                     <img src=""images/causal/causal_series_5/causal_series_5_a.png"" style=""width: 300px; height: 300px;"" />
                   </div>","null","5","2","A","",""
"","","","","","html-button-response","30","171429","0.0-24.0","D66EA70CA4F64CC0B50F9A805D8F79D5","0199d689-5151-7dc7-b7fb-3a88b6ee2dd1","0199d675-8795-765b-adc2-c813de8cd3d1","","754","
        <div style=""display: flex; justify-content: center; align-items: center;"">
          <img src=""images/red_deck_2.png"" style=""width: 300px; height: 300px; margin-right: 10px;"" />
          <img src=""images/blue_deck_1.png"" style=""width: 300px; height: 300px;"" />
        </div>","1","5","2","choice","1",""
"","","","","","html-keyboard-response","31","177442","0.0-25.0-1.0-0.0","D66EA70CA4F64CC0B50F9A805D8F79D5","0199d689-5151-7dc7-b7fb-3a88b6ee2dd1","0199d675-8795-765b-adc2-c813de8cd3d1","","null","<div style=""display: flex; justify-content: center; align-items: center;"">
                     <img src=""images/semantic/semantic_series_5/semantic_series_5_b.png"" style=""width: 300px; height: 300px;"" />
                   </div>","null","5","2","B","",""
"","","","","","html-keyboard-response","32","183446","0.0-25.0-1.0-1.0","D66EA70CA4F64CC0B50F9A805D8F79D5","0199d689-5151-7dc7-b7fb-3a88b6ee2dd1","0199d675-8795-765b-adc2-c813de8cd3d1","","null","<div style=""display: flex; justify-content: center; align-items: center;"">
                     <img src=""images/semantic/semantic_series_5/semantic_series_5_c.png"" style=""width: 300px; height: 300px;"" />
                   </div>","null","5","2","C","",""
"","","","","","html-keyboard-response","33","189463","0.0-25.0-1.0-2.0","D66EA70CA4F64CC0B50F9A805D8F79D5","0199d689-5151-7dc7-b7fb-3a88b6ee2dd1","0199d675-8795-765b-adc2-c813de8cd3d1","","null","<div style=""display: flex; justify-content: center; align-items: center;"">
                     <img src=""images/semantic/semantic_series_5/semantic_series_5_d.png"" style=""width: 300px; height: 300px;"" />
                   </div>","null","5","2","D","",""
"","","","","","survey-likert","34","193066","0.0-26.0","D66EA70CA4F64CC0B50F9A805D8F79D5","0199d689-5151-7dc7-b7fb-3a88b6ee2dd1","0199d675-8795-765b-adc2-c813de8cd3d1","","3602","","{""Q0"":2}","5","2","surprise_rating","","[0]"
"","","","","","survey-likert","35","194271","0.0-27.0","D66EA70CA4F64CC0B50F9A805D8F79D5","0199d689-5151-7dc7-b7fb-3a88b6ee2dd1","0199d675-8795-765b-adc2-c813de8cd3d1","","1204","","{""Q0"":2}","5","2","enjoyment_rating","","[0]"
"","","","","","html-keyboard-response","36","200274","0.0-28.0","D66EA70CA4F64CC0B50F9A805D8F79D5","0199d689-5151-7dc7-b7fb-3a88b6ee2dd1","0199d675-8795-765b-adc2-c813de8cd3d1","","null","<div style=""display: flex; justify-content: center; align-items: center;"">
                     <img src=""images/other/blank.png"" style=""width: 300px; height: 300px;"" />
                   </div>","null","0","0","blank","",""
"","","","","","html-keyboard-response","37","206284","0.0-29.0","D66EA70CA4F64CC0B50F9A805D8F79D5","0199d689-5151-7dc7-b7fb-3a88b6ee2dd1","0199d675-8795-765b-adc2-c813de8cd3d1","","null","<div style=""display: flex; justify-content: center; align-items: center;"">
                     <img src=""images/causal/causal_series_2/causal_series_2_a.png"" style=""width: 300px; height: 300px;"" />
                   </div>","null","2","2","A","",""
"","","","","","html-button-response","38","207301","0.0-30.0","D66EA70CA4F64CC0B50F9A805D8F79D5","0199d689-5151-7dc7-b7fb-3a88b6ee2dd1","0199d675-8795-765b-adc2-c813de8cd3d1","","1017","
        <div style=""display: flex; justify-content: center; align-items: center;"">
          <img src=""images/red_deck_2.png"" style=""width: 300px; height: 300px; margin-right: 10px;"" />
          <img src=""images/blue_deck_1.png"" style=""width: 300px; height: 300px;"" />
        </div>","1","2","2","choice","1",""
"","","","","","html-keyboard-response","39","213316","0.0-31.0-1.0-0.0","D66EA70CA4F64CC0B50F9A805D8F79D5","0199d689-5151-7dc7-b7fb-3a88b6ee2dd1","0199d675-8795-765b-adc2-c813de8cd3d1","","null","<div style=""display: flex; justify-content: center; align-items: center;"">
                     <img src=""images/semantic/semantic_series_2/semantic_series_2_b.png"" style=""width: 300px; height: 300px;"" />
                   </div>","null","2","2","B","",""
"","","","","","html-keyboard-response","40","219321","0.0-31.0-1.0-1.0","D66EA70CA4F64CC0B50F9A805D8F79D5","0199d689-5151-7dc7-b7fb-3a88b6ee2dd1","0199d675-8795-765b-adc2-c813de8cd3d1","","null","<div style=""display: flex; justify-content: center; align-items: center;"">
                     <img src=""images/semantic/semantic_series_2/semantic_series_2_c.png"" style=""width: 300px; height: 300px;"" />
                   </div>","null","2","2","C","",""
"","","","","","html-keyboard-response","41","225323","0.0-31.0-1.0-2.0","D66EA70CA4F64CC0B50F9A805D8F79D5","0199d689-5151-7dc7-b7fb-3a88b6ee2dd1","0199d675-8795-765b-adc2-c813de8cd3d1","","null","<div style=""display: flex; justify-content: center; align-items: center;"">
                     <img src=""images/semantic/semantic_series_2/semantic_series_2_d.png"" style=""width: 300px; height: 300px;"" />
                   </div>","null","2","2","D","",""
"","","","","","survey-likert","42","228936","0.0-32.0","D66EA70CA4F64CC0B50F9A805D8F79D5","0199d689-5151-7dc7-b7fb-3a88b6ee2dd1","0199d675-8795-765b-adc2-c813de8cd3d1","","3613","","{""Q0"":2}","2","2","surprise_rating","","[0]"
"","","","","","survey-likert","43","230313","0.0-33.0","D66EA70CA4F64CC0B50F9A805D8F79D5","0199d689-5151-7dc7-b7fb-3a88b6ee2dd1","0199d675-8795-765b-adc2-c813de8cd3d1","","1376","","{""Q0"":3}","2","2","enjoyment_rating","","[0]"
"","","","","","html-keyboard-response","44","236317","0.0-34.0","D66EA70CA4F64CC0B50F9A805D8F79D5","0199d689-5151-7dc7-b7fb-3a88b6ee2dd1","0199d675-8795-765b-adc2-c813de8cd3d1","","null","<div style=""display: flex; justify-content: center; align-items: center;"">
                     <img src=""images/other/blank.png"" style=""width: 300px; height: 300px;"" />
                   </div>","null","0","0","blank","",""
"","","","","","html-keyboard-response","45","242325","0.0-35.0","D66EA70CA4F64CC0B50F9A805D8F79D5","0199d689-5151-7dc7-b7fb-3a88b6ee2dd1","0199d675-8795-765b-adc2-c813de8cd3d1","","null","<div style=""display: flex; justify-content: center; align-items: center;"">
                     <img src=""images/causal/causal_series_8/causal_series_8_a.png"" style=""width: 300px; height: 300px;"" />
                   </div>","null","8","2","A","",""
"","","","","","html-button-response","46","243018","0.0-36.0","D66EA70CA4F64CC0B50F9A805D8F79D5","0199d689-5151-7dc7-b7fb-3a88b6ee2dd1","0199d675-8795-765b-adc2-c813de8cd3d1","","692","
        <div style=""display: flex; justify-content: center; align-items: center;"">
          <img src=""images/red_deck_2.png"" style=""width: 300px; height: 300px; margin-right: 10px;"" />
          <img src=""images/blue_deck_1.png"" style=""width: 300px; height: 300px;"" />
        </div>","1","8","2","choice","1",""
"","","","","","html-keyboard-response","47","249033","0.0-37.0-1.0-0.0","D66EA70CA4F64CC0B50F9A805D8F79D5","0199d689-5151-7dc7-b7fb-3a88b6ee2dd1","0199d675-8795-765b-adc2-c813de8cd3d1","","null","<div style=""display: flex; justify-content: center; align-items: center;"">
                     <img src=""images/semantic/semantic_series_8/semantic_series_8_b.png"" style=""width: 300px; height: 300px;"" />
                   </div>","null","8","2","B","",""
"","","","","","html-keyboard-response","48","255038","0.0-37.0-1.0-1.0","D66EA70CA4F64CC0B50F9A805D8F79D5","0199d689-5151-7dc7-b7fb-3a88b6ee2dd1","0199d675-8795-765b-adc2-c813de8cd3d1","","null","<div style=""display: flex; justify-content: center; align-items: center;"">
                     <img src=""images/semantic/semantic_series_8/semantic_series_8_c.png"" style=""width: 300px; height: 300px;"" />
                   </div>","null","8","2","C","",""
"","","","","","html-keyboard-response","49","261044","0.0-37.0-1.0-2.0","D66EA70CA4F64CC0B50F9A805D8F79D5","0199d689-5151-7dc7-b7fb-3a88b6ee2dd1","0199d675-8795-765b-adc2-c813de8cd3d1","","null","<div style=""display: flex; justify-content: center; align-items: center;"">
                     <img src=""images/semantic/semantic_series_8/semantic_series_8_d.png"" style=""width: 300px; height: 300px;"" />
                   </div>","null","8","2","D","",""
"","","","","","survey-likert","50","262711","0.0-38.0","D66EA70CA4F64CC0B50F9A805D8F79D5","0199d689-5151-7dc7-b7fb-3a88b6ee2dd1","0199d675-8795-765b-adc2-c813de8cd3d1","","1666","","{""Q0"":3}","8","2","surprise_rating","","[0]"
"","","","","","survey-likert","51","264245","0.0-39.0","D66EA70CA4F64CC0B50F9A805D8F79D5","0199d689-5151-7dc7-b7fb-3a88b6ee2dd1","0199d675-8795-765b-adc2-c813de8cd3d1","","1533","","{""Q0"":3}","8","2","enjoyment_rating","","[0]"
"","","","","","html-keyboard-response","52","270261","0.0-40.0","D66EA70CA4F64CC0B50F9A805D8F79D5","0199d689-5151-7dc7-b7fb-3a88b6ee2dd1","0199d675-8795-765b-adc2-c813de8cd3d1","","null","<div style=""display: flex; justify-content: center; align-items: center;"">
                     <img src=""images/other/blank.png"" style=""width: 300px; height: 300px;"" />
                   </div>","null","0","0","blank","",""
"","","","","","html-keyboard-response","53","276278","0.0-41.0","D66EA70CA4F64CC0B50F9A805D8F79D5","0199d689-5151-7dc7-b7fb-3a88b6ee2dd1","0199d675-8795-765b-adc2-c813de8cd3d1","","null","<div style=""display: flex; justify-content: center; align-items: center;"">
                     <img src=""images/causal/causal_series_1/causal_series_1_a.png"" style=""width: 300px; height: 300px;"" />
                   </div>","null","1","1","A","",""
"","","","","","html-button-response","54","277043","0.0-42.0","D66EA70CA4F64CC0B50F9A805D8F79D5","0199d689-5151-7dc7-b7fb-3a88b6ee2dd1","0199d675-8795-765b-adc2-c813de8cd3d1","","764","
        <div style=""display: flex; justify-content: center; align-items: center;"">
          <img src=""images/red_deck_2.png"" style=""width: 300px; height: 300px; margin-right: 10px;"" />
          <img src=""images/blue_deck_1.png"" style=""width: 300px; height: 300px;"" />
        </div>","1","1","1","choice","1",""
"","","","","","html-keyboard-response","55","283056","0.0-43.0-1.0-0.0","D66EA70CA4F64CC0B50F9A805D8F79D5","0199d689-5151-7dc7-b7fb-3a88b6ee2dd1","0199d675-8795-765b-adc2-c813de8cd3d1","","null","<div style=""display: flex; justify-content: center; align-items: center;"">
                     <img src=""images/semantic/semantic_series_1/semantic_series_1_b.png"" style=""width: 300px; height: 300px;"" />
                   </div>","null","1","1","B","",""
"","","","","","html-keyboard-response","56","289070","0.0-43.0-1.0-1.0","D66EA70CA4F64CC0B50F9A805D8F79D5","0199d689-5151-7dc7-b7fb-3a88b6ee2dd1","0199d675-8795-765b-adc2-c813de8cd3d1","","null","<div style=""display: flex; justify-content: center; align-items: center;"">
                     <img src=""images/semantic/semantic_series_1/semantic_series_1_c.png"" style=""width: 300px; height: 300px;"" />
                   </div>","null","1","1","C","",""
"","","","","","html-keyboard-response","57","295080","0.0-43.0-1.0-2.0","D66EA70CA4F64CC0B50F9A805D8F79D5","0199d689-5151-7dc7-b7fb-3a88b6ee2dd1","0199d675-8795-765b-adc2-c813de8cd3d1","","null","<div style=""display: flex; justify-content: center; align-items: center;"">
                     <img src=""images/semantic/semantic_series_1/semantic_series_1_d.png"" style=""width: 300px; height: 300px;"" />
                   </div>","null","1","1","D","",""
"","","","","","survey-likert","58","298367","0.0-44.0","D66EA70CA4F64CC0B50F9A805D8F79D5","0199d689-5151-7dc7-b7fb-3a88b6ee2dd1","0199d675-8795-765b-adc2-c813de8cd3d1","","3286","","{""Q0"":3}","1","1","surprise_rating","","[0]"
"","","","","","survey-likert","59","404964","0.0-45.0","D66EA70CA4F64CC0B50F9A805D8F79D5","0199d689-5151-7dc7-b7fb-3a88b6ee2dd1","0199d675-8795-765b-adc2-c813de8cd3d1","","106596","","{""Q0"":3}","1","1","enjoyment_rating","","[0]"
"","","","","","html-keyboard-response","60","410970","0.0-46.0","D66EA70CA4F64CC0B50F9A805D8F79D5","0199d689-5151-7dc7-b7fb-3a88b6ee2dd1","0199d675-8795-765b-adc2-c813de8cd3d1","","null","<div style=""display: flex; justify-content: center; align-items: center;"">
                     <img src=""images/other/blank.png"" style=""width: 300px; height: 300px;"" />
                   </div>","null","0","0","blank","",""
"","","","","","html-keyboard-response","61","416978","0.0-47.0","D66EA70CA4F64CC0B50F9A805D8F79D5","0199d689-5151-7dc7-b7fb-3a88b6ee2dd1","0199d675-8795-765b-adc2-c813de8cd3d1","","null","<div style=""display: flex; justify-content: center; align-items: center;"">
                     <img src=""images/causal/causal_series_9/causal_series_9_a.png"" style=""width: 300px; height: 300px;"" />
                   </div>","null","9","2","A","",""
"","","","","","html-button-response","62","417909","0.0-48.0","D66EA70CA4F64CC0B50F9A805D8F79D5","0199d689-5151-7dc7-b7fb-3a88b6ee2dd1","0199d675-8795-765b-adc2-c813de8cd3d1","","930","
        <div style=""display: flex; justify-content: center; align-items: center;"">
          <img src=""images/red_deck_2.png"" style=""width: 300px; height: 300px; margin-right: 10px;"" />
          <img src=""images/blue_deck_1.png"" style=""width: 300px; height: 300px;"" />
        </div>","0","9","2","choice","0",""
"","","","","","html-keyboard-response","63","423913","0.0-49.0-0.0-0.0","D66EA70CA4F64CC0B50F9A805D8F79D5","0199d689-5151-7dc7-b7fb-3a88b6ee2dd1","0199d675-8795-765b-adc2-c813de8cd3d1","","null","<div style=""display: flex; justify-content: center; align-items: center;"">
                     <img src=""images/causal/causal_series_9/causal_series_9_b.png"" style=""width: 300px; height: 300px;"" />
                   </div>","null","9","2","B","",""
"","","","","","html-keyboard-response","64","429915","0.0-49.0-0.0-1.0","D66EA70CA4F64CC0B50F9A805D8F79D5","0199d689-5151-7dc7-b7fb-3a88b6ee2dd1","0199d675-8795-765b-adc2-c813de8cd3d1","","null","<div style=""display: flex; justify-content: center; align-items: center;"">
                     <img src=""images/causal/causal_series_9/causal_series_9_c.png"" style=""width: 300px; height: 300px;"" />
                   </div>","null","9","2","C","",""
"","","","","","html-keyboard-response","65","435931","0.0-49.0-0.0-2.0","D66EA70CA4F64CC0B50F9A805D8F79D5","0199d689-5151-7dc7-b7fb-3a88b6ee2dd1","0199d675-8795-765b-adc2-c813de8cd3d1","","null","<div style=""display: flex; justify-content: center; align-items: center;"">
                     <img src=""images/causal/causal_series_9/causal_series_9_d.png"" style=""width: 300px; height: 300px;"" />
                   </div>","null","9","2","D","",""
"","","","","","survey-likert","66","440361","0.0-50.0","D66EA70CA4F64CC0B50F9A805D8F79D5","0199d689-5151-7dc7-b7fb-3a88b6ee2dd1","0199d675-8795-765b-adc2-c813de8cd3d1","","4429","","{""Q0"":4}","9","2","surprise_rating","","[0]"
"","","","","","survey-likert","67","442407","0.0-51.0","D66EA70CA4F64CC0B50F9A805D8F79D5","0199d689-5151-7dc7-b7fb-3a88b6ee2dd1","0199d675-8795-765b-adc2-c813de8cd3d1","","2045","","{""Q0"":2}","9","2","enjoyment_rating","","[0]"
"","","","","","html-keyboard-response","68","448414","0.0-52.0","D66EA70CA4F64CC0B50F9A805D8F79D5","0199d689-5151-7dc7-b7fb-3a88b6ee2dd1","0199d675-8795-765b-adc2-c813de8cd3d1","","null","<div style=""display: flex; justify-content: center; align-items: center;"">
                     <img src=""images/other/blank.png"" style=""width: 300px; height: 300px;"" />
                   </div>","null","0","0","blank","",""
"","","","","","html-keyboard-response","69","454430","0.0-53.0","D66EA70CA4F64CC0B50F9A805D8F79D5","0199d689-5151-7dc7-b7fb-3a88b6ee2dd1","0199d675-8795-765b-adc2-c813de8cd3d1","","null","<div style=""display: flex; justify-content: center; align-items: center;"">
                     <img src=""images/causal/causal_series_1/causal_series_1_a.png"" style=""width: 300px; height: 300px;"" />
                   </div>","null","1","2","A","",""
"","","","","","html-button-response","70","455498","0.0-54.0","D66EA70CA4F64CC0B50F9A805D8F79D5","0199d689-5151-7dc7-b7fb-3a88b6ee2dd1","0199d675-8795-765b-adc2-c813de8cd3d1","","1066","
        <div style=""display: flex; justify-content: center; align-items: center;"">
          <img src=""images/red_deck_2.png"" style=""width: 300px; height: 300px; margin-right: 10px;"" />
          <img src=""images/blue_deck_1.png"" style=""width: 300px; height: 300px;"" />
        </div>","0","1","2","choice","0",""
"","","","","","html-keyboard-response","71","461503","0.0-55.0-0.0-0.0","D66EA70CA4F64CC0B50F9A805D8F79D5","0199d689-5151-7dc7-b7fb-3a88b6ee2dd1","0199d675-8795-765b-adc2-c813de8cd3d1","","null","<div style=""display: flex; justify-content: center; align-items: center;"">
                     <img src=""images/causal/causal_series_1/causal_series_1_b.png"" style=""width: 300px; height: 300px;"" />
                   </div>","null","1","2","B","",""
"","","","","","html-keyboard-response","72","467515","0.0-55.0-0.0-1.0","D66EA70CA4F64CC0B50F9A805D8F79D5","0199d689-5151-7dc7-b7fb-3a88b6ee2dd1","0199d675-8795-765b-adc2-c813de8cd3d1","","null","<div style=""display: flex; justify-content: center; align-items: center;"">
                     <img src=""images/causal/causal_series_1/causal_series_1_c.png"" style=""width: 300px; height: 300px;"" />
                   </div>","null","1","2","C","",""
"","","","","","html-keyboard-response","73","473520","0.0-55.0-0.0-2.0","D66EA70CA4F64CC0B50F9A805D8F79D5","0199d689-5151-7dc7-b7fb-3a88b6ee2dd1","0199d675-8795-765b-adc2-c813de8cd3d1","","null","<div style=""display: flex; justify-content: center; align-items: center;"">
                     <img src=""images/causal/causal_series_1/causal_series_1_d.png"" style=""width: 300px; height: 300px;"" />
                   </div>","null","1","2","D","",""
"","","","","","survey-likert","74","475956","0.0-56.0","D66EA70CA4F64CC0B50F9A805D8F79D5","0199d689-5151-7dc7-b7fb-3a88b6ee2dd1","0199d675-8795-765b-adc2-c813de8cd3d1","","2436","","{""Q0"":4}","1","2","surprise_rating","","[0]"
"","","","","","survey-likert","75","477541","0.0-57.0","D66EA70CA4F64CC0B50F9A805D8F79D5","0199d689-5151-7dc7-b7fb-3a88b6ee2dd1","0199d675-8795-765b-adc2-c813de8cd3d1","","1584","","{""Q0"":4}","1","2","enjoyment_rating","","[0]"
"","","","","","html-keyboard-response","76","483551","0.0-58.0","D66EA70CA4F64CC0B50F9A805D8F79D5","0199d689-5151-7dc7-b7fb-3a88b6ee2dd1","0199d675-8795-765b-adc2-c813de8cd3d1","","null","<div style=""display: flex; justify-content: center; align-items: center;"">
                     <img src=""images/other/blank.png"" style=""width: 300px; height: 300px;"" />
                   </div>","null","0","0","blank","",""
"","","","","","html-keyboard-response","77","489552","0.0-59.0","D66EA70CA4F64CC0B50F9A805D8F79D5","0199d689-5151-7dc7-b7fb-3a88b6ee2dd1","0199d675-8795-765b-adc2-c813de8cd3d1","","null","<div style=""display: flex; justify-content: center; align-items: center;"">
                     <img src=""images/causal/causal_series_10/causal_series_10_a.png"" style=""width: 300px; height: 300px;"" />
                   </div>","null","10","2","A","",""
"","","","","","html-button-response","78","490316","0.0-60.0","D66EA70CA4F64CC0B50F9A805D8F79D5","0199d689-5151-7dc7-b7fb-3a88b6ee2dd1","0199d675-8795-765b-adc2-c813de8cd3d1","","763","
        <div style=""display: flex; justify-content: center; align-items: center;"">
          <img src=""images/red_deck_2.png"" style=""width: 300px; height: 300px; margin-right: 10px;"" />
          <img src=""images/blue_deck_1.png"" style=""width: 300px; height: 300px;"" />
        </div>","0","10","2","choice","0",""
"","","","","","html-keyboard-response","79","496317","0.0-61.0-0.0-0.0","D66EA70CA4F64CC0B50F9A805D8F79D5","0199d689-5151-7dc7-b7fb-3a88b6ee2dd1","0199d675-8795-765b-adc2-c813de8cd3d1","","null","<div style=""display: flex; justify-content: center; align-items: center;"">
                     <img src=""images/causal/causal_series_10/causal_series_10_b.png"" style=""width: 300px; height: 300px;"" />
                   </div>","null","10","2","B","",""
"","","","","","html-keyboard-response","80","502328","0.0-61.0-0.0-1.0","D66EA70CA4F64CC0B50F9A805D8F79D5","0199d689-5151-7dc7-b7fb-3a88b6ee2dd1","0199d675-8795-765b-adc2-c813de8cd3d1","","null","<div style=""display: flex; justify-content: center; align-items: center;"">
                     <img src=""images/causal/causal_series_10/causal_series_10_c.png"" style=""width: 300px; height: 300px;"" />
                   </div>","null","10","2","C","",""
"","","","","","html-keyboard-response","81","508329","0.0-61.0-0.0-2.0","D66EA70CA4F64CC0B50F9A805D8F79D5","0199d689-5151-7dc7-b7fb-3a88b6ee2dd1","0199d675-8795-765b-adc2-c813de8cd3d1","","null","<div style=""display: flex; justify-content: center; align-items: center;"">
                     <img src=""images/causal/causal_series_10/causal_series_10_d.png"" style=""width: 300px; height: 300px;"" />
                   </div>","null","10","2","D","",""
"","","","","","survey-likert","82","510405","0.0-62.0","D66EA70CA4F64CC0B50F9A805D8F79D5","0199d689-5151-7dc7-b7fb-3a88b6ee2dd1","0199d675-8795-765b-adc2-c813de8cd3d1","","2076","","{""Q0"":4}","10","2","surprise_rating","","[0]"
"","","","","","survey-likert","83","513239","0.0-63.0","D66EA70CA4F64CC0B50F9A805D8F79D5","0199d689-5151-7dc7-b7fb-3a88b6ee2dd1","0199d675-8795-765b-adc2-c813de8cd3d1","","2833","","{""Q0"":4}","10","2","enjoyment_rating","","[0]"
"","","","","","html-keyboard-response","84","519250","0.0-64.0","D66EA70CA4F64CC0B50F9A805D8F79D5","0199d689-5151-7dc7-b7fb-3a88b6ee2dd1","0199d675-8795-765b-adc2-c813de8cd3d1","","null","<div style=""display: flex; justify-content: center; align-items: center;"">
                     <img src=""images/other/blank.png"" style=""width: 300px; height: 300px;"" />
                   </div>","null","0","0","blank","",""
"","","","","","html-keyboard-response","85","525262","0.0-65.0","D66EA70CA4F64CC0B50F9A805D8F79D5","0199d689-5151-7dc7-b7fb-3a88b6ee2dd1","0199d675-8795-765b-adc2-c813de8cd3d1","","null","<div style=""display: flex; justify-content: center; align-items: center;"">
                     <img src=""images/causal/causal_series_8/causal_series_8_a.png"" style=""width: 300px; height: 300px;"" />
                   </div>","null","8","1","A","",""
"","","","","","html-button-response","86","526111","0.0-66.0","D66EA70CA4F64CC0B50F9A805D8F79D5","0199d689-5151-7dc7-b7fb-3a88b6ee2dd1","0199d675-8795-765b-adc2-c813de8cd3d1","","847","
        <div style=""display: flex; justify-content: center; align-items: center;"">
          <img src=""images/red_deck_2.png"" style=""width: 300px; height: 300px; margin-right: 10px;"" />
          <img src=""images/blue_deck_1.png"" style=""width: 300px; height: 300px;"" />
        </div>","0","8","1","choice","0",""
"","","","","","html-keyboard-response","87","532112","0.0-67.0-0.0-0.0","D66EA70CA4F64CC0B50F9A805D8F79D5","0199d689-5151-7dc7-b7fb-3a88b6ee2dd1","0199d675-8795-765b-adc2-c813de8cd3d1","","null","<div style=""display: flex; justify-content: center; align-items: center;"">
                     <img src=""images/causal/causal_series_8/causal_series_8_b.png"" style=""width: 300px; height: 300px;"" />
                   </div>","null","8","1","B","",""
"","","","","","html-keyboard-response","88","538122","0.0-67.0-0.0-1.0","D66EA70CA4F64CC0B50F9A805D8F79D5","0199d689-5151-7dc7-b7fb-3a88b6ee2dd1","0199d675-8795-765b-adc2-c813de8cd3d1","","null","<div style=""display: flex; justify-content: center; align-items: center;"">
                     <img src=""images/causal/causal_series_8/causal_series_8_c.png"" style=""width: 300px; height: 300px;"" />
                   </div>","null","8","1","C","",""
"","","","","","html-keyboard-response","89","544137","0.0-67.0-0.0-2.0","D66EA70CA4F64CC0B50F9A805D8F79D5","0199d689-5151-7dc7-b7fb-3a88b6ee2dd1","0199d675-8795-765b-adc2-c813de8cd3d1","","null","<div style=""display: flex; justify-content: center; align-items: center;"">
                     <img src=""images/causal/causal_series_8/causal_series_8_d.png"" style=""width: 300px; height: 300px;"" />
                   </div>","null","8","1","D","",""
"","","","","","survey-likert","90","546075","0.0-68.0","D66EA70CA4F64CC0B50F9A805D8F79D5","0199d689-5151-7dc7-b7fb-3a88b6ee2dd1","0199d675-8795-765b-adc2-c813de8cd3d1","","1936","","{""Q0"":4}","8","1","surprise_rating","","[0]"
"","","","","","survey-likert","91","547509","0.0-69.0","D66EA70CA4F64CC0B50F9A805D8F79D5","0199d689-5151-7dc7-b7fb-3a88b6ee2dd1","0199d675-8795-765b-adc2-c813de8cd3d1","","1433","","{""Q0"":3}","8","1","enjoyment_rating","","[0]"
"","","","","","html-keyboard-response","92","553512","0.0-70.0","D66EA70CA4F64CC0B50F9A805D8F79D5","0199d689-5151-7dc7-b7fb-3a88b6ee2dd1","0199d675-8795-765b-adc2-c813de8cd3d1","","null","<div style=""display: flex; justify-content: center; align-items: center;"">
                     <img src=""images/other/blank.png"" style=""width: 300px; height: 300px;"" />
                   </div>","null","0","0","blank","",""
"","","","","","html-keyboard-response","93","559515","0.0-71.0","D66EA70CA4F64CC0B50F9A805D8F79D5","0199d689-5151-7dc7-b7fb-3a88b6ee2dd1","0199d675-8795-765b-adc2-c813de8cd3d1","","null","<div style=""display: flex; justify-content: center; align-items: center;"">
                     <img src=""images/causal/causal_series_3/causal_series_3_a.png"" style=""width: 300px; height: 300px;"" />
                   </div>","null","3","1","A","",""
"","","","","","html-button-response","94","560288","0.0-72.0","D66EA70CA4F64CC0B50F9A805D8F79D5","0199d689-5151-7dc7-b7fb-3a88b6ee2dd1","0199d675-8795-765b-adc2-c813de8cd3d1","","772","
        <div style=""display: flex; justify-content: center; align-items: center;"">
          <img src=""images/red_deck_2.png"" style=""width: 300px; height: 300px; margin-right: 10px;"" />
          <img src=""images/blue_deck_1.png"" style=""width: 300px; height: 300px;"" />
        </div>","1","3","1","choice","1",""
"","","","","","html-keyboard-response","95","566299","0.0-73.0-1.0-0.0","D66EA70CA4F64CC0B50F9A805D8F79D5","0199d689-5151-7dc7-b7fb-3a88b6ee2dd1","0199d675-8795-765b-adc2-c813de8cd3d1","","null","<div style=""display: flex; justify-content: center; align-items: center;"">
                     <img src=""images/semantic/semantic_series_3/semantic_series_3_b.png"" style=""width: 300px; height: 300px;"" />
                   </div>","null","3","1","B","",""
"","","","","","html-keyboard-response","96","572314","0.0-73.0-1.0-1.0","D66EA70CA4F64CC0B50F9A805D8F79D5","0199d689-5151-7dc7-b7fb-3a88b6ee2dd1","0199d675-8795-765b-adc2-c813de8cd3d1","","null","<div style=""display: flex; justify-content: center; align-items: center;"">
                     <img src=""images/semantic/semantic_series_3/semantic_series_3_c.png"" style=""width: 300px; height: 300px;"" />
                   </div>","null","3","1","C","",""
"","","","","","html-keyboard-response","97","578330","0.0-73.0-1.0-2.0","D66EA70CA4F64CC0B50F9A805D8F79D5","0199d689-5151-7dc7-b7fb-3a88b6ee2dd1","0199d675-8795-765b-adc2-c813de8cd3d1","","null","<div style=""display: flex; justify-content: center; align-items: center;"">
                     <img src=""images/semantic/semantic_series_3/semantic_series_3_d.png"" style=""width: 300px; height: 300px;"" />
                   </div>","null","3","1","D","",""
"","","","","","survey-likert","98","581553","0.0-74.0","D66EA70CA4F64CC0B50F9A805D8F79D5","0199d689-5151-7dc7-b7fb-3a88b6ee2dd1","0199d675-8795-765b-adc2-c813de8cd3d1","","3223","","{""Q0"":3}","3","1","surprise_rating","","[0]"
"","","","","","survey-likert","99","582927","0.0-75.0","D66EA70CA4F64CC0B50F9A805D8F79D5","0199d689-5151-7dc7-b7fb-3a88b6ee2dd1","0199d675-8795-765b-adc2-c813de8cd3d1","","1374","","{""Q0"":1}","3","1","enjoyment_rating","","[0]"
"","","","","","html-keyboard-response","100","588934","0.0-76.0","D66EA70CA4F64CC0B50F9A805D8F79D5","0199d689-5151-7dc7-b7fb-3a88b6ee2dd1","0199d675-8795-765b-adc2-c813de8cd3d1","","null","<div style=""display: flex; justify-content: center; align-items: center;"">
                     <img src=""images/other/blank.png"" style=""width: 300px; height: 300px;"" />
                   </div>","null","0","0","blank","",""
"","","","","","html-keyboard-response","101","594937","0.0-77.0","D66EA70CA4F64CC0B50F9A805D8F79D5","0199d689-5151-7dc7-b7fb-3a88b6ee2dd1","0199d675-8795-765b-adc2-c813de8cd3d1","","null","<div style=""display: flex; justify-content: center; align-items: center;"">
                     <img src=""images/causal/causal_series_7/causal_series_7_a.png"" style=""width: 300px; height: 300px;"" />
                   </div>","null","7","2","A","",""
"","","","","","html-button-response","102","595618","0.0-78.0","D66EA70CA4F64CC0B50F9A805D8F79D5","0199d689-5151-7dc7-b7fb-3a88b6ee2dd1","0199d675-8795-765b-adc2-c813de8cd3d1","","680","
        <div style=""display: flex; justify-content: center; align-items: center;"">
          <img src=""images/red_deck_2.png"" style=""width: 300px; height: 300px; margin-right: 10px;"" />
          <img src=""images/blue_deck_1.png"" style=""width: 300px; height: 300px;"" />
        </div>","1","7","2","choice","1",""
"","","","","","html-keyboard-response","103","601627","0.0-79.0-1.0-0.0","D66EA70CA4F64CC0B50F9A805D8F79D5","0199d689-5151-7dc7-b7fb-3a88b6ee2dd1","0199d675-8795-765b-adc2-c813de8cd3d1","","null","<div style=""display: flex; justify-content: center; align-items: center;"">
                     <img src=""images/semantic/semantic_series_7/semantic_series_7_b.png"" style=""width: 300px; height: 300px;"" />
                   </div>","null","7","2","B","",""
"","","","","","html-keyboard-response","104","607640","0.0-79.0-1.0-1.0","D66EA70CA4F64CC0B50F9A805D8F79D5","0199d689-5151-7dc7-b7fb-3a88b6ee2dd1","0199d675-8795-765b-adc2-c813de8cd3d1","","null","<div style=""display: flex; justify-content: center; align-items: center;"">
                     <img src=""images/semantic/semantic_series_7/semantic_series_7_c.png"" style=""width: 300px; height: 300px;"" />
                   </div>","null","7","2","C","",""
"","","","","","html-keyboard-response","105","613641","0.0-79.0-1.0-2.0","D66EA70CA4F64CC0B50F9A805D8F79D5","0199d689-5151-7dc7-b7fb-3a88b6ee2dd1","0199d675-8795-765b-adc2-c813de8cd3d1","","null","<div style=""display: flex; justify-content: center; align-items: center;"">
                     <img src=""images/semantic/semantic_series_7/semantic_series_7_d.png"" style=""width: 300px; height: 300px;"" />
                   </div>","null","7","2","D","",""
"","","","","","survey-likert","106","615589","0.0-80.0","D66EA70CA4F64CC0B50F9A805D8F79D5","0199d689-5151-7dc7-b7fb-3a88b6ee2dd1","0199d675-8795-765b-adc2-c813de8cd3d1","","1947","","{""Q0"":3}","7","2","surprise_rating","","[0]"
"","","","","","survey-likert","107","616811","0.0-81.0","D66EA70CA4F64CC0B50F9A805D8F79D5","0199d689-5151-7dc7-b7fb-3a88b6ee2dd1","0199d675-8795-765b-adc2-c813de8cd3d1","","1222","","{""Q0"":2}","7","2","enjoyment_rating","","[0]"
"","","","","","html-keyboard-response","108","622815","0.0-82.0","D66EA70CA4F64CC0B50F9A805D8F79D5","0199d689-5151-7dc7-b7fb-3a88b6ee2dd1","0199d675-8795-765b-adc2-c813de8cd3d1","","null","<div style=""display: flex; justify-content: center; align-items: center;"">
                     <img src=""images/other/blank.png"" style=""width: 300px; height: 300px;"" />
                   </div>","null","0","0","blank","",""
"","","","","","html-keyboard-response","109","628831","0.0-83.0","D66EA70CA4F64CC0B50F9A805D8F79D5","0199d689-5151-7dc7-b7fb-3a88b6ee2dd1","0199d675-8795-765b-adc2-c813de8cd3d1","","null","<div style=""display: flex; justify-content: center; align-items: center;"">
                     <img src=""images/causal/causal_series_7/causal_series_7_a.png"" style=""width: 300px; height: 300px;"" />
                   </div>","null","7","1","A","",""
"","","","","","html-button-response","110","631876","0.0-84.0","D66EA70CA4F64CC0B50F9A805D8F79D5","0199d689-5151-7dc7-b7fb-3a88b6ee2dd1","0199d675-8795-765b-adc2-c813de8cd3d1","","3044","
        <div style=""display: flex; justify-content: center; align-items: center;"">
          <img src=""images/red_deck_2.png"" style=""width: 300px; height: 300px; margin-right: 10px;"" />
          <img src=""images/blue_deck_1.png"" style=""width: 300px; height: 300px;"" />
        </div>","0","7","1","choice","0",""
"","","","","","html-keyboard-response","111","637877","0.0-85.0-0.0-0.0","D66EA70CA4F64CC0B50F9A805D8F79D5","0199d689-5151-7dc7-b7fb-3a88b6ee2dd1","0199d675-8795-765b-adc2-c813de8cd3d1","","null","<div style=""display: flex; justify-content: center; align-items: center;"">
                     <img src=""images/causal/causal_series_7/causal_series_7_b.png"" style=""width: 300px; height: 300px;"" />
                   </div>","null","7","1","B","",""
"","","","","","html-keyboard-response","112","643890","0.0-85.0-0.0-1.0","D66EA70CA4F64CC0B50F9A805D8F79D5","0199d689-5151-7dc7-b7fb-3a88b6ee2dd1","0199d675-8795-765b-adc2-c813de8cd3d1","","null","<div style=""display: flex; justify-content: center; align-items: center;"">
                     <img src=""images/causal/causal_series_7/causal_series_7_c.png"" style=""width: 300px; height: 300px;"" />
                   </div>","null","7","1","C","",""
"","","","","","html-keyboard-response","113","649905","0.0-85.0-0.0-2.0","D66EA70CA4F64CC0B50F9A805D8F79D5","0199d689-5151-7dc7-b7fb-3a88b6ee2dd1","0199d675-8795-765b-adc2-c813de8cd3d1","","null","<div style=""display: flex; justify-content: center; align-items: center;"">
                     <img src=""images/causal/causal_series_7/causal_series_7_d.png"" style=""width: 300px; height: 300px;"" />
                   </div>","null","7","1","D","",""
"","","","","","survey-likert","114","652037","0.0-86.0","D66EA70CA4F64CC0B50F9A805D8F79D5","0199d689-5151-7dc7-b7fb-3a88b6ee2dd1","0199d675-8795-765b-adc2-c813de8cd3d1","","2131","","{""Q0"":4}","7","1","surprise_rating","","[0]"
"","","","","","survey-likert","115","654260","0.0-87.0","D66EA70CA4F64CC0B50F9A805D8F79D5","0199d689-5151-7dc7-b7fb-3a88b6ee2dd1","0199d675-8795-765b-adc2-c813de8cd3d1","","2222","","{""Q0"":3}","7","1","enjoyment_rating","","[0]"
"","","","","","html-keyboard-response","116","660263","0.0-88.0","D66EA70CA4F64CC0B50F9A805D8F79D5","0199d689-5151-7dc7-b7fb-3a88b6ee2dd1","0199d675-8795-765b-adc2-c813de8cd3d1","","null","<div style=""display: flex; justify-content: center; align-items: center;"">
                     <img src=""images/other/blank.png"" style=""width: 300px; height: 300px;"" />
                   </div>","null","0","0","blank","",""
"","","","","","html-keyboard-response","117","666265","0.0-89.0","D66EA70CA4F64CC0B50F9A805D8F79D5","0199d689-5151-7dc7-b7fb-3a88b6ee2dd1","0199d675-8795-765b-adc2-c813de8cd3d1","","null","<div style=""display: flex; justify-content: center; align-items: center;"">
                     <img src=""images/causal/causal_series_4/causal_series_4_a.png"" style=""width: 300px; height: 300px;"" />
                   </div>","null","4","2","A","",""
"","","","","","html-button-response","118","667358","0.0-90.0","D66EA70CA4F64CC0B50F9A805D8F79D5","0199d689-5151-7dc7-b7fb-3a88b6ee2dd1","0199d675-8795-765b-adc2-c813de8cd3d1","","1092","
        <div style=""display: flex; justify-content: center; align-items: center;"">
          <img src=""images/red_deck_2.png"" style=""width: 300px; height: 300px; margin-right: 10px;"" />
          <img src=""images/blue_deck_1.png"" style=""width: 300px; height: 300px;"" />
        </div>","1","4","2","choice","1",""
"","","","","","html-keyboard-response","119","673369","0.0-91.0-1.0-0.0","D66EA70CA4F64CC0B50F9A805D8F79D5","0199d689-5151-7dc7-b7fb-3a88b6ee2dd1","0199d675-8795-765b-adc2-c813de8cd3d1","","null","<div style=""display: flex; justify-content: center; align-items: center;"">
                     <img src=""images/semantic/semantic_series_4/semantic_series_4_b.png"" style=""width: 300px; height: 300px;"" />
                   </div>","null","4","2","B","",""
"","","","","","html-keyboard-response","120","679376","0.0-91.0-1.0-1.0","D66EA70CA4F64CC0B50F9A805D8F79D5","0199d689-5151-7dc7-b7fb-3a88b6ee2dd1","0199d675-8795-765b-adc2-c813de8cd3d1","","null","<div style=""display: flex; justify-content: center; align-items: center;"">
                     <img src=""images/semantic/semantic_series_4/semantic_series_4_c.png"" style=""width: 300px; height: 300px;"" />
                   </div>","null","4","2","C","",""
"","","","","","html-keyboard-response","121","685388","0.0-91.0-1.0-2.0","D66EA70CA4F64CC0B50F9A805D8F79D5","0199d689-5151-7dc7-b7fb-3a88b6ee2dd1","0199d675-8795-765b-adc2-c813de8cd3d1","","null","<div style=""display: flex; justify-content: center; align-items: center;"">
                     <img src=""images/semantic/semantic_series_4/semantic_series_4_d.png"" style=""width: 300px; height: 300px;"" />
                   </div>","null","4","2","D","",""
"","","","","","survey-likert","122","687825","0.0-92.0","D66EA70CA4F64CC0B50F9A805D8F79D5","0199d689-5151-7dc7-b7fb-3a88b6ee2dd1","0199d675-8795-765b-adc2-c813de8cd3d1","","2437","","{""Q0"":2}","4","2","surprise_rating","","[0]"
"","","","","","survey-likert","123","689257","0.0-93.0","D66EA70CA4F64CC0B50F9A805D8F79D5","0199d689-5151-7dc7-b7fb-3a88b6ee2dd1","0199d675-8795-765b-adc2-c813de8cd3d1","","1431","","{""Q0"":1}","4","2","enjoyment_rating","","[0]"
"","","","","","html-keyboard-response","124","695262","0.0-94.0","D66EA70CA4F64CC0B50F9A805D8F79D5","0199d689-5151-7dc7-b7fb-3a88b6ee2dd1","0199d675-8795-765b-adc2-c813de8cd3d1","","null","<div style=""display: flex; justify-content: center; align-items: center;"">
                     <img src=""images/other/blank.png"" style=""width: 300px; height: 300px;"" />
                   </div>","null","0","0","blank","",""
"","","","","","html-keyboard-response","125","701273","0.0-95.0","D66EA70CA4F64CC0B50F9A805D8F79D5","0199d689-5151-7dc7-b7fb-3a88b6ee2dd1","0199d675-8795-765b-adc2-c813de8cd3d1","","null","<div style=""display: flex; justify-content: center; align-items: center;"">
                     <img src=""images/causal/causal_series_9/causal_series_9_a.png"" style=""width: 300px; height: 300px;"" />
                   </div>","null","9","1","A","",""
"","","","","","html-button-response","126","702136","0.0-96.0","D66EA70CA4F64CC0B50F9A805D8F79D5","0199d689-5151-7dc7-b7fb-3a88b6ee2dd1","0199d675-8795-765b-adc2-c813de8cd3d1","","861","
        <div style=""display: flex; justify-content: center; align-items: center;"">
          <img src=""images/red_deck_2.png"" style=""width: 300px; height: 300px; margin-right: 10px;"" />
          <img src=""images/blue_deck_1.png"" style=""width: 300px; height: 300px;"" />
        </div>","1","9","1","choice","1",""
"","","","","","html-keyboard-response","127","708152","0.0-97.0-1.0-0.0","D66EA70CA4F64CC0B50F9A805D8F79D5","0199d689-5151-7dc7-b7fb-3a88b6ee2dd1","0199d675-8795-765b-adc2-c813de8cd3d1","","null","<div style=""display: flex; justify-content: center; align-items: center;"">
                     <img src=""images/semantic/semantic_series_9/semantic_series_9_b.png"" style=""width: 300px; height: 300px;"" />
                   </div>","null","9","1","B","",""
"","","","","","html-keyboard-response","128","714154","0.0-97.0-1.0-1.0","D66EA70CA4F64CC0B50F9A805D8F79D5","0199d689-5151-7dc7-b7fb-3a88b6ee2dd1","0199d675-8795-765b-adc2-c813de8cd3d1","","null","<div style=""display: flex; justify-content: center; align-items: center;"">
                     <img src=""images/semantic/semantic_series_9/semantic_series_9_c.png"" style=""width: 300px; height: 300px;"" />
                   </div>","null","9","1","C","",""
"","","","","","html-keyboard-response","129","720158","0.0-97.0-1.0-2.0","D66EA70CA4F64CC0B50F9A805D8F79D5","0199d689-5151-7dc7-b7fb-3a88b6ee2dd1","0199d675-8795-765b-adc2-c813de8cd3d1","","null","<div style=""display: flex; justify-content: center; align-items: center;"">
                     <img src=""images/semantic/semantic_series_9/semantic_series_9_d.png"" style=""width: 300px; height: 300px;"" />
                   </div>","null","9","1","D","",""
"","","","","","survey-likert","130","722021","0.0-98.0","D66EA70CA4F64CC0B50F9A805D8F79D5","0199d689-5151-7dc7-b7fb-3a88b6ee2dd1","0199d675-8795-765b-adc2-c813de8cd3d1","","1862","","{""Q0"":2}","9","1","surprise_rating","","[0]"
"","","","","","survey-likert","131","723696","0.0-99.0","D66EA70CA4F64CC0B50F9A805D8F79D5","0199d689-5151-7dc7-b7fb-3a88b6ee2dd1","0199d675-8795-765b-adc2-c813de8cd3d1","","1675","","{""Q0"":1}","9","1","enjoyment_rating","","[0]"
"","","","","","html-keyboard-response","132","729709","0.0-100.0","D66EA70CA4F64CC0B50F9A805D8F79D5","0199d689-5151-7dc7-b7fb-3a88b6ee2dd1","0199d675-8795-765b-adc2-c813de8cd3d1","","null","<div style=""display: flex; justify-content: center; align-items: center;"">
                     <img src=""images/other/blank.png"" style=""width: 300px; height: 300px;"" />
                   </div>","null","0","0","blank","",""
"","","","","","html-keyboard-response","133","735712","0.0-101.0","D66EA70CA4F64CC0B50F9A805D8F79D5","0199d689-5151-7dc7-b7fb-3a88b6ee2dd1","0199d675-8795-765b-adc2-c813de8cd3d1","","null","<div style=""display: flex; justify-content: center; align-items: center;"">
                     <img src=""images/causal/causal_series_6/causal_series_6_a.png"" style=""width: 300px; height: 300px;"" />
                   </div>","null","6","1","A","",""
"","","","","","html-button-response","134","736697","0.0-102.0","D66EA70CA4F64CC0B50F9A805D8F79D5","0199d689-5151-7dc7-b7fb-3a88b6ee2dd1","0199d675-8795-765b-adc2-c813de8cd3d1","","984","
        <div style=""display: flex; justify-content: center; align-items: center;"">
          <img src=""images/red_deck_2.png"" style=""width: 300px; height: 300px; margin-right: 10px;"" />
          <img src=""images/blue_deck_1.png"" style=""width: 300px; height: 300px;"" />
        </div>","0","6","1","choice","0",""
"","","","","","html-keyboard-response","135","742699","0.0-103.0-0.0-0.0","D66EA70CA4F64CC0B50F9A805D8F79D5","0199d689-5151-7dc7-b7fb-3a88b6ee2dd1","0199d675-8795-765b-adc2-c813de8cd3d1","","null","<div style=""display: flex; justify-content: center; align-items: center;"">
                     <img src=""images/causal/causal_series_6/causal_series_6_b.png"" style=""width: 300px; height: 300px;"" />
                   </div>","null","6","1","B","",""
"","","","","","html-keyboard-response","136","748711","0.0-103.0-0.0-1.0","D66EA70CA4F64CC0B50F9A805D8F79D5","0199d689-5151-7dc7-b7fb-3a88b6ee2dd1","0199d675-8795-765b-adc2-c813de8cd3d1","","null","<div style=""display: flex; justify-content: center; align-items: center;"">
                     <img src=""images/causal/causal_series_6/causal_series_6_c.png"" style=""width: 300px; height: 300px;"" />
                   </div>","null","6","1","C","",""
"","","","","","html-keyboard-response","137","754726","0.0-103.0-0.0-2.0","D66EA70CA4F64CC0B50F9A805D8F79D5","0199d689-5151-7dc7-b7fb-3a88b6ee2dd1","0199d675-8795-765b-adc2-c813de8cd3d1","","null","<div style=""display: flex; justify-content: center; align-items: center;"">
                     <img src=""images/causal/causal_series_6/causal_series_6_d.png"" style=""width: 300px; height: 300px;"" />
                   </div>","null","6","1","D","",""
"","","","","","survey-likert","138","756385","0.0-104.0","D66EA70CA4F64CC0B50F9A805D8F79D5","0199d689-5151-7dc7-b7fb-3a88b6ee2dd1","0199d675-8795-765b-adc2-c813de8cd3d1","","1658","","{""Q0"":1}","6","1","surprise_rating","","[0]"
"","","","","","survey-likert","139","757947","0.0-105.0","D66EA70CA4F64CC0B50F9A805D8F79D5","0199d689-5151-7dc7-b7fb-3a88b6ee2dd1","0199d675-8795-765b-adc2-c813de8cd3d1","","1562","","{""Q0"":3}","6","1","enjoyment_rating","","[0]"
"","","","","","html-keyboard-response","140","763958","0.0-106.0","D66EA70CA4F64CC0B50F9A805D8F79D5","0199d689-5151-7dc7-b7fb-3a88b6ee2dd1","0199d675-8795-765b-adc2-c813de8cd3d1","","null","<div style=""display: flex; justify-content: center; align-items: center;"">
                     <img src=""images/other/blank.png"" style=""width: 300px; height: 300px;"" />
                   </div>","null","0","0","blank","",""
"","","","","","html-keyboard-response","141","769959","0.0-107.0","D66EA70CA4F64CC0B50F9A805D8F79D5","0199d689-5151-7dc7-b7fb-3a88b6ee2dd1","0199d675-8795-765b-adc2-c813de8cd3d1","","null","<div style=""display: flex; justify-content: center; align-items: center;"">
                     <img src=""images/causal/causal_series_6/causal_series_6_a.png"" style=""width: 300px; height: 300px;"" />
                   </div>","null","6","2","A","",""
"","","","","","html-button-response","142","770776","0.0-108.0","D66EA70CA4F64CC0B50F9A805D8F79D5","0199d689-5151-7dc7-b7fb-3a88b6ee2dd1","0199d675-8795-765b-adc2-c813de8cd3d1","","815","
        <div style=""display: flex; justify-content: center; align-items: center;"">
          <img src=""images/red_deck_2.png"" style=""width: 300px; height: 300px; margin-right: 10px;"" />
          <img src=""images/blue_deck_1.png"" style=""width: 300px; height: 300px;"" />
        </div>","1","6","2","choice","1",""
"","","","","","html-keyboard-response","143","776786","0.0-109.0-1.0-0.0","D66EA70CA4F64CC0B50F9A805D8F79D5","0199d689-5151-7dc7-b7fb-3a88b6ee2dd1","0199d675-8795-765b-adc2-c813de8cd3d1","","null","<div style=""display: flex; justify-content: center; align-items: center;"">
                     <img src=""images/semantic/semantic_series_6/semantic_series_6_b.png"" style=""width: 300px; height: 300px;"" />
                   </div>","null","6","2","B","",""
"","","","","","html-keyboard-response","144","782792","0.0-109.0-1.0-1.0","D66EA70CA4F64CC0B50F9A805D8F79D5","0199d689-5151-7dc7-b7fb-3a88b6ee2dd1","0199d675-8795-765b-adc2-c813de8cd3d1","","null","<div style=""display: flex; justify-content: center; align-items: center;"">
                     <img src=""images/semantic/semantic_series_6/semantic_series_6_c.png"" style=""width: 300px; height: 300px;"" />
                   </div>","null","6","2","C","",""
"","","","","","html-keyboard-response","145","788805","0.0-109.0-1.0-2.0","D66EA70CA4F64CC0B50F9A805D8F79D5","0199d689-5151-7dc7-b7fb-3a88b6ee2dd1","0199d675-8795-765b-adc2-c813de8cd3d1","","null","<div style=""display: flex; justify-content: center; align-items: center;"">
                     <img src=""images/semantic/semantic_series_6/semantic_series_6_d.png"" style=""width: 300px; height: 300px;"" />
                   </div>","null","6","2","D","",""
"","","","","","survey-likert","146","790998","0.0-110.0","D66EA70CA4F64CC0B50F9A805D8F79D5","0199d689-5151-7dc7-b7fb-3a88b6ee2dd1","0199d675-8795-765b-adc2-c813de8cd3d1","","2193","","{""Q0"":3}","6","2","surprise_rating","","[0]"
"","","","","","survey-likert","147","793107","0.0-111.0","D66EA70CA4F64CC0B50F9A805D8F79D5","0199d689-5151-7dc7-b7fb-3a88b6ee2dd1","0199d675-8795-765b-adc2-c813de8cd3d1","","2108","","{""Q0"":2}","6","2","enjoyment_rating","","[0]"
"","","","","","html-keyboard-response","148","799115","0.0-112.0","D66EA70CA4F64CC0B50F9A805D8F79D5","0199d689-5151-7dc7-b7fb-3a88b6ee2dd1","0199d675-8795-765b-adc2-c813de8cd3d1","","null","<div style=""display: flex; justify-content: center; align-items: center;"">
                     <img src=""images/other/blank.png"" style=""width: 300px; height: 300px;"" />
                   </div>","null","0","0","blank","",""
"","","","","","html-keyboard-response","149","805120","0.0-113.0","D66EA70CA4F64CC0B50F9A805D8F79D5","0199d689-5151-7dc7-b7fb-3a88b6ee2dd1","0199d675-8795-765b-adc2-c813de8cd3d1","","null","<div style=""display: flex; justify-content: center; align-items: center;"">
                     <img src=""images/causal/causal_series_3/causal_series_3_a.png"" style=""width: 300px; height: 300px;"" />
                   </div>","null","3","2","A","",""
"","","","","","html-button-response","150","806147","0.0-114.0","D66EA70CA4F64CC0B50F9A805D8F79D5","0199d689-5151-7dc7-b7fb-3a88b6ee2dd1","0199d675-8795-765b-adc2-c813de8cd3d1","","1026","
        <div style=""display: flex; justify-content: center; align-items: center;"">
          <img src=""images/red_deck_2.png"" style=""width: 300px; height: 300px; margin-right: 10px;"" />
          <img src=""images/blue_deck_1.png"" style=""width: 300px; height: 300px;"" />
        </div>","0","3","2","choice","0",""
"","","","","","html-keyboard-response","151","812161","0.0-115.0-0.0-0.0","D66EA70CA4F64CC0B50F9A805D8F79D5","0199d689-5151-7dc7-b7fb-3a88b6ee2dd1","0199d675-8795-765b-adc2-c813de8cd3d1","","null","<div style=""display: flex; justify-content: center; align-items: center;"">
                     <img src=""images/causal/causal_series_3/causal_series_3_b.png"" style=""width: 300px; height: 300px;"" />
                   </div>","null","3","2","B","",""
"","","","","","html-keyboard-response","152","818162","0.0-115.0-0.0-1.0","D66EA70CA4F64CC0B50F9A805D8F79D5","0199d689-5151-7dc7-b7fb-3a88b6ee2dd1","0199d675-8795-765b-adc2-c813de8cd3d1","","null","<div style=""display: flex; justify-content: center; align-items: center;"">
                     <img src=""images/causal/causal_series_3/causal_series_3_c.png"" style=""width: 300px; height: 300px;"" />
                   </div>","null","3","2","C","",""
"","","","","","html-keyboard-response","153","824164","0.0-115.0-0.0-2.0","D66EA70CA4F64CC0B50F9A805D8F79D5","0199d689-5151-7dc7-b7fb-3a88b6ee2dd1","0199d675-8795-765b-adc2-c813de8cd3d1","","null","<div style=""display: flex; justify-content: center; align-items: center;"">
                     <img src=""images/causal/causal_series_3/causal_series_3_d.png"" style=""width: 300px; height: 300px;"" />
                   </div>","null","3","2","D","",""
"","","","","","survey-likert","154","826407","0.0-116.0","D66EA70CA4F64CC0B50F9A805D8F79D5","0199d689-5151-7dc7-b7fb-3a88b6ee2dd1","0199d675-8795-765b-adc2-c813de8cd3d1","","2242","","{""Q0"":3}","3","2","surprise_rating","","[0]"
"","","","","","survey-likert","155","828790","0.0-117.0","D66EA70CA4F64CC0B50F9A805D8F79D5","0199d689-5151-7dc7-b7fb-3a88b6ee2dd1","0199d675-8795-765b-adc2-c813de8cd3d1","","2382","","{""Q0"":3}","3","2","enjoyment_rating","","[0]"
"","","","","","html-keyboard-response","156","834805","0.0-118.0","D66EA70CA4F64CC0B50F9A805D8F79D5","0199d689-5151-7dc7-b7fb-3a88b6ee2dd1","0199d675-8795-765b-adc2-c813de8cd3d1","","null","<div style=""display: flex; justify-content: center; align-items: center;"">
                     <img src=""images/other/blank.png"" style=""width: 300px; height: 300px;"" />
                   </div>","null","0","0","blank","",""
"","","","","","html-keyboard-response","157","840818","0.0-119.0","D66EA70CA4F64CC0B50F9A805D8F79D5","0199d689-5151-7dc7-b7fb-3a88b6ee2dd1","0199d675-8795-765b-adc2-c813de8cd3d1","","null","<div style=""display: flex; justify-content: center; align-items: center;"">
                     <img src=""images/causal/causal_series_2/causal_series_2_a.png"" style=""width: 300px; height: 300px;"" />
                   </div>","null","2","1","A","",""
"","","","","","html-button-response","158","841606","0.0-120.0","D66EA70CA4F64CC0B50F9A805D8F79D5","0199d689-5151-7dc7-b7fb-3a88b6ee2dd1","0199d675-8795-765b-adc2-c813de8cd3d1","","787","
        <div style=""display: flex; justify-content: center; align-items: center;"">
          <img src=""images/red_deck_2.png"" style=""width: 300px; height: 300px; margin-right: 10px;"" />
          <img src=""images/blue_deck_1.png"" style=""width: 300px; height: 300px;"" />
        </div>","0","2","1","choice","0",""
"","","","","","html-keyboard-response","159","847621","0.0-121.0-0.0-0.0","D66EA70CA4F64CC0B50F9A805D8F79D5","0199d689-5151-7dc7-b7fb-3a88b6ee2dd1","0199d675-8795-765b-adc2-c813de8cd3d1","","null","<div style=""display: flex; justify-content: center; align-items: center;"">
                     <img src=""images/causal/causal_series_2/causal_series_2_b.png"" style=""width: 300px; height: 300px;"" />
                   </div>","null","2","1","B","",""
"","","","","","html-keyboard-response","160","853635","0.0-121.0-0.0-1.0","D66EA70CA4F64CC0B50F9A805D8F79D5","0199d689-5151-7dc7-b7fb-3a88b6ee2dd1","0199d675-8795-765b-adc2-c813de8cd3d1","","null","<div style=""display: flex; justify-content: center; align-items: center;"">
                     <img src=""images/causal/causal_series_2/causal_series_2_c.png"" style=""width: 300px; height: 300px;"" />
                   </div>","null","2","1","C","",""
"","","","","","html-keyboard-response","161","859635","0.0-121.0-0.0-2.0","D66EA70CA4F64CC0B50F9A805D8F79D5","0199d689-5151-7dc7-b7fb-3a88b6ee2dd1","0199d675-8795-765b-adc2-c813de8cd3d1","","null","<div style=""display: flex; justify-content: center; align-items: center;"">
                     <img src=""images/causal/causal_series_2/causal_series_2_d.png"" style=""width: 300px; height: 300px;"" />
                   </div>","null","2","1","D","",""
"","","","","","survey-likert","162","861337","0.0-122.0","D66EA70CA4F64CC0B50F9A805D8F79D5","0199d689-5151-7dc7-b7fb-3a88b6ee2dd1","0199d675-8795-765b-adc2-c813de8cd3d1","","1701","","{""Q0"":4}","2","1","surprise_rating","","[0]"
"","","","","","survey-likert","163","862583","0.0-123.0","D66EA70CA4F64CC0B50F9A805D8F79D5","0199d689-5151-7dc7-b7fb-3a88b6ee2dd1","0199d675-8795-765b-adc2-c813de8cd3d1","","1245","","{""Q0"":3}","2","1","enjoyment_rating","","[0]"
"","","","","","html-keyboard-response","164","868599","0.0-124.0","D66EA70CA4F64CC0B50F9A805D8F79D5","0199d689-5151-7dc7-b7fb-3a88b6ee2dd1","0199d675-8795-765b-adc2-c813de8cd3d1","","null","<div style=""display: flex; justify-content: center; align-items: center;"">
                     <img src=""images/other/blank.png"" style=""width: 300px; height: 300px;"" />
                   </div>","null","0","0","blank","",""
"","","","","","survey-text","165","894503","0.0-125.0","D66EA70CA4F64CC0B50F9A805D8F79D5","0199d689-5151-7dc7-b7fb-3a88b6ee2dd1","0199d675-8795-765b-adc2-c813de8cd3d1","","25896","","{""Q0"":""One was a random series of events and the other was a linear story.""}","","","","",""
"","","","","","html-button-response","166","901819","0.0-126.0","D66EA70CA4F64CC0B50F9A805D8F79D5","0199d689-5151-7dc7-b7fb-3a88b6ee2dd1","0199d675-8795-765b-adc2-c813de8cd3d1","","7315","Which color deck do the following sentences continue the story from?","0","","","","",""
"","","","","","html-button-response","167","903872","0.0-127.0","D66EA70CA4F64CC0B50F9A805D8F79D5","0199d689-5151-7dc7-b7fb-3a88b6ee2dd1","0199d675-8795-765b-adc2-c813de8cd3d1","","2053","Which color deck do the following sentences NOT follow the story from?","1","","","","",""
"","","","","","html-button-response","168","907156","0.0-128.0","D66EA70CA4F64CC0B50F9A805D8F79D5","0199d689-5151-7dc7-b7fb-3a88b6ee2dd1","0199d675-8795-765b-adc2-c813de8cd3d1","","3283","Which type of deck did you prefer overall?","0","","","","",""
"","","","","","survey-text","169","913271","0.0-129.0","D66EA70CA4F64CC0B50F9A805D8F79D5","0199d689-5151-7dc7-b7fb-3a88b6ee2dd1","0199d675-8795-765b-adc2-c813de8cd3d1","","6113","","{""Q0"":""Male"",""Q1"":""29""}","","","","",""
"","","","","","instructions","170","918868","0.0-130.0","D66EA70CA4F64CC0B50F9A805D8F79D5","0199d689-5151-7dc7-b7fb-3a88b6ee2dd1","0199d675-8795-765b-adc2-c813de8cd3d1","[{""page_index"":0,""viewing_time"":5597}]","5597","","","","","","",""
