"success","timeout","failed_images","failed_audio","failed_video","trial_type","trial_index","time_elapsed","internal_node_id","subject_id","study_id","session_id","view_history","rt","stimulus","response","choice"
"true","false","[]","[]","[]","preload","0","1801","0.0-0.0","279DAA3D45EF4037903C41B2B5AE8090","f4247b07-5c8b-4f65-ba80-99a460f606c2","23db58b9-63b0-4bce-8714-07ce439e665e","","","","",""
"","","","","","instructions","1","4226","0.0-1.0","279DAA3D45EF4037903C41B2B5AE8090","f4247b07-5c8b-4f65-ba80-99a460f606c2","23db58b9-63b0-4bce-8714-07ce439e665e","[{""page_index"":0,""viewing_time"":2425}]","2425","","",""
"","","","","","instructions","2","8556","0.0-2.0","279DAA3D45EF4037903C41B2B5AE8090","f4247b07-5c8b-4f65-ba80-99a460f606c2","23db58b9-63b0-4bce-8714-07ce439e665e","[{""page_index"":0,""viewing_time"":4329}]","4329","","",""
"true","","","","","fullscreen","3","12060","0.0-3.0","279DAA3D45EF4037903C41B2B5AE8090","f4247b07-5c8b-4f65-ba80-99a460f606c2","23db58b9-63b0-4bce-8714-07ce439e665e","","2496","","",""
"","","","","","instructions","4","16270","0.0-4.0","279DAA3D45EF4037903C41B2B5AE8090","f4247b07-5c8b-4f65-ba80-99a460f606c2","23db58b9-63b0-4bce-8714-07ce439e665e","[{""page_index"":0,""viewing_time"":4207}]","4207","","",""
"","","","","","html-keyboard-response","5","19279","0.0-5.0","279DAA3D45EF4037903C41B2B5AE8090","f4247b07-5c8b-4f65-ba80-99a460f606c2","23db58b9-63b0-4bce-8714-07ce439e665e","","null","<div style=""display: flex; justify-content: center; align-items: center;"">
                <img src=""images/causal/causal_series_6/causal_series_6_a.jpg"" style=""width: 300px; height: 300px;"" />
              </div>","null",""
"","","","","","html-button-response","6","21497","0.0-6.0","279DAA3D45EF4037903C41B2B5AE8090","f4247b07-5c8b-4f65-ba80-99a460f606c2","23db58b9-63b0-4bce-8714-07ce439e665e","","2217","
    <div style=""display: flex; justify-content: center; align-items: center;"">
      <img src=""images/red_deck_2.png"" style=""width: 300px; height: 300px; margin-right: 10px;"" />
      <img src=""images/blue_deck_1.png"" style=""width: 300px; height: 300px;"" />
    </div>","1","1"
"","","","","","html-keyboard-response","7","24503","0.0-7.0-1.0-0.0","279DAA3D45EF4037903C41B2B5AE8090","f4247b07-5c8b-4f65-ba80-99a460f606c2","23db58b9-63b0-4bce-8714-07ce439e665e","","null","<div style=""display: flex; justify-content: center; align-items: center;"">
                <img src=""images/semantic/semantic_series_15/semantic_series_15_d.jpg"" style=""width: 300px; height: 300px;"" />
              </div>","null",""
"","","","","","html-keyboard-response","8","27509","0.0-7.0-1.0-1.0","279DAA3D45EF4037903C41B2B5AE8090","f4247b07-5c8b-4f65-ba80-99a460f606c2","23db58b9-63b0-4bce-8714-07ce439e665e","","null","<div style=""display: flex; justify-content: center; align-items: center;"">
                <img src=""images/semantic/semantic_series_16/semantic_series_16_d.jpg"" style=""width: 300px; height: 300px;"" />
              </div>","null",""
"","","","","","html-keyboard-response","9","30521","0.0-7.0-1.0-2.0","279DAA3D45EF4037903C41B2B5AE8090","f4247b07-5c8b-4f65-ba80-99a460f606c2","23db58b9-63b0-4bce-8714-07ce439e665e","","null","<div style=""display: flex; justify-content: center; align-items: center;"">
                <img src=""images/semantic/semantic_series_17/semantic_series_17_d.jpg"" style=""width: 300px; height: 300px;"" />
              </div>","null",""
"","","","","","html-keyboard-response","10","33532","0.0-8.0","279DAA3D45EF4037903C41B2B5AE8090","f4247b07-5c8b-4f65-ba80-99a460f606c2","23db58b9-63b0-4bce-8714-07ce439e665e","","null","<div style=""display: flex; justify-content: center; align-items: center;"">
                <img src=""images/other/blank.jpg"" style=""width: 300px; height: 300px;"" />
              </div>","null",""
"","","","","","html-keyboard-response","11","36533","0.0-9.0","279DAA3D45EF4037903C41B2B5AE8090","f4247b07-5c8b-4f65-ba80-99a460f606c2","23db58b9-63b0-4bce-8714-07ce439e665e","","null","<div style=""display: flex; justify-content: center; align-items: center;"">
                <img src=""images/causal/causal_series_8/causal_series_8_a.jpg"" style=""width: 300px; height: 300px;"" />
              </div>","null",""
"","","","","","html-button-response","12","38883","0.0-10.0","279DAA3D45EF4037903C41B2B5AE8090","f4247b07-5c8b-4f65-ba80-99a460f606c2","23db58b9-63b0-4bce-8714-07ce439e665e","","2348","
    <div style=""display: flex; justify-content: center; align-items: center;"">
      <img src=""images/red_deck_2.png"" style=""width: 300px; height: 300px; margin-right: 10px;"" />
      <img src=""images/blue_deck_1.png"" style=""width: 300px; height: 300px;"" />
    </div>","0","0"
"","","","","","html-keyboard-response","13","41889","0.0-11.0-0.0-0.0","279DAA3D45EF4037903C41B2B5AE8090","f4247b07-5c8b-4f65-ba80-99a460f606c2","23db58b9-63b0-4bce-8714-07ce439e665e","","null","<div style=""display: flex; justify-content: center; align-items: center;"">
                <img src=""images/causal/causal_series_8/causal_series_8_b.jpg"" style=""width: 300px; height: 300px;"" />
              </div>","null",""
"","","","","","html-keyboard-response","14","44890","0.0-11.0-0.0-1.0","279DAA3D45EF4037903C41B2B5AE8090","f4247b07-5c8b-4f65-ba80-99a460f606c2","23db58b9-63b0-4bce-8714-07ce439e665e","","null","<div style=""display: flex; justify-content: center; align-items: center;"">
                <img src=""images/causal/causal_series_8/causal_series_8_c.jpg"" style=""width: 300px; height: 300px;"" />
              </div>","null",""
"","","","","","html-keyboard-response","15","47905","0.0-11.0-0.0-2.0","279DAA3D45EF4037903C41B2B5AE8090","f4247b07-5c8b-4f65-ba80-99a460f606c2","23db58b9-63b0-4bce-8714-07ce439e665e","","null","<div style=""display: flex; justify-content: center; align-items: center;"">
                <img src=""images/causal/causal_series_8/causal_series_8_d.jpg"" style=""width: 300px; height: 300px;"" />
              </div>","null",""
"","","","","","html-keyboard-response","16","50917","0.0-12.0","279DAA3D45EF4037903C41B2B5AE8090","f4247b07-5c8b-4f65-ba80-99a460f606c2","23db58b9-63b0-4bce-8714-07ce439e665e","","null","<div style=""display: flex; justify-content: center; align-items: center;"">
                <img src=""images/other/blank.jpg"" style=""width: 300px; height: 300px;"" />
              </div>","null",""
"","","","","","html-keyboard-response","17","53918","0.0-13.0","279DAA3D45EF4037903C41B2B5AE8090","f4247b07-5c8b-4f65-ba80-99a460f606c2","23db58b9-63b0-4bce-8714-07ce439e665e","","null","<div style=""display: flex; justify-content: center; align-items: center;"">
                <img src=""images/causal/causal_series_1/causal_series_1_a.jpg"" style=""width: 300px; height: 300px;"" />
              </div>","null",""
"","","","","","html-button-response","18","55276","0.0-14.0","279DAA3D45EF4037903C41B2B5AE8090","f4247b07-5c8b-4f65-ba80-99a460f606c2","23db58b9-63b0-4bce-8714-07ce439e665e","","1358","
    <div style=""display: flex; justify-content: center; align-items: center;"">
      <img src=""images/red_deck_2.png"" style=""width: 300px; height: 300px; margin-right: 10px;"" />
      <img src=""images/blue_deck_1.png"" style=""width: 300px; height: 300px;"" />
    </div>","0","0"
"","","","","","html-keyboard-response","19","58286","0.0-15.0-0.0-0.0","279DAA3D45EF4037903C41B2B5AE8090","f4247b07-5c8b-4f65-ba80-99a460f606c2","23db58b9-63b0-4bce-8714-07ce439e665e","","null","<div style=""display: flex; justify-content: center; align-items: center;"">
                <img src=""images/causal/causal_series_1/causal_series_1_b.jpg"" style=""width: 300px; height: 300px;"" />
              </div>","null",""
"","","","","","html-keyboard-response","20","61295","0.0-15.0-0.0-1.0","279DAA3D45EF4037903C41B2B5AE8090","f4247b07-5c8b-4f65-ba80-99a460f606c2","23db58b9-63b0-4bce-8714-07ce439e665e","","null","<div style=""display: flex; justify-content: center; align-items: center;"">
                <img src=""images/causal/causal_series_1/causal_series_1_c.jpg"" style=""width: 300px; height: 300px;"" />
              </div>","null",""
"","","","","","html-keyboard-response","21","64310","0.0-15.0-0.0-2.0","279DAA3D45EF4037903C41B2B5AE8090","f4247b07-5c8b-4f65-ba80-99a460f606c2","23db58b9-63b0-4bce-8714-07ce439e665e","","null","<div style=""display: flex; justify-content: center; align-items: center;"">
                <img src=""images/causal/causal_series_1/causal_series_1_d.jpg"" style=""width: 300px; height: 300px;"" />
              </div>","null",""
"","","","","","html-keyboard-response","22","67324","0.0-16.0","279DAA3D45EF4037903C41B2B5AE8090","f4247b07-5c8b-4f65-ba80-99a460f606c2","23db58b9-63b0-4bce-8714-07ce439e665e","","null","<div style=""display: flex; justify-content: center; align-items: center;"">
                <img src=""images/other/blank.jpg"" style=""width: 300px; height: 300px;"" />
              </div>","null",""
"","","","","","html-keyboard-response","23","70334","0.0-17.0","279DAA3D45EF4037903C41B2B5AE8090","f4247b07-5c8b-4f65-ba80-99a460f606c2","23db58b9-63b0-4bce-8714-07ce439e665e","","null","<div style=""display: flex; justify-content: center; align-items: center;"">
                <img src=""images/causal/causal_series_17/causal_series_17_a.jpg"" style=""width: 300px; height: 300px;"" />
              </div>","null",""
"","","","","","html-button-response","24","71205","0.0-18.0","279DAA3D45EF4037903C41B2B5AE8090","f4247b07-5c8b-4f65-ba80-99a460f606c2","23db58b9-63b0-4bce-8714-07ce439e665e","","871","
    <div style=""display: flex; justify-content: center; align-items: center;"">
      <img src=""images/red_deck_2.png"" style=""width: 300px; height: 300px; margin-right: 10px;"" />
      <img src=""images/blue_deck_1.png"" style=""width: 300px; height: 300px;"" />
    </div>","1","1"
"","","","","","html-keyboard-response","25","74215","0.0-19.0-1.0-0.0","279DAA3D45EF4037903C41B2B5AE8090","f4247b07-5c8b-4f65-ba80-99a460f606c2","23db58b9-63b0-4bce-8714-07ce439e665e","","null","<div style=""display: flex; justify-content: center; align-items: center;"">
                <img src=""images/semantic/semantic_series_12/semantic_series_12_d.jpg"" style=""width: 300px; height: 300px;"" />
              </div>","null",""
"","","","","","html-keyboard-response","26","77218","0.0-19.0-1.0-1.0","279DAA3D45EF4037903C41B2B5AE8090","f4247b07-5c8b-4f65-ba80-99a460f606c2","23db58b9-63b0-4bce-8714-07ce439e665e","","null","<div style=""display: flex; justify-content: center; align-items: center;"">
                <img src=""images/semantic/semantic_series_13/semantic_series_13_d.jpg"" style=""width: 300px; height: 300px;"" />
              </div>","null",""
"","","","","","html-keyboard-response","27","80227","0.0-19.0-1.0-2.0","279DAA3D45EF4037903C41B2B5AE8090","f4247b07-5c8b-4f65-ba80-99a460f606c2","23db58b9-63b0-4bce-8714-07ce439e665e","","null","<div style=""display: flex; justify-content: center; align-items: center;"">
                <img src=""images/semantic/semantic_series_14/semantic_series_14_d.jpg"" style=""width: 300px; height: 300px;"" />
              </div>","null",""
"","","","","","html-keyboard-response","28","83233","0.0-20.0","279DAA3D45EF4037903C41B2B5AE8090","f4247b07-5c8b-4f65-ba80-99a460f606c2","23db58b9-63b0-4bce-8714-07ce439e665e","","null","<div style=""display: flex; justify-content: center; align-items: center;"">
                <img src=""images/other/blank.jpg"" style=""width: 300px; height: 300px;"" />
              </div>","null",""
"","","","","","html-keyboard-response","29","86244","0.0-21.0","279DAA3D45EF4037903C41B2B5AE8090","f4247b07-5c8b-4f65-ba80-99a460f606c2","23db58b9-63b0-4bce-8714-07ce439e665e","","null","<div style=""display: flex; justify-content: center; align-items: center;"">
                <img src=""images/causal/causal_series_18/causal_series_18_a.jpg"" style=""width: 300px; height: 300px;"" />
              </div>","null",""
"","","","","","html-button-response","30","87087","0.0-22.0","279DAA3D45EF4037903C41B2B5AE8090","f4247b07-5c8b-4f65-ba80-99a460f606c2","23db58b9-63b0-4bce-8714-07ce439e665e","","843","
    <div style=""display: flex; justify-content: center; align-items: center;"">
      <img src=""images/red_deck_2.png"" style=""width: 300px; height: 300px; margin-right: 10px;"" />
      <img src=""images/blue_deck_1.png"" style=""width: 300px; height: 300px;"" />
    </div>","0","0"
"","","","","","html-keyboard-response","31","90100","0.0-23.0-0.0-0.0","279DAA3D45EF4037903C41B2B5AE8090","f4247b07-5c8b-4f65-ba80-99a460f606c2","23db58b9-63b0-4bce-8714-07ce439e665e","","null","<div style=""display: flex; justify-content: center; align-items: center;"">
                <img src=""images/causal/causal_series_18/causal_series_18_b.jpg"" style=""width: 300px; height: 300px;"" />
              </div>","null",""
"","","","","","html-keyboard-response","32","93105","0.0-23.0-0.0-1.0","279DAA3D45EF4037903C41B2B5AE8090","f4247b07-5c8b-4f65-ba80-99a460f606c2","23db58b9-63b0-4bce-8714-07ce439e665e","","null","<div style=""display: flex; justify-content: center; align-items: center;"">
                <img src=""images/causal/causal_series_18/causal_series_18_c.jpg"" style=""width: 300px; height: 300px;"" />
              </div>","null",""
"","","","","","html-keyboard-response","33","96109","0.0-23.0-0.0-2.0","279DAA3D45EF4037903C41B2B5AE8090","f4247b07-5c8b-4f65-ba80-99a460f606c2","23db58b9-63b0-4bce-8714-07ce439e665e","","null","<div style=""display: flex; justify-content: center; align-items: center;"">
                <img src=""images/causal/causal_series_18/causal_series_18_d.jpg"" style=""width: 300px; height: 300px;"" />
              </div>","null",""
"","","","","","html-keyboard-response","34","99117","0.0-24.0","279DAA3D45EF4037903C41B2B5AE8090","f4247b07-5c8b-4f65-ba80-99a460f606c2","23db58b9-63b0-4bce-8714-07ce439e665e","","null","<div style=""display: flex; justify-content: center; align-items: center;"">
                <img src=""images/other/blank.jpg"" style=""width: 300px; height: 300px;"" />
              </div>","null",""
"","","","","","html-keyboard-response","35","102119","0.0-25.0","279DAA3D45EF4037903C41B2B5AE8090","f4247b07-5c8b-4f65-ba80-99a460f606c2","23db58b9-63b0-4bce-8714-07ce439e665e","","null","<div style=""display: flex; justify-content: center; align-items: center;"">
                <img src=""images/causal/causal_series_4/causal_series_4_a.jpg"" style=""width: 300px; height: 300px;"" />
              </div>","null",""
"","","","","","html-button-response","36","106750","0.0-26.0","279DAA3D45EF4037903C41B2B5AE8090","f4247b07-5c8b-4f65-ba80-99a460f606c2","23db58b9-63b0-4bce-8714-07ce439e665e","","4631","
    <div style=""display: flex; justify-content: center; align-items: center;"">
      <img src=""images/red_deck_2.png"" style=""width: 300px; height: 300px; margin-right: 10px;"" />
      <img src=""images/blue_deck_1.png"" style=""width: 300px; height: 300px;"" />
    </div>","0","0"
"","","","","","html-keyboard-response","37","109759","0.0-27.0-0.0-0.0","279DAA3D45EF4037903C41B2B5AE8090","f4247b07-5c8b-4f65-ba80-99a460f606c2","23db58b9-63b0-4bce-8714-07ce439e665e","","null","<div style=""display: flex; justify-content: center; align-items: center;"">
                <img src=""images/causal/causal_series_4/causal_series_4_b.jpg"" style=""width: 300px; height: 300px;"" />
              </div>","null",""
"","","","","","html-keyboard-response","38","112768","0.0-27.0-0.0-1.0","279DAA3D45EF4037903C41B2B5AE8090","f4247b07-5c8b-4f65-ba80-99a460f606c2","23db58b9-63b0-4bce-8714-07ce439e665e","","null","<div style=""display: flex; justify-content: center; align-items: center;"">
                <img src=""images/causal/causal_series_4/causal_series_4_c.jpg"" style=""width: 300px; height: 300px;"" />
              </div>","null",""
"","","","","","html-keyboard-response","39","115782","0.0-27.0-0.0-2.0","279DAA3D45EF4037903C41B2B5AE8090","f4247b07-5c8b-4f65-ba80-99a460f606c2","23db58b9-63b0-4bce-8714-07ce439e665e","","null","<div style=""display: flex; justify-content: center; align-items: center;"">
                <img src=""images/causal/causal_series_4/causal_series_4_d.jpg"" style=""width: 300px; height: 300px;"" />
              </div>","null",""
"","","","","","html-keyboard-response","40","118795","0.0-28.0","279DAA3D45EF4037903C41B2B5AE8090","f4247b07-5c8b-4f65-ba80-99a460f606c2","23db58b9-63b0-4bce-8714-07ce439e665e","","null","<div style=""display: flex; justify-content: center; align-items: center;"">
                <img src=""images/other/blank.jpg"" style=""width: 300px; height: 300px;"" />
              </div>","null",""
"","","","","","html-keyboard-response","41","121801","0.0-29.0","279DAA3D45EF4037903C41B2B5AE8090","f4247b07-5c8b-4f65-ba80-99a460f606c2","23db58b9-63b0-4bce-8714-07ce439e665e","","null","<div style=""display: flex; justify-content: center; align-items: center;"">
                <img src=""images/causal/causal_series_13/causal_series_13_a.jpg"" style=""width: 300px; height: 300px;"" />
              </div>","null",""
"","","","","","html-button-response","42","122720","0.0-30.0","279DAA3D45EF4037903C41B2B5AE8090","f4247b07-5c8b-4f65-ba80-99a460f606c2","23db58b9-63b0-4bce-8714-07ce439e665e","","919","
    <div style=""display: flex; justify-content: center; align-items: center;"">
      <img src=""images/red_deck_2.png"" style=""width: 300px; height: 300px; margin-right: 10px;"" />
      <img src=""images/blue_deck_1.png"" style=""width: 300px; height: 300px;"" />
    </div>","0","0"
"","","","","","html-keyboard-response","43","125733","0.0-31.0-0.0-0.0","279DAA3D45EF4037903C41B2B5AE8090","f4247b07-5c8b-4f65-ba80-99a460f606c2","23db58b9-63b0-4bce-8714-07ce439e665e","","null","<div style=""display: flex; justify-content: center; align-items: center;"">
                <img src=""images/causal/causal_series_13/causal_series_13_b.jpg"" style=""width: 300px; height: 300px;"" />
              </div>","null",""
"","","","","","html-keyboard-response","44","128738","0.0-31.0-0.0-1.0","279DAA3D45EF4037903C41B2B5AE8090","f4247b07-5c8b-4f65-ba80-99a460f606c2","23db58b9-63b0-4bce-8714-07ce439e665e","","null","<div style=""display: flex; justify-content: center; align-items: center;"">
                <img src=""images/causal/causal_series_13/causal_series_13_c.jpg"" style=""width: 300px; height: 300px;"" />
              </div>","null",""
"","","","","","html-keyboard-response","45","131739","0.0-31.0-0.0-2.0","279DAA3D45EF4037903C41B2B5AE8090","f4247b07-5c8b-4f65-ba80-99a460f606c2","23db58b9-63b0-4bce-8714-07ce439e665e","","null","<div style=""display: flex; justify-content: center; align-items: center;"">
                <img src=""images/causal/causal_series_13/causal_series_13_d.jpg"" style=""width: 300px; height: 300px;"" />
              </div>","null",""
"","","","","","html-keyboard-response","46","134752","0.0-32.0","279DAA3D45EF4037903C41B2B5AE8090","f4247b07-5c8b-4f65-ba80-99a460f606c2","23db58b9-63b0-4bce-8714-07ce439e665e","","null","<div style=""display: flex; justify-content: center; align-items: center;"">
                <img src=""images/other/blank.jpg"" style=""width: 300px; height: 300px;"" />
              </div>","null",""
"","","","","","html-keyboard-response","47","137753","0.0-33.0","279DAA3D45EF4037903C41B2B5AE8090","f4247b07-5c8b-4f65-ba80-99a460f606c2","23db58b9-63b0-4bce-8714-07ce439e665e","","null","<div style=""display: flex; justify-content: center; align-items: center;"">
                <img src=""images/causal/causal_series_3/causal_series_3_a.jpg"" style=""width: 300px; height: 300px;"" />
              </div>","null",""
"","","","","","html-button-response","48","139338","0.0-34.0","279DAA3D45EF4037903C41B2B5AE8090","f4247b07-5c8b-4f65-ba80-99a460f606c2","23db58b9-63b0-4bce-8714-07ce439e665e","","1584","
    <div style=""display: flex; justify-content: center; align-items: center;"">
      <img src=""images/red_deck_2.png"" style=""width: 300px; height: 300px; margin-right: 10px;"" />
      <img src=""images/blue_deck_1.png"" style=""width: 300px; height: 300px;"" />
    </div>","1","1"
"","","","","","html-keyboard-response","49","142343","0.0-35.0-1.0-0.0","279DAA3D45EF4037903C41B2B5AE8090","f4247b07-5c8b-4f65-ba80-99a460f606c2","23db58b9-63b0-4bce-8714-07ce439e665e","","null","<div style=""display: flex; justify-content: center; align-items: center;"">
                <img src=""images/semantic/semantic_series_6/semantic_series_6_d.jpg"" style=""width: 300px; height: 300px;"" />
              </div>","null",""
"","","","","","html-keyboard-response","50","145355","0.0-35.0-1.0-1.0","279DAA3D45EF4037903C41B2B5AE8090","f4247b07-5c8b-4f65-ba80-99a460f606c2","23db58b9-63b0-4bce-8714-07ce439e665e","","null","<div style=""display: flex; justify-content: center; align-items: center;"">
                <img src=""images/semantic/semantic_series_7/semantic_series_7_d.jpg"" style=""width: 300px; height: 300px;"" />
              </div>","null",""
"","","","","","html-keyboard-response","51","148362","0.0-35.0-1.0-2.0","279DAA3D45EF4037903C41B2B5AE8090","f4247b07-5c8b-4f65-ba80-99a460f606c2","23db58b9-63b0-4bce-8714-07ce439e665e","","null","<div style=""display: flex; justify-content: center; align-items: center;"">
                <img src=""images/semantic/semantic_series_8/semantic_series_8_d.jpg"" style=""width: 300px; height: 300px;"" />
              </div>","null",""
"","","","","","html-keyboard-response","52","151376","0.0-36.0","279DAA3D45EF4037903C41B2B5AE8090","f4247b07-5c8b-4f65-ba80-99a460f606c2","23db58b9-63b0-4bce-8714-07ce439e665e","","null","<div style=""display: flex; justify-content: center; align-items: center;"">
                <img src=""images/other/blank.jpg"" style=""width: 300px; height: 300px;"" />
              </div>","null",""
"","","","","","html-keyboard-response","53","154389","0.0-37.0","279DAA3D45EF4037903C41B2B5AE8090","f4247b07-5c8b-4f65-ba80-99a460f606c2","23db58b9-63b0-4bce-8714-07ce439e665e","","null","<div style=""display: flex; justify-content: center; align-items: center;"">
                <img src=""images/causal/causal_series_16/causal_series_16_a.jpg"" style=""width: 300px; height: 300px;"" />
              </div>","null",""
"","","","","","html-button-response","54","155965","0.0-38.0","279DAA3D45EF4037903C41B2B5AE8090","f4247b07-5c8b-4f65-ba80-99a460f606c2","23db58b9-63b0-4bce-8714-07ce439e665e","","1576","
    <div style=""display: flex; justify-content: center; align-items: center;"">
      <img src=""images/red_deck_2.png"" style=""width: 300px; height: 300px; margin-right: 10px;"" />
      <img src=""images/blue_deck_1.png"" style=""width: 300px; height: 300px;"" />
    </div>","1","1"
"","","","","","html-keyboard-response","55","158975","0.0-39.0-1.0-0.0","279DAA3D45EF4037903C41B2B5AE8090","f4247b07-5c8b-4f65-ba80-99a460f606c2","23db58b9-63b0-4bce-8714-07ce439e665e","","null","<div style=""display: flex; justify-content: center; align-items: center;"">
                <img src=""images/semantic/semantic_series_9/semantic_series_9_d.jpg"" style=""width: 300px; height: 300px;"" />
              </div>","null",""
"","","","","","html-keyboard-response","56","161987","0.0-39.0-1.0-1.0","279DAA3D45EF4037903C41B2B5AE8090","f4247b07-5c8b-4f65-ba80-99a460f606c2","23db58b9-63b0-4bce-8714-07ce439e665e","","null","<div style=""display: flex; justify-content: center; align-items: center;"">
                <img src=""images/semantic/semantic_series_10/semantic_series_10_d.jpg"" style=""width: 300px; height: 300px;"" />
              </div>","null",""
"","","","","","html-keyboard-response","57","165002","0.0-39.0-1.0-2.0","279DAA3D45EF4037903C41B2B5AE8090","f4247b07-5c8b-4f65-ba80-99a460f606c2","23db58b9-63b0-4bce-8714-07ce439e665e","","null","<div style=""display: flex; justify-content: center; align-items: center;"">
                <img src=""images/semantic/semantic_series_11/semantic_series_11_d.jpg"" style=""width: 300px; height: 300px;"" />
              </div>","null",""
"","","","","","html-keyboard-response","58","168011","0.0-40.0","279DAA3D45EF4037903C41B2B5AE8090","f4247b07-5c8b-4f65-ba80-99a460f606c2","23db58b9-63b0-4bce-8714-07ce439e665e","","null","<div style=""display: flex; justify-content: center; align-items: center;"">
                <img src=""images/other/blank.jpg"" style=""width: 300px; height: 300px;"" />
              </div>","null",""
"","","","","","html-keyboard-response","59","171023","0.0-41.0","279DAA3D45EF4037903C41B2B5AE8090","f4247b07-5c8b-4f65-ba80-99a460f606c2","23db58b9-63b0-4bce-8714-07ce439e665e","","null","<div style=""display: flex; justify-content: center; align-items: center;"">
                <img src=""images/causal/causal_series_10/causal_series_10_a.jpg"" style=""width: 300px; height: 300px;"" />
              </div>","null",""
"","","","","","html-button-response","60","171846","0.0-42.0","279DAA3D45EF4037903C41B2B5AE8090","f4247b07-5c8b-4f65-ba80-99a460f606c2","23db58b9-63b0-4bce-8714-07ce439e665e","","822","
    <div style=""display: flex; justify-content: center; align-items: center;"">
      <img src=""images/red_deck_2.png"" style=""width: 300px; height: 300px; margin-right: 10px;"" />
      <img src=""images/blue_deck_1.png"" style=""width: 300px; height: 300px;"" />
    </div>","0","0"
"","","","","","html-keyboard-response","61","174857","0.0-43.0-0.0-0.0","279DAA3D45EF4037903C41B2B5AE8090","f4247b07-5c8b-4f65-ba80-99a460f606c2","23db58b9-63b0-4bce-8714-07ce439e665e","","null","<div style=""display: flex; justify-content: center; align-items: center;"">
                <img src=""images/causal/causal_series_10/causal_series_10_b.jpg"" style=""width: 300px; height: 300px;"" />
              </div>","null",""
"","","","","","html-keyboard-response","62","177871","0.0-43.0-0.0-1.0","279DAA3D45EF4037903C41B2B5AE8090","f4247b07-5c8b-4f65-ba80-99a460f606c2","23db58b9-63b0-4bce-8714-07ce439e665e","","null","<div style=""display: flex; justify-content: center; align-items: center;"">
                <img src=""images/causal/causal_series_10/causal_series_10_c.jpg"" style=""width: 300px; height: 300px;"" />
              </div>","null",""
"","","","","","html-keyboard-response","63","180876","0.0-43.0-0.0-2.0","279DAA3D45EF4037903C41B2B5AE8090","f4247b07-5c8b-4f65-ba80-99a460f606c2","23db58b9-63b0-4bce-8714-07ce439e665e","","null","<div style=""display: flex; justify-content: center; align-items: center;"">
                <img src=""images/causal/causal_series_10/causal_series_10_d.jpg"" style=""width: 300px; height: 300px;"" />
              </div>","null",""
"","","","","","html-keyboard-response","64","183880","0.0-44.0","279DAA3D45EF4037903C41B2B5AE8090","f4247b07-5c8b-4f65-ba80-99a460f606c2","23db58b9-63b0-4bce-8714-07ce439e665e","","null","<div style=""display: flex; justify-content: center; align-items: center;"">
                <img src=""images/other/blank.jpg"" style=""width: 300px; height: 300px;"" />
              </div>","null",""
"","","","","","html-keyboard-response","65","186881","0.0-45.0","279DAA3D45EF4037903C41B2B5AE8090","f4247b07-5c8b-4f65-ba80-99a460f606c2","23db58b9-63b0-4bce-8714-07ce439e665e","","null","<div style=""display: flex; justify-content: center; align-items: center;"">
                <img src=""images/causal/causal_series_7/causal_series_7_a.jpg"" style=""width: 300px; height: 300px;"" />
              </div>","null",""
"","","","","","html-button-response","66","187346","0.0-46.0","279DAA3D45EF4037903C41B2B5AE8090","f4247b07-5c8b-4f65-ba80-99a460f606c2","23db58b9-63b0-4bce-8714-07ce439e665e","","465","
    <div style=""display: flex; justify-content: center; align-items: center;"">
      <img src=""images/red_deck_2.png"" style=""width: 300px; height: 300px; margin-right: 10px;"" />
      <img src=""images/blue_deck_1.png"" style=""width: 300px; height: 300px;"" />
    </div>","0","0"
"","","","","","html-keyboard-response","67","190357","0.0-47.0-0.0-0.0","279DAA3D45EF4037903C41B2B5AE8090","f4247b07-5c8b-4f65-ba80-99a460f606c2","23db58b9-63b0-4bce-8714-07ce439e665e","","null","<div style=""display: flex; justify-content: center; align-items: center;"">
                <img src=""images/causal/causal_series_7/causal_series_7_b.jpg"" style=""width: 300px; height: 300px;"" />
              </div>","null",""
"","","","","","html-keyboard-response","68","193372","0.0-47.0-0.0-1.0","279DAA3D45EF4037903C41B2B5AE8090","f4247b07-5c8b-4f65-ba80-99a460f606c2","23db58b9-63b0-4bce-8714-07ce439e665e","","null","<div style=""display: flex; justify-content: center; align-items: center;"">
                <img src=""images/causal/causal_series_7/causal_series_7_c.jpg"" style=""width: 300px; height: 300px;"" />
              </div>","null",""
"","","","","","html-keyboard-response","69","196373","0.0-47.0-0.0-2.0","279DAA3D45EF4037903C41B2B5AE8090","f4247b07-5c8b-4f65-ba80-99a460f606c2","23db58b9-63b0-4bce-8714-07ce439e665e","","null","<div style=""display: flex; justify-content: center; align-items: center;"">
                <img src=""images/causal/causal_series_7/causal_series_7_d.jpg"" style=""width: 300px; height: 300px;"" />
              </div>","null",""
"","","","","","html-keyboard-response","70","199385","0.0-48.0","279DAA3D45EF4037903C41B2B5AE8090","f4247b07-5c8b-4f65-ba80-99a460f606c2","23db58b9-63b0-4bce-8714-07ce439e665e","","null","<div style=""display: flex; justify-content: center; align-items: center;"">
                <img src=""images/other/blank.jpg"" style=""width: 300px; height: 300px;"" />
              </div>","null",""
"","","","","","html-keyboard-response","71","202395","0.0-49.0","279DAA3D45EF4037903C41B2B5AE8090","f4247b07-5c8b-4f65-ba80-99a460f606c2","23db58b9-63b0-4bce-8714-07ce439e665e","","null","<div style=""display: flex; justify-content: center; align-items: center;"">
                <img src=""images/causal/causal_series_2/causal_series_2_a.jpg"" style=""width: 300px; height: 300px;"" />
              </div>","null",""
"","","","","","html-button-response","72","203241","0.0-50.0","279DAA3D45EF4037903C41B2B5AE8090","f4247b07-5c8b-4f65-ba80-99a460f606c2","23db58b9-63b0-4bce-8714-07ce439e665e","","847","
    <div style=""display: flex; justify-content: center; align-items: center;"">
      <img src=""images/red_deck_2.png"" style=""width: 300px; height: 300px; margin-right: 10px;"" />
      <img src=""images/blue_deck_1.png"" style=""width: 300px; height: 300px;"" />
    </div>","1","1"
"","","","","","html-keyboard-response","73","206242","0.0-51.0-1.0-0.0","279DAA3D45EF4037903C41B2B5AE8090","f4247b07-5c8b-4f65-ba80-99a460f606c2","23db58b9-63b0-4bce-8714-07ce439e665e","","null","<div style=""display: flex; justify-content: center; align-items: center;"">
                <img src=""images/semantic/semantic_series_3/semantic_series_3_d.jpg"" style=""width: 300px; height: 300px;"" />
              </div>","null",""
"","","","","","html-keyboard-response","74","209257","0.0-51.0-1.0-1.0","279DAA3D45EF4037903C41B2B5AE8090","f4247b07-5c8b-4f65-ba80-99a460f606c2","23db58b9-63b0-4bce-8714-07ce439e665e","","null","<div style=""display: flex; justify-content: center; align-items: center;"">
                <img src=""images/semantic/semantic_series_4/semantic_series_4_d.jpg"" style=""width: 300px; height: 300px;"" />
              </div>","null",""
"","","","","","html-keyboard-response","75","212270","0.0-51.0-1.0-2.0","279DAA3D45EF4037903C41B2B5AE8090","f4247b07-5c8b-4f65-ba80-99a460f606c2","23db58b9-63b0-4bce-8714-07ce439e665e","","null","<div style=""display: flex; justify-content: center; align-items: center;"">
                <img src=""images/semantic/semantic_series_5/semantic_series_5_d.jpg"" style=""width: 300px; height: 300px;"" />
              </div>","null",""
"","","","","","html-keyboard-response","76","215284","0.0-52.0","279DAA3D45EF4037903C41B2B5AE8090","f4247b07-5c8b-4f65-ba80-99a460f606c2","23db58b9-63b0-4bce-8714-07ce439e665e","","null","<div style=""display: flex; justify-content: center; align-items: center;"">
                <img src=""images/other/blank.jpg"" style=""width: 300px; height: 300px;"" />
              </div>","null",""
"","","","","","html-keyboard-response","77","218291","0.0-53.0","279DAA3D45EF4037903C41B2B5AE8090","f4247b07-5c8b-4f65-ba80-99a460f606c2","23db58b9-63b0-4bce-8714-07ce439e665e","","null","<div style=""display: flex; justify-content: center; align-items: center;"">
                <img src=""images/causal/causal_series_14/causal_series_14_a.jpg"" style=""width: 300px; height: 300px;"" />
              </div>","null",""
"","","","","","html-button-response","78","219215","0.0-54.0","279DAA3D45EF4037903C41B2B5AE8090","f4247b07-5c8b-4f65-ba80-99a460f606c2","23db58b9-63b0-4bce-8714-07ce439e665e","","924","
    <div style=""display: flex; justify-content: center; align-items: center;"">
      <img src=""images/red_deck_2.png"" style=""width: 300px; height: 300px; margin-right: 10px;"" />
      <img src=""images/blue_deck_1.png"" style=""width: 300px; height: 300px;"" />
    </div>","1","1"
"","","","","","html-keyboard-response","79","222230","0.0-55.0-1.0-0.0","279DAA3D45EF4037903C41B2B5AE8090","f4247b07-5c8b-4f65-ba80-99a460f606c2","23db58b9-63b0-4bce-8714-07ce439e665e","","null","<div style=""display: flex; justify-content: center; align-items: center;"">
                <img src=""images/semantic/semantic_series_3/semantic_series_3_d.jpg"" style=""width: 300px; height: 300px;"" />
              </div>","null",""
"","","","","","html-keyboard-response","80","225241","0.0-55.0-1.0-1.0","279DAA3D45EF4037903C41B2B5AE8090","f4247b07-5c8b-4f65-ba80-99a460f606c2","23db58b9-63b0-4bce-8714-07ce439e665e","","null","<div style=""display: flex; justify-content: center; align-items: center;"">
                <img src=""images/semantic/semantic_series_4/semantic_series_4_d.jpg"" style=""width: 300px; height: 300px;"" />
              </div>","null",""
"","","","","","html-keyboard-response","81","228244","0.0-55.0-1.0-2.0","279DAA3D45EF4037903C41B2B5AE8090","f4247b07-5c8b-4f65-ba80-99a460f606c2","23db58b9-63b0-4bce-8714-07ce439e665e","","null","<div style=""display: flex; justify-content: center; align-items: center;"">
                <img src=""images/semantic/semantic_series_5/semantic_series_5_d.jpg"" style=""width: 300px; height: 300px;"" />
              </div>","null",""
"","","","","","html-keyboard-response","82","231249","0.0-56.0","279DAA3D45EF4037903C41B2B5AE8090","f4247b07-5c8b-4f65-ba80-99a460f606c2","23db58b9-63b0-4bce-8714-07ce439e665e","","null","<div style=""display: flex; justify-content: center; align-items: center;"">
                <img src=""images/other/blank.jpg"" style=""width: 300px; height: 300px;"" />
              </div>","null",""
"","","","","","html-keyboard-response","83","234264","0.0-57.0","279DAA3D45EF4037903C41B2B5AE8090","f4247b07-5c8b-4f65-ba80-99a460f606c2","23db58b9-63b0-4bce-8714-07ce439e665e","","null","<div style=""display: flex; justify-content: center; align-items: center;"">
                <img src=""images/causal/causal_series_15/causal_series_15_a.jpg"" style=""width: 300px; height: 300px;"" />
              </div>","null",""
"","","","","","html-button-response","84","234959","0.0-58.0","279DAA3D45EF4037903C41B2B5AE8090","f4247b07-5c8b-4f65-ba80-99a460f606c2","23db58b9-63b0-4bce-8714-07ce439e665e","","695","
    <div style=""display: flex; justify-content: center; align-items: center;"">
      <img src=""images/red_deck_2.png"" style=""width: 300px; height: 300px; margin-right: 10px;"" />
      <img src=""images/blue_deck_1.png"" style=""width: 300px; height: 300px;"" />
    </div>","0","0"
"","","","","","html-keyboard-response","85","237971","0.0-59.0-0.0-0.0","279DAA3D45EF4037903C41B2B5AE8090","f4247b07-5c8b-4f65-ba80-99a460f606c2","23db58b9-63b0-4bce-8714-07ce439e665e","","null","<div style=""display: flex; justify-content: center; align-items: center;"">
                <img src=""images/causal/causal_series_15/causal_series_15_b.jpg"" style=""width: 300px; height: 300px;"" />
              </div>","null",""
"","","","","","html-keyboard-response","86","240980","0.0-59.0-0.0-1.0","279DAA3D45EF4037903C41B2B5AE8090","f4247b07-5c8b-4f65-ba80-99a460f606c2","23db58b9-63b0-4bce-8714-07ce439e665e","","null","<div style=""display: flex; justify-content: center; align-items: center;"">
                <img src=""images/causal/causal_series_15/causal_series_15_c.jpg"" style=""width: 300px; height: 300px;"" />
              </div>","null",""
"","","","","","html-keyboard-response","87","243991","0.0-59.0-0.0-2.0","279DAA3D45EF4037903C41B2B5AE8090","f4247b07-5c8b-4f65-ba80-99a460f606c2","23db58b9-63b0-4bce-8714-07ce439e665e","","null","<div style=""display: flex; justify-content: center; align-items: center;"">
                <img src=""images/causal/causal_series_15/causal_series_15_d.jpg"" style=""width: 300px; height: 300px;"" />
              </div>","null",""
"","","","","","html-keyboard-response","88","247006","0.0-60.0","279DAA3D45EF4037903C41B2B5AE8090","f4247b07-5c8b-4f65-ba80-99a460f606c2","23db58b9-63b0-4bce-8714-07ce439e665e","","null","<div style=""display: flex; justify-content: center; align-items: center;"">
                <img src=""images/other/blank.jpg"" style=""width: 300px; height: 300px;"" />
              </div>","null",""
"","","","","","html-keyboard-response","89","250011","0.0-61.0","279DAA3D45EF4037903C41B2B5AE8090","f4247b07-5c8b-4f65-ba80-99a460f606c2","23db58b9-63b0-4bce-8714-07ce439e665e","","null","<div style=""display: flex; justify-content: center; align-items: center;"">
                <img src=""images/causal/causal_series_5/causal_series_5_a.jpg"" style=""width: 300px; height: 300px;"" />
              </div>","null",""
"","","","","","html-button-response","90","251689","0.0-62.0","279DAA3D45EF4037903C41B2B5AE8090","f4247b07-5c8b-4f65-ba80-99a460f606c2","23db58b9-63b0-4bce-8714-07ce439e665e","","1676","
    <div style=""display: flex; justify-content: center; align-items: center;"">
      <img src=""images/red_deck_2.png"" style=""width: 300px; height: 300px; margin-right: 10px;"" />
      <img src=""images/blue_deck_1.png"" style=""width: 300px; height: 300px;"" />
    </div>","0","0"
"","","","","","html-keyboard-response","91","254693","0.0-63.0-0.0-0.0","279DAA3D45EF4037903C41B2B5AE8090","f4247b07-5c8b-4f65-ba80-99a460f606c2","23db58b9-63b0-4bce-8714-07ce439e665e","","null","<div style=""display: flex; justify-content: center; align-items: center;"">
                <img src=""images/causal/causal_series_5/causal_series_5_b.jpg"" style=""width: 300px; height: 300px;"" />
              </div>","null",""
"","","","","","html-keyboard-response","92","257703","0.0-63.0-0.0-1.0","279DAA3D45EF4037903C41B2B5AE8090","f4247b07-5c8b-4f65-ba80-99a460f606c2","23db58b9-63b0-4bce-8714-07ce439e665e","","null","<div style=""display: flex; justify-content: center; align-items: center;"">
                <img src=""images/causal/causal_series_5/causal_series_5_c.jpg"" style=""width: 300px; height: 300px;"" />
              </div>","null",""
"","","","","","html-keyboard-response","93","260707","0.0-63.0-0.0-2.0","279DAA3D45EF4037903C41B2B5AE8090","f4247b07-5c8b-4f65-ba80-99a460f606c2","23db58b9-63b0-4bce-8714-07ce439e665e","","null","<div style=""display: flex; justify-content: center; align-items: center;"">
                <img src=""images/causal/causal_series_5/causal_series_5_d.jpg"" style=""width: 300px; height: 300px;"" />
              </div>","null",""
"","","","","","html-keyboard-response","94","263722","0.0-64.0","279DAA3D45EF4037903C41B2B5AE8090","f4247b07-5c8b-4f65-ba80-99a460f606c2","23db58b9-63b0-4bce-8714-07ce439e665e","","null","<div style=""display: flex; justify-content: center; align-items: center;"">
                <img src=""images/other/blank.jpg"" style=""width: 300px; height: 300px;"" />
              </div>","null",""
"","","","","","html-keyboard-response","95","266734","0.0-65.0","279DAA3D45EF4037903C41B2B5AE8090","f4247b07-5c8b-4f65-ba80-99a460f606c2","23db58b9-63b0-4bce-8714-07ce439e665e","","null","<div style=""display: flex; justify-content: center; align-items: center;"">
                <img src=""images/causal/causal_series_11/causal_series_11_a.jpg"" style=""width: 300px; height: 300px;"" />
              </div>","null",""
"","","","","","html-button-response","96","267410","0.0-66.0","279DAA3D45EF4037903C41B2B5AE8090","f4247b07-5c8b-4f65-ba80-99a460f606c2","23db58b9-63b0-4bce-8714-07ce439e665e","","675","
    <div style=""display: flex; justify-content: center; align-items: center;"">
      <img src=""images/red_deck_2.png"" style=""width: 300px; height: 300px; margin-right: 10px;"" />
      <img src=""images/blue_deck_1.png"" style=""width: 300px; height: 300px;"" />
    </div>","1","1"
"","","","","","html-keyboard-response","97","270425","0.0-67.0-1.0-0.0","279DAA3D45EF4037903C41B2B5AE8090","f4247b07-5c8b-4f65-ba80-99a460f606c2","23db58b9-63b0-4bce-8714-07ce439e665e","","null","<div style=""display: flex; justify-content: center; align-items: center;"">
                <img src=""images/semantic/semantic_series_12/semantic_series_12_d.jpg"" style=""width: 300px; height: 300px;"" />
              </div>","null",""
"","","","","","html-keyboard-response","98","273432","0.0-67.0-1.0-1.0","279DAA3D45EF4037903C41B2B5AE8090","f4247b07-5c8b-4f65-ba80-99a460f606c2","23db58b9-63b0-4bce-8714-07ce439e665e","","null","<div style=""display: flex; justify-content: center; align-items: center;"">
                <img src=""images/semantic/semantic_series_13/semantic_series_13_d.jpg"" style=""width: 300px; height: 300px;"" />
              </div>","null",""
"","","","","","html-keyboard-response","99","276446","0.0-67.0-1.0-2.0","279DAA3D45EF4037903C41B2B5AE8090","f4247b07-5c8b-4f65-ba80-99a460f606c2","23db58b9-63b0-4bce-8714-07ce439e665e","","null","<div style=""display: flex; justify-content: center; align-items: center;"">
                <img src=""images/semantic/semantic_series_14/semantic_series_14_d.jpg"" style=""width: 300px; height: 300px;"" />
              </div>","null",""
"","","","","","html-keyboard-response","100","279455","0.0-68.0","279DAA3D45EF4037903C41B2B5AE8090","f4247b07-5c8b-4f65-ba80-99a460f606c2","23db58b9-63b0-4bce-8714-07ce439e665e","","null","<div style=""display: flex; justify-content: center; align-items: center;"">
                <img src=""images/other/blank.jpg"" style=""width: 300px; height: 300px;"" />
              </div>","null",""
"","","","","","html-keyboard-response","101","282461","0.0-69.0","279DAA3D45EF4037903C41B2B5AE8090","f4247b07-5c8b-4f65-ba80-99a460f606c2","23db58b9-63b0-4bce-8714-07ce439e665e","","null","<div style=""display: flex; justify-content: center; align-items: center;"">
                <img src=""images/causal/causal_series_9/causal_series_9_a.jpg"" style=""width: 300px; height: 300px;"" />
              </div>","null",""
"","","","","","html-button-response","102","283224","0.0-70.0","279DAA3D45EF4037903C41B2B5AE8090","f4247b07-5c8b-4f65-ba80-99a460f606c2","23db58b9-63b0-4bce-8714-07ce439e665e","","764","
    <div style=""display: flex; justify-content: center; align-items: center;"">
      <img src=""images/red_deck_2.png"" style=""width: 300px; height: 300px; margin-right: 10px;"" />
      <img src=""images/blue_deck_1.png"" style=""width: 300px; height: 300px;"" />
    </div>","0","0"
"","","","","","html-keyboard-response","103","286232","0.0-71.0-0.0-0.0","279DAA3D45EF4037903C41B2B5AE8090","f4247b07-5c8b-4f65-ba80-99a460f606c2","23db58b9-63b0-4bce-8714-07ce439e665e","","null","<div style=""display: flex; justify-content: center; align-items: center;"">
                <img src=""images/causal/causal_series_9/causal_series_9_b.jpg"" style=""width: 300px; height: 300px;"" />
              </div>","null",""
"","","","","","html-keyboard-response","104","289239","0.0-71.0-0.0-1.0","279DAA3D45EF4037903C41B2B5AE8090","f4247b07-5c8b-4f65-ba80-99a460f606c2","23db58b9-63b0-4bce-8714-07ce439e665e","","null","<div style=""display: flex; justify-content: center; align-items: center;"">
                <img src=""images/causal/causal_series_9/causal_series_9_c.jpg"" style=""width: 300px; height: 300px;"" />
              </div>","null",""
"","","","","","html-keyboard-response","105","292250","0.0-71.0-0.0-2.0","279DAA3D45EF4037903C41B2B5AE8090","f4247b07-5c8b-4f65-ba80-99a460f606c2","23db58b9-63b0-4bce-8714-07ce439e665e","","null","<div style=""display: flex; justify-content: center; align-items: center;"">
                <img src=""images/causal/causal_series_9/causal_series_9_d.jpg"" style=""width: 300px; height: 300px;"" />
              </div>","null",""
"","","","","","html-keyboard-response","106","295251","0.0-72.0","279DAA3D45EF4037903C41B2B5AE8090","f4247b07-5c8b-4f65-ba80-99a460f606c2","23db58b9-63b0-4bce-8714-07ce439e665e","","null","<div style=""display: flex; justify-content: center; align-items: center;"">
                <img src=""images/other/blank.jpg"" style=""width: 300px; height: 300px;"" />
              </div>","null",""
"","","","","","html-keyboard-response","107","298258","0.0-73.0","279DAA3D45EF4037903C41B2B5AE8090","f4247b07-5c8b-4f65-ba80-99a460f606c2","23db58b9-63b0-4bce-8714-07ce439e665e","","null","<div style=""display: flex; justify-content: center; align-items: center;"">
                <img src=""images/causal/causal_series_12/causal_series_12_a.jpg"" style=""width: 300px; height: 300px;"" />
              </div>","null",""
"","","","","","html-button-response","108","299043","0.0-74.0","279DAA3D45EF4037903C41B2B5AE8090","f4247b07-5c8b-4f65-ba80-99a460f606c2","23db58b9-63b0-4bce-8714-07ce439e665e","","784","
    <div style=""display: flex; justify-content: center; align-items: center;"">
      <img src=""images/red_deck_2.png"" style=""width: 300px; height: 300px; margin-right: 10px;"" />
      <img src=""images/blue_deck_1.png"" style=""width: 300px; height: 300px;"" />
    </div>","0","0"
"","","","","","html-keyboard-response","109","302053","0.0-75.0-0.0-0.0","279DAA3D45EF4037903C41B2B5AE8090","f4247b07-5c8b-4f65-ba80-99a460f606c2","23db58b9-63b0-4bce-8714-07ce439e665e","","null","<div style=""display: flex; justify-content: center; align-items: center;"">
                <img src=""images/causal/causal_series_12/causal_series_12_b.jpg"" style=""width: 300px; height: 300px;"" />
              </div>","null",""
"","","","","","html-keyboard-response","110","305068","0.0-75.0-0.0-1.0","279DAA3D45EF4037903C41B2B5AE8090","f4247b07-5c8b-4f65-ba80-99a460f606c2","23db58b9-63b0-4bce-8714-07ce439e665e","","null","<div style=""display: flex; justify-content: center; align-items: center;"">
                <img src=""images/causal/causal_series_12/causal_series_12_c.jpg"" style=""width: 300px; height: 300px;"" />
              </div>","null",""
"","","","","","html-keyboard-response","111","308073","0.0-75.0-0.0-2.0","279DAA3D45EF4037903C41B2B5AE8090","f4247b07-5c8b-4f65-ba80-99a460f606c2","23db58b9-63b0-4bce-8714-07ce439e665e","","null","<div style=""display: flex; justify-content: center; align-items: center;"">
                <img src=""images/causal/causal_series_12/causal_series_12_d.jpg"" style=""width: 300px; height: 300px;"" />
              </div>","null",""
"","","","","","html-keyboard-response","112","311083","0.0-76.0","279DAA3D45EF4037903C41B2B5AE8090","f4247b07-5c8b-4f65-ba80-99a460f606c2","23db58b9-63b0-4bce-8714-07ce439e665e","","null","<div style=""display: flex; justify-content: center; align-items: center;"">
                <img src=""images/other/blank.jpg"" style=""width: 300px; height: 300px;"" />
              </div>","null",""
"","","","","","survey-text","113","406918","0.0-77.0","279DAA3D45EF4037903C41B2B5AE8090","f4247b07-5c8b-4f65-ba80-99a460f606c2","23db58b9-63b0-4bce-8714-07ce439e665e","","95811","","{""Q0"":""The red deck would continue the story of a cartoon if a cartoon image was the last one shown before it.  The blue deck was more random, and I used it to get more cartoon images if the last image shown was AI art.""}",""
"","","","","","survey-text","114","413576","0.0-78.0","279DAA3D45EF4037903C41B2B5AE8090","f4247b07-5c8b-4f65-ba80-99a460f606c2","23db58b9-63b0-4bce-8714-07ce439e665e","","6654","","{""Q0"":""red""}",""
"","","","","","html-button-response","115","427095","0.0-79.0","279DAA3D45EF4037903C41B2B5AE8090","f4247b07-5c8b-4f65-ba80-99a460f606c2","23db58b9-63b0-4bce-8714-07ce439e665e","","13519","Which color deck does the fourth image continue the story from the series?","1",""
"","","","","","html-button-response","116","433324","0.0-80.0","279DAA3D45EF4037903C41B2B5AE8090","f4247b07-5c8b-4f65-ba80-99a460f606c2","23db58b9-63b0-4bce-8714-07ce439e665e","","6228","Which color deck does the fourth image not follow the story from the series?","0",""
"","","","","","survey-text","117","437343","0.0-81.0","279DAA3D45EF4037903C41B2B5AE8090","f4247b07-5c8b-4f65-ba80-99a460f606c2","23db58b9-63b0-4bce-8714-07ce439e665e","","4012","","{""Q0"":""Male"",""Q1"":""34""}",""
"","","","","","instructions","118","443861","0.0-82.0","279DAA3D45EF4037903C41B2B5AE8090","f4247b07-5c8b-4f65-ba80-99a460f606c2","23db58b9-63b0-4bce-8714-07ce439e665e","[{""page_index"":0,""viewing_time"":6516}]","6517","","",""
