"success","timeout","failed_images","failed_audio","failed_video","trial_type","trial_index","time_elapsed","internal_node_id","subject_id","study_id","session_id","view_history","rt","stimulus","response","choice"
"true","false","[]","[]","[]","preload","0","6971","0.0-0.0","C0972E6BC62B41DA9EDF4FCAEC85B11F","6b05b527-7369-4ba0-b0e4-7b928764d0a3","61e1ec61-13c7-4a8f-bf47-a91ec9909364","","","","",""
"","","","","","instructions","1","11602","0.0-1.0","C0972E6BC62B41DA9EDF4FCAEC85B11F","6b05b527-7369-4ba0-b0e4-7b928764d0a3","61e1ec61-13c7-4a8f-bf47-a91ec9909364","[{""page_index"":0,""viewing_time"":4631}]","4631","","",""
"","","","","","instructions","2","14182","0.0-2.0","C0972E6BC62B41DA9EDF4FCAEC85B11F","6b05b527-7369-4ba0-b0e4-7b928764d0a3","61e1ec61-13c7-4a8f-bf47-a91ec9909364","[{""page_index"":0,""viewing_time"":2580}]","2580","","",""
"true","","","","","fullscreen","3","16533","0.0-3.0","C0972E6BC62B41DA9EDF4FCAEC85B11F","6b05b527-7369-4ba0-b0e4-7b928764d0a3","61e1ec61-13c7-4a8f-bf47-a91ec9909364","","1350","","",""
"","","","","","instructions","4","40932","0.0-4.0","C0972E6BC62B41DA9EDF4FCAEC85B11F","6b05b527-7369-4ba0-b0e4-7b928764d0a3","61e1ec61-13c7-4a8f-bf47-a91ec9909364","[{""page_index"":0,""viewing_time"":24398}]","24399","","",""
"","","","","","html-keyboard-response","5","43933","0.0-5.0","C0972E6BC62B41DA9EDF4FCAEC85B11F","6b05b527-7369-4ba0-b0e4-7b928764d0a3","61e1ec61-13c7-4a8f-bf47-a91ec9909364","","null","<div style=""display: flex; justify-content: center; align-items: center;"">
                <img src=""images/causal/causal_series_7/causal_series_7_a.jpg"" style=""width: 300px; height: 300px;"" />
              </div>","null",""
"","","","","","html-keyboard-response","6","46946","0.0-6.0","C0972E6BC62B41DA9EDF4FCAEC85B11F","6b05b527-7369-4ba0-b0e4-7b928764d0a3","61e1ec61-13c7-4a8f-bf47-a91ec9909364","","null","<div style=""display: flex; justify-content: center; align-items: center;"">
                <img src=""images/causal/causal_series_7/causal_series_7_b.jpg"" style=""width: 300px; height: 300px;"" />
              </div>","null",""
"","","","","","html-keyboard-response","7","49950","0.0-7.0","C0972E6BC62B41DA9EDF4FCAEC85B11F","6b05b527-7369-4ba0-b0e4-7b928764d0a3","61e1ec61-13c7-4a8f-bf47-a91ec9909364","","null","<div style=""display: flex; justify-content: center; align-items: center;"">
                <img src=""images/causal/causal_series_7/causal_series_7_c.jpg"" style=""width: 300px; height: 300px;"" />
              </div>","null",""
"","","","","","html-button-response","8","53212","0.0-8.0","C0972E6BC62B41DA9EDF4FCAEC85B11F","6b05b527-7369-4ba0-b0e4-7b928764d0a3","61e1ec61-13c7-4a8f-bf47-a91ec9909364","","3261","
    <div style=""display: flex; justify-content: center; align-items: center;"">
      <img src=""images/red_deck_2.png"" style=""width: 300px; height: 300px; margin-right: 10px;"" />
      <img src=""images/blue_deck_1.png"" style=""width: 300px; height: 300px;"" />
    </div>","1","1"
"","","","","","html-keyboard-response","9","56222","0.0-9.0-1.0-0.0","C0972E6BC62B41DA9EDF4FCAEC85B11F","6b05b527-7369-4ba0-b0e4-7b928764d0a3","61e1ec61-13c7-4a8f-bf47-a91ec9909364","","null","<div style=""display: flex; justify-content: center; align-items: center;"">
                <img src=""images/semantic/semantic_series_6/semantic_series_6_d.jpg"" style=""width: 300px; height: 300px;"" />
              </div>","null",""
"","","","","","html-keyboard-response","10","59226","0.0-10.0","C0972E6BC62B41DA9EDF4FCAEC85B11F","6b05b527-7369-4ba0-b0e4-7b928764d0a3","61e1ec61-13c7-4a8f-bf47-a91ec9909364","","null","<div style=""display: flex; justify-content: center; align-items: center;"">
                <img src=""images/other/blank.jpg"" style=""width: 300px; height: 300px;"" />
              </div>","null",""
"","","","","","html-keyboard-response","11","62230","0.0-11.0","C0972E6BC62B41DA9EDF4FCAEC85B11F","6b05b527-7369-4ba0-b0e4-7b928764d0a3","61e1ec61-13c7-4a8f-bf47-a91ec9909364","","null","<div style=""display: flex; justify-content: center; align-items: center;"">
                <img src=""images/causal/causal_series_15/causal_series_15_a.jpg"" style=""width: 300px; height: 300px;"" />
              </div>","null",""
"","","","","","html-keyboard-response","12","65234","0.0-12.0","C0972E6BC62B41DA9EDF4FCAEC85B11F","6b05b527-7369-4ba0-b0e4-7b928764d0a3","61e1ec61-13c7-4a8f-bf47-a91ec9909364","","null","<div style=""display: flex; justify-content: center; align-items: center;"">
                <img src=""images/causal/causal_series_15/causal_series_15_b.jpg"" style=""width: 300px; height: 300px;"" />
              </div>","null",""
"","","","","","html-keyboard-response","13","68248","0.0-13.0","C0972E6BC62B41DA9EDF4FCAEC85B11F","6b05b527-7369-4ba0-b0e4-7b928764d0a3","61e1ec61-13c7-4a8f-bf47-a91ec9909364","","null","<div style=""display: flex; justify-content: center; align-items: center;"">
                <img src=""images/causal/causal_series_15/causal_series_15_c.jpg"" style=""width: 300px; height: 300px;"" />
              </div>","null",""
"","","","","","html-button-response","14","69441","0.0-14.0","C0972E6BC62B41DA9EDF4FCAEC85B11F","6b05b527-7369-4ba0-b0e4-7b928764d0a3","61e1ec61-13c7-4a8f-bf47-a91ec9909364","","1192","
    <div style=""display: flex; justify-content: center; align-items: center;"">
      <img src=""images/red_deck_2.png"" style=""width: 300px; height: 300px; margin-right: 10px;"" />
      <img src=""images/blue_deck_1.png"" style=""width: 300px; height: 300px;"" />
    </div>","0","0"
"","","","","","html-keyboard-response","15","72442","0.0-15.0-0.0-0.0","C0972E6BC62B41DA9EDF4FCAEC85B11F","6b05b527-7369-4ba0-b0e4-7b928764d0a3","61e1ec61-13c7-4a8f-bf47-a91ec9909364","","null","<div style=""display: flex; justify-content: center; align-items: center;"">
                <img src=""images/causal/causal_series_15/causal_series_15_d.jpg"" style=""width: 300px; height: 300px;"" />
              </div>","null",""
"","","","","","html-keyboard-response","16","75458","0.0-16.0","C0972E6BC62B41DA9EDF4FCAEC85B11F","6b05b527-7369-4ba0-b0e4-7b928764d0a3","61e1ec61-13c7-4a8f-bf47-a91ec9909364","","null","<div style=""display: flex; justify-content: center; align-items: center;"">
                <img src=""images/other/blank.jpg"" style=""width: 300px; height: 300px;"" />
              </div>","null",""
"","","","","","html-keyboard-response","17","78463","0.0-17.0","C0972E6BC62B41DA9EDF4FCAEC85B11F","6b05b527-7369-4ba0-b0e4-7b928764d0a3","61e1ec61-13c7-4a8f-bf47-a91ec9909364","","null","<div style=""display: flex; justify-content: center; align-items: center;"">
                <img src=""images/causal/causal_series_9/causal_series_9_a.jpg"" style=""width: 300px; height: 300px;"" />
              </div>","null",""
"","","","","","html-keyboard-response","18","81473","0.0-18.0","C0972E6BC62B41DA9EDF4FCAEC85B11F","6b05b527-7369-4ba0-b0e4-7b928764d0a3","61e1ec61-13c7-4a8f-bf47-a91ec9909364","","null","<div style=""display: flex; justify-content: center; align-items: center;"">
                <img src=""images/causal/causal_series_9/causal_series_9_b.jpg"" style=""width: 300px; height: 300px;"" />
              </div>","null",""
"","","","","","html-keyboard-response","19","84483","0.0-19.0","C0972E6BC62B41DA9EDF4FCAEC85B11F","6b05b527-7369-4ba0-b0e4-7b928764d0a3","61e1ec61-13c7-4a8f-bf47-a91ec9909364","","null","<div style=""display: flex; justify-content: center; align-items: center;"">
                <img src=""images/causal/causal_series_9/causal_series_9_c.jpg"" style=""width: 300px; height: 300px;"" />
              </div>","null",""
"","","","","","html-button-response","20","85832","0.0-20.0","C0972E6BC62B41DA9EDF4FCAEC85B11F","6b05b527-7369-4ba0-b0e4-7b928764d0a3","61e1ec61-13c7-4a8f-bf47-a91ec9909364","","1348","
    <div style=""display: flex; justify-content: center; align-items: center;"">
      <img src=""images/red_deck_2.png"" style=""width: 300px; height: 300px; margin-right: 10px;"" />
      <img src=""images/blue_deck_1.png"" style=""width: 300px; height: 300px;"" />
    </div>","0","0"
"","","","","","html-keyboard-response","21","88834","0.0-21.0-0.0-0.0","C0972E6BC62B41DA9EDF4FCAEC85B11F","6b05b527-7369-4ba0-b0e4-7b928764d0a3","61e1ec61-13c7-4a8f-bf47-a91ec9909364","","null","<div style=""display: flex; justify-content: center; align-items: center;"">
                <img src=""images/causal/causal_series_9/causal_series_9_d.jpg"" style=""width: 300px; height: 300px;"" />
              </div>","null",""
"","","","","","html-keyboard-response","22","91838","0.0-22.0","C0972E6BC62B41DA9EDF4FCAEC85B11F","6b05b527-7369-4ba0-b0e4-7b928764d0a3","61e1ec61-13c7-4a8f-bf47-a91ec9909364","","null","<div style=""display: flex; justify-content: center; align-items: center;"">
                <img src=""images/other/blank.jpg"" style=""width: 300px; height: 300px;"" />
              </div>","null",""
"","","","","","html-keyboard-response","23","94846","0.0-23.0","C0972E6BC62B41DA9EDF4FCAEC85B11F","6b05b527-7369-4ba0-b0e4-7b928764d0a3","61e1ec61-13c7-4a8f-bf47-a91ec9909364","","null","<div style=""display: flex; justify-content: center; align-items: center;"">
                <img src=""images/causal/causal_series_16/causal_series_16_a.jpg"" style=""width: 300px; height: 300px;"" />
              </div>","null",""
"","","","","","html-keyboard-response","24","97854","0.0-24.0","C0972E6BC62B41DA9EDF4FCAEC85B11F","6b05b527-7369-4ba0-b0e4-7b928764d0a3","61e1ec61-13c7-4a8f-bf47-a91ec9909364","","null","<div style=""display: flex; justify-content: center; align-items: center;"">
                <img src=""images/causal/causal_series_16/causal_series_16_b.jpg"" style=""width: 300px; height: 300px;"" />
              </div>","null",""
"","","","","","html-keyboard-response","25","100859","0.0-25.0","C0972E6BC62B41DA9EDF4FCAEC85B11F","6b05b527-7369-4ba0-b0e4-7b928764d0a3","61e1ec61-13c7-4a8f-bf47-a91ec9909364","","null","<div style=""display: flex; justify-content: center; align-items: center;"">
                <img src=""images/causal/causal_series_16/causal_series_16_c.jpg"" style=""width: 300px; height: 300px;"" />
              </div>","null",""
"","","","","","html-button-response","26","101887","0.0-26.0","C0972E6BC62B41DA9EDF4FCAEC85B11F","6b05b527-7369-4ba0-b0e4-7b928764d0a3","61e1ec61-13c7-4a8f-bf47-a91ec9909364","","1028","
    <div style=""display: flex; justify-content: center; align-items: center;"">
      <img src=""images/red_deck_2.png"" style=""width: 300px; height: 300px; margin-right: 10px;"" />
      <img src=""images/blue_deck_1.png"" style=""width: 300px; height: 300px;"" />
    </div>","0","0"
"","","","","","html-keyboard-response","27","104891","0.0-27.0-0.0-0.0","C0972E6BC62B41DA9EDF4FCAEC85B11F","6b05b527-7369-4ba0-b0e4-7b928764d0a3","61e1ec61-13c7-4a8f-bf47-a91ec9909364","","null","<div style=""display: flex; justify-content: center; align-items: center;"">
                <img src=""images/causal/causal_series_16/causal_series_16_d.jpg"" style=""width: 300px; height: 300px;"" />
              </div>","null",""
"","","","","","html-keyboard-response","28","107898","0.0-28.0","C0972E6BC62B41DA9EDF4FCAEC85B11F","6b05b527-7369-4ba0-b0e4-7b928764d0a3","61e1ec61-13c7-4a8f-bf47-a91ec9909364","","null","<div style=""display: flex; justify-content: center; align-items: center;"">
                <img src=""images/other/blank.jpg"" style=""width: 300px; height: 300px;"" />
              </div>","null",""
"","","","","","html-keyboard-response","29","110906","0.0-29.0","C0972E6BC62B41DA9EDF4FCAEC85B11F","6b05b527-7369-4ba0-b0e4-7b928764d0a3","61e1ec61-13c7-4a8f-bf47-a91ec9909364","","null","<div style=""display: flex; justify-content: center; align-items: center;"">
                <img src=""images/causal/causal_series_4/causal_series_4_a.jpg"" style=""width: 300px; height: 300px;"" />
              </div>","null",""
"","","","","","html-keyboard-response","30","113911","0.0-30.0","C0972E6BC62B41DA9EDF4FCAEC85B11F","6b05b527-7369-4ba0-b0e4-7b928764d0a3","61e1ec61-13c7-4a8f-bf47-a91ec9909364","","null","<div style=""display: flex; justify-content: center; align-items: center;"">
                <img src=""images/causal/causal_series_4/causal_series_4_b.jpg"" style=""width: 300px; height: 300px;"" />
              </div>","null",""
"","","","","","html-keyboard-response","31","116924","0.0-31.0","C0972E6BC62B41DA9EDF4FCAEC85B11F","6b05b527-7369-4ba0-b0e4-7b928764d0a3","61e1ec61-13c7-4a8f-bf47-a91ec9909364","","null","<div style=""display: flex; justify-content: center; align-items: center;"">
                <img src=""images/causal/causal_series_4/causal_series_4_c.jpg"" style=""width: 300px; height: 300px;"" />
              </div>","null",""
"","","","","","html-button-response","32","117677","0.0-32.0","C0972E6BC62B41DA9EDF4FCAEC85B11F","6b05b527-7369-4ba0-b0e4-7b928764d0a3","61e1ec61-13c7-4a8f-bf47-a91ec9909364","","752","
    <div style=""display: flex; justify-content: center; align-items: center;"">
      <img src=""images/red_deck_2.png"" style=""width: 300px; height: 300px; margin-right: 10px;"" />
      <img src=""images/blue_deck_1.png"" style=""width: 300px; height: 300px;"" />
    </div>","1","1"
"","","","","","html-keyboard-response","33","120694","0.0-33.0-1.0-0.0","C0972E6BC62B41DA9EDF4FCAEC85B11F","6b05b527-7369-4ba0-b0e4-7b928764d0a3","61e1ec61-13c7-4a8f-bf47-a91ec9909364","","null","<div style=""display: flex; justify-content: center; align-items: center;"">
                <img src=""images/semantic/semantic_series_3/semantic_series_3_d.jpg"" style=""width: 300px; height: 300px;"" />
              </div>","null",""
"","","","","","html-keyboard-response","34","123705","0.0-34.0","C0972E6BC62B41DA9EDF4FCAEC85B11F","6b05b527-7369-4ba0-b0e4-7b928764d0a3","61e1ec61-13c7-4a8f-bf47-a91ec9909364","","null","<div style=""display: flex; justify-content: center; align-items: center;"">
                <img src=""images/other/blank.jpg"" style=""width: 300px; height: 300px;"" />
              </div>","null",""
"","","","","","html-keyboard-response","35","126719","0.0-35.0","C0972E6BC62B41DA9EDF4FCAEC85B11F","6b05b527-7369-4ba0-b0e4-7b928764d0a3","61e1ec61-13c7-4a8f-bf47-a91ec9909364","","null","<div style=""display: flex; justify-content: center; align-items: center;"">
                <img src=""images/causal/causal_series_1/causal_series_1_a.jpg"" style=""width: 300px; height: 300px;"" />
              </div>","null",""
"","","","","","html-keyboard-response","36","129728","0.0-36.0","C0972E6BC62B41DA9EDF4FCAEC85B11F","6b05b527-7369-4ba0-b0e4-7b928764d0a3","61e1ec61-13c7-4a8f-bf47-a91ec9909364","","null","<div style=""display: flex; justify-content: center; align-items: center;"">
                <img src=""images/causal/causal_series_1/causal_series_1_b.jpg"" style=""width: 300px; height: 300px;"" />
              </div>","null",""
"","","","","","html-keyboard-response","37","132734","0.0-37.0","C0972E6BC62B41DA9EDF4FCAEC85B11F","6b05b527-7369-4ba0-b0e4-7b928764d0a3","61e1ec61-13c7-4a8f-bf47-a91ec9909364","","null","<div style=""display: flex; justify-content: center; align-items: center;"">
                <img src=""images/causal/causal_series_1/causal_series_1_c.jpg"" style=""width: 300px; height: 300px;"" />
              </div>","null",""
"","","","","","html-button-response","38","133911","0.0-38.0","C0972E6BC62B41DA9EDF4FCAEC85B11F","6b05b527-7369-4ba0-b0e4-7b928764d0a3","61e1ec61-13c7-4a8f-bf47-a91ec9909364","","1176","
    <div style=""display: flex; justify-content: center; align-items: center;"">
      <img src=""images/red_deck_2.png"" style=""width: 300px; height: 300px; margin-right: 10px;"" />
      <img src=""images/blue_deck_1.png"" style=""width: 300px; height: 300px;"" />
    </div>","1","1"
"","","","","","html-keyboard-response","39","136915","0.0-39.0-1.0-0.0","C0972E6BC62B41DA9EDF4FCAEC85B11F","6b05b527-7369-4ba0-b0e4-7b928764d0a3","61e1ec61-13c7-4a8f-bf47-a91ec9909364","","null","<div style=""display: flex; justify-content: center; align-items: center;"">
                <img src=""images/semantic/semantic_series_18/semantic_series_18_d.jpg"" style=""width: 300px; height: 300px;"" />
              </div>","null",""
"","","","","","html-keyboard-response","40","139924","0.0-40.0","C0972E6BC62B41DA9EDF4FCAEC85B11F","6b05b527-7369-4ba0-b0e4-7b928764d0a3","61e1ec61-13c7-4a8f-bf47-a91ec9909364","","null","<div style=""display: flex; justify-content: center; align-items: center;"">
                <img src=""images/other/blank.jpg"" style=""width: 300px; height: 300px;"" />
              </div>","null",""
"","","","","","html-keyboard-response","41","142934","0.0-41.0","C0972E6BC62B41DA9EDF4FCAEC85B11F","6b05b527-7369-4ba0-b0e4-7b928764d0a3","61e1ec61-13c7-4a8f-bf47-a91ec9909364","","null","<div style=""display: flex; justify-content: center; align-items: center;"">
                <img src=""images/causal/causal_series_18/causal_series_18_a.jpg"" style=""width: 300px; height: 300px;"" />
              </div>","null",""
"","","","","","html-keyboard-response","42","145936","0.0-42.0","C0972E6BC62B41DA9EDF4FCAEC85B11F","6b05b527-7369-4ba0-b0e4-7b928764d0a3","61e1ec61-13c7-4a8f-bf47-a91ec9909364","","null","<div style=""display: flex; justify-content: center; align-items: center;"">
                <img src=""images/causal/causal_series_18/causal_series_18_b.jpg"" style=""width: 300px; height: 300px;"" />
              </div>","null",""
"","","","","","html-keyboard-response","43","148948","0.0-43.0","C0972E6BC62B41DA9EDF4FCAEC85B11F","6b05b527-7369-4ba0-b0e4-7b928764d0a3","61e1ec61-13c7-4a8f-bf47-a91ec9909364","","null","<div style=""display: flex; justify-content: center; align-items: center;"">
                <img src=""images/causal/causal_series_18/causal_series_18_c.jpg"" style=""width: 300px; height: 300px;"" />
              </div>","null",""
"","","","","","html-button-response","44","149686","0.0-44.0","C0972E6BC62B41DA9EDF4FCAEC85B11F","6b05b527-7369-4ba0-b0e4-7b928764d0a3","61e1ec61-13c7-4a8f-bf47-a91ec9909364","","737","
    <div style=""display: flex; justify-content: center; align-items: center;"">
      <img src=""images/red_deck_2.png"" style=""width: 300px; height: 300px; margin-right: 10px;"" />
      <img src=""images/blue_deck_1.png"" style=""width: 300px; height: 300px;"" />
    </div>","1","1"
"","","","","","html-keyboard-response","45","152702","0.0-45.0-1.0-0.0","C0972E6BC62B41DA9EDF4FCAEC85B11F","6b05b527-7369-4ba0-b0e4-7b928764d0a3","61e1ec61-13c7-4a8f-bf47-a91ec9909364","","null","<div style=""display: flex; justify-content: center; align-items: center;"">
                <img src=""images/semantic/semantic_series_17/semantic_series_17_d.jpg"" style=""width: 300px; height: 300px;"" />
              </div>","null",""
"","","","","","html-keyboard-response","46","155705","0.0-46.0","C0972E6BC62B41DA9EDF4FCAEC85B11F","6b05b527-7369-4ba0-b0e4-7b928764d0a3","61e1ec61-13c7-4a8f-bf47-a91ec9909364","","null","<div style=""display: flex; justify-content: center; align-items: center;"">
                <img src=""images/other/blank.jpg"" style=""width: 300px; height: 300px;"" />
              </div>","null",""
"","","","","","html-keyboard-response","47","158716","0.0-47.0","C0972E6BC62B41DA9EDF4FCAEC85B11F","6b05b527-7369-4ba0-b0e4-7b928764d0a3","61e1ec61-13c7-4a8f-bf47-a91ec9909364","","null","<div style=""display: flex; justify-content: center; align-items: center;"">
                <img src=""images/causal/causal_series_5/causal_series_5_a.jpg"" style=""width: 300px; height: 300px;"" />
              </div>","null",""
"","","","","","html-keyboard-response","48","161733","0.0-48.0","C0972E6BC62B41DA9EDF4FCAEC85B11F","6b05b527-7369-4ba0-b0e4-7b928764d0a3","61e1ec61-13c7-4a8f-bf47-a91ec9909364","","null","<div style=""display: flex; justify-content: center; align-items: center;"">
                <img src=""images/causal/causal_series_5/causal_series_5_b.jpg"" style=""width: 300px; height: 300px;"" />
              </div>","null",""
"","","","","","html-keyboard-response","49","164735","0.0-49.0","C0972E6BC62B41DA9EDF4FCAEC85B11F","6b05b527-7369-4ba0-b0e4-7b928764d0a3","61e1ec61-13c7-4a8f-bf47-a91ec9909364","","null","<div style=""display: flex; justify-content: center; align-items: center;"">
                <img src=""images/causal/causal_series_5/causal_series_5_c.jpg"" style=""width: 300px; height: 300px;"" />
              </div>","null",""
"","","","","","html-button-response","50","165621","0.0-50.0","C0972E6BC62B41DA9EDF4FCAEC85B11F","6b05b527-7369-4ba0-b0e4-7b928764d0a3","61e1ec61-13c7-4a8f-bf47-a91ec9909364","","885","
    <div style=""display: flex; justify-content: center; align-items: center;"">
      <img src=""images/red_deck_2.png"" style=""width: 300px; height: 300px; margin-right: 10px;"" />
      <img src=""images/blue_deck_1.png"" style=""width: 300px; height: 300px;"" />
    </div>","1","1"
"","","","","","html-keyboard-response","51","168622","0.0-51.0-1.0-0.0","C0972E6BC62B41DA9EDF4FCAEC85B11F","6b05b527-7369-4ba0-b0e4-7b928764d0a3","61e1ec61-13c7-4a8f-bf47-a91ec9909364","","null","<div style=""display: flex; justify-content: center; align-items: center;"">
                <img src=""images/semantic/semantic_series_4/semantic_series_4_d.jpg"" style=""width: 300px; height: 300px;"" />
              </div>","null",""
"","","","","","html-keyboard-response","52","171627","0.0-52.0","C0972E6BC62B41DA9EDF4FCAEC85B11F","6b05b527-7369-4ba0-b0e4-7b928764d0a3","61e1ec61-13c7-4a8f-bf47-a91ec9909364","","null","<div style=""display: flex; justify-content: center; align-items: center;"">
                <img src=""images/other/blank.jpg"" style=""width: 300px; height: 300px;"" />
              </div>","null",""
"","","","","","html-keyboard-response","53","174635","0.0-53.0","C0972E6BC62B41DA9EDF4FCAEC85B11F","6b05b527-7369-4ba0-b0e4-7b928764d0a3","61e1ec61-13c7-4a8f-bf47-a91ec9909364","","null","<div style=""display: flex; justify-content: center; align-items: center;"">
                <img src=""images/causal/causal_series_10/causal_series_10_a.jpg"" style=""width: 300px; height: 300px;"" />
              </div>","null",""
"","","","","","html-keyboard-response","54","177641","0.0-54.0","C0972E6BC62B41DA9EDF4FCAEC85B11F","6b05b527-7369-4ba0-b0e4-7b928764d0a3","61e1ec61-13c7-4a8f-bf47-a91ec9909364","","null","<div style=""display: flex; justify-content: center; align-items: center;"">
                <img src=""images/causal/causal_series_10/causal_series_10_b.jpg"" style=""width: 300px; height: 300px;"" />
              </div>","null",""
"","","","","","html-keyboard-response","55","180649","0.0-55.0","C0972E6BC62B41DA9EDF4FCAEC85B11F","6b05b527-7369-4ba0-b0e4-7b928764d0a3","61e1ec61-13c7-4a8f-bf47-a91ec9909364","","null","<div style=""display: flex; justify-content: center; align-items: center;"">
                <img src=""images/causal/causal_series_10/causal_series_10_c.jpg"" style=""width: 300px; height: 300px;"" />
              </div>","null",""
"","","","","","html-button-response","56","181436","0.0-56.0","C0972E6BC62B41DA9EDF4FCAEC85B11F","6b05b527-7369-4ba0-b0e4-7b928764d0a3","61e1ec61-13c7-4a8f-bf47-a91ec9909364","","787","
    <div style=""display: flex; justify-content: center; align-items: center;"">
      <img src=""images/red_deck_2.png"" style=""width: 300px; height: 300px; margin-right: 10px;"" />
      <img src=""images/blue_deck_1.png"" style=""width: 300px; height: 300px;"" />
    </div>","0","0"
"","","","","","html-keyboard-response","57","184444","0.0-57.0-0.0-0.0","C0972E6BC62B41DA9EDF4FCAEC85B11F","6b05b527-7369-4ba0-b0e4-7b928764d0a3","61e1ec61-13c7-4a8f-bf47-a91ec9909364","","null","<div style=""display: flex; justify-content: center; align-items: center;"">
                <img src=""images/causal/causal_series_10/causal_series_10_d.jpg"" style=""width: 300px; height: 300px;"" />
              </div>","null",""
"","","","","","html-keyboard-response","58","187457","0.0-58.0","C0972E6BC62B41DA9EDF4FCAEC85B11F","6b05b527-7369-4ba0-b0e4-7b928764d0a3","61e1ec61-13c7-4a8f-bf47-a91ec9909364","","null","<div style=""display: flex; justify-content: center; align-items: center;"">
                <img src=""images/other/blank.jpg"" style=""width: 300px; height: 300px;"" />
              </div>","null",""
"","","","","","html-keyboard-response","59","190464","0.0-59.0","C0972E6BC62B41DA9EDF4FCAEC85B11F","6b05b527-7369-4ba0-b0e4-7b928764d0a3","61e1ec61-13c7-4a8f-bf47-a91ec9909364","","null","<div style=""display: flex; justify-content: center; align-items: center;"">
                <img src=""images/causal/causal_series_2/causal_series_2_a.jpg"" style=""width: 300px; height: 300px;"" />
              </div>","null",""
"","","","","","html-keyboard-response","60","193467","0.0-60.0","C0972E6BC62B41DA9EDF4FCAEC85B11F","6b05b527-7369-4ba0-b0e4-7b928764d0a3","61e1ec61-13c7-4a8f-bf47-a91ec9909364","","null","<div style=""display: flex; justify-content: center; align-items: center;"">
                <img src=""images/causal/causal_series_2/causal_series_2_b.jpg"" style=""width: 300px; height: 300px;"" />
              </div>","null",""
"","","","","","html-keyboard-response","61","196476","0.0-61.0","C0972E6BC62B41DA9EDF4FCAEC85B11F","6b05b527-7369-4ba0-b0e4-7b928764d0a3","61e1ec61-13c7-4a8f-bf47-a91ec9909364","","null","<div style=""display: flex; justify-content: center; align-items: center;"">
                <img src=""images/causal/causal_series_2/causal_series_2_c.jpg"" style=""width: 300px; height: 300px;"" />
              </div>","null",""
"","","","","","html-button-response","62","197346","0.0-62.0","C0972E6BC62B41DA9EDF4FCAEC85B11F","6b05b527-7369-4ba0-b0e4-7b928764d0a3","61e1ec61-13c7-4a8f-bf47-a91ec9909364","","868","
    <div style=""display: flex; justify-content: center; align-items: center;"">
      <img src=""images/red_deck_2.png"" style=""width: 300px; height: 300px; margin-right: 10px;"" />
      <img src=""images/blue_deck_1.png"" style=""width: 300px; height: 300px;"" />
    </div>","0","0"
"","","","","","html-keyboard-response","63","200362","0.0-63.0-0.0-0.0","C0972E6BC62B41DA9EDF4FCAEC85B11F","6b05b527-7369-4ba0-b0e4-7b928764d0a3","61e1ec61-13c7-4a8f-bf47-a91ec9909364","","null","<div style=""display: flex; justify-content: center; align-items: center;"">
                <img src=""images/causal/causal_series_2/causal_series_2_d.jpg"" style=""width: 300px; height: 300px;"" />
              </div>","null",""
"","","","","","html-keyboard-response","64","203376","0.0-64.0","C0972E6BC62B41DA9EDF4FCAEC85B11F","6b05b527-7369-4ba0-b0e4-7b928764d0a3","61e1ec61-13c7-4a8f-bf47-a91ec9909364","","null","<div style=""display: flex; justify-content: center; align-items: center;"">
                <img src=""images/other/blank.jpg"" style=""width: 300px; height: 300px;"" />
              </div>","null",""
"","","","","","html-keyboard-response","65","206380","0.0-65.0","C0972E6BC62B41DA9EDF4FCAEC85B11F","6b05b527-7369-4ba0-b0e4-7b928764d0a3","61e1ec61-13c7-4a8f-bf47-a91ec9909364","","null","<div style=""display: flex; justify-content: center; align-items: center;"">
                <img src=""images/causal/causal_series_8/causal_series_8_a.jpg"" style=""width: 300px; height: 300px;"" />
              </div>","null",""
"","","","","","html-keyboard-response","66","209384","0.0-66.0","C0972E6BC62B41DA9EDF4FCAEC85B11F","6b05b527-7369-4ba0-b0e4-7b928764d0a3","61e1ec61-13c7-4a8f-bf47-a91ec9909364","","null","<div style=""display: flex; justify-content: center; align-items: center;"">
                <img src=""images/causal/causal_series_8/causal_series_8_b.jpg"" style=""width: 300px; height: 300px;"" />
              </div>","null",""
"","","","","","html-keyboard-response","67","212400","0.0-67.0","C0972E6BC62B41DA9EDF4FCAEC85B11F","6b05b527-7369-4ba0-b0e4-7b928764d0a3","61e1ec61-13c7-4a8f-bf47-a91ec9909364","","null","<div style=""display: flex; justify-content: center; align-items: center;"">
                <img src=""images/causal/causal_series_8/causal_series_8_c.jpg"" style=""width: 300px; height: 300px;"" />
              </div>","null",""
"","","","","","html-button-response","68","213026","0.0-68.0","C0972E6BC62B41DA9EDF4FCAEC85B11F","6b05b527-7369-4ba0-b0e4-7b928764d0a3","61e1ec61-13c7-4a8f-bf47-a91ec9909364","","626","
    <div style=""display: flex; justify-content: center; align-items: center;"">
      <img src=""images/red_deck_2.png"" style=""width: 300px; height: 300px; margin-right: 10px;"" />
      <img src=""images/blue_deck_1.png"" style=""width: 300px; height: 300px;"" />
    </div>","0","0"
"","","","","","html-keyboard-response","69","216029","0.0-69.0-0.0-0.0","C0972E6BC62B41DA9EDF4FCAEC85B11F","6b05b527-7369-4ba0-b0e4-7b928764d0a3","61e1ec61-13c7-4a8f-bf47-a91ec9909364","","null","<div style=""display: flex; justify-content: center; align-items: center;"">
                <img src=""images/causal/causal_series_8/causal_series_8_d.jpg"" style=""width: 300px; height: 300px;"" />
              </div>","null",""
"","","","","","html-keyboard-response","70","219037","0.0-70.0","C0972E6BC62B41DA9EDF4FCAEC85B11F","6b05b527-7369-4ba0-b0e4-7b928764d0a3","61e1ec61-13c7-4a8f-bf47-a91ec9909364","","null","<div style=""display: flex; justify-content: center; align-items: center;"">
                <img src=""images/other/blank.jpg"" style=""width: 300px; height: 300px;"" />
              </div>","null",""
"","","","","","html-keyboard-response","71","222046","0.0-71.0","C0972E6BC62B41DA9EDF4FCAEC85B11F","6b05b527-7369-4ba0-b0e4-7b928764d0a3","61e1ec61-13c7-4a8f-bf47-a91ec9909364","","null","<div style=""display: flex; justify-content: center; align-items: center;"">
                <img src=""images/causal/causal_series_3/causal_series_3_a.jpg"" style=""width: 300px; height: 300px;"" />
              </div>","null",""
"","","","","","html-keyboard-response","72","225048","0.0-72.0","C0972E6BC62B41DA9EDF4FCAEC85B11F","6b05b527-7369-4ba0-b0e4-7b928764d0a3","61e1ec61-13c7-4a8f-bf47-a91ec9909364","","null","<div style=""display: flex; justify-content: center; align-items: center;"">
                <img src=""images/causal/causal_series_3/causal_series_3_b.jpg"" style=""width: 300px; height: 300px;"" />
              </div>","null",""
"","","","","","html-keyboard-response","73","228057","0.0-73.0","C0972E6BC62B41DA9EDF4FCAEC85B11F","6b05b527-7369-4ba0-b0e4-7b928764d0a3","61e1ec61-13c7-4a8f-bf47-a91ec9909364","","null","<div style=""display: flex; justify-content: center; align-items: center;"">
                <img src=""images/causal/causal_series_3/causal_series_3_c.jpg"" style=""width: 300px; height: 300px;"" />
              </div>","null",""
"","","","","","html-button-response","74","228781","0.0-74.0","C0972E6BC62B41DA9EDF4FCAEC85B11F","6b05b527-7369-4ba0-b0e4-7b928764d0a3","61e1ec61-13c7-4a8f-bf47-a91ec9909364","","723","
    <div style=""display: flex; justify-content: center; align-items: center;"">
      <img src=""images/red_deck_2.png"" style=""width: 300px; height: 300px; margin-right: 10px;"" />
      <img src=""images/blue_deck_1.png"" style=""width: 300px; height: 300px;"" />
    </div>","0","0"
"","","","","","html-keyboard-response","75","231792","0.0-75.0-0.0-0.0","C0972E6BC62B41DA9EDF4FCAEC85B11F","6b05b527-7369-4ba0-b0e4-7b928764d0a3","61e1ec61-13c7-4a8f-bf47-a91ec9909364","","null","<div style=""display: flex; justify-content: center; align-items: center;"">
                <img src=""images/causal/causal_series_3/causal_series_3_d.jpg"" style=""width: 300px; height: 300px;"" />
              </div>","null",""
"","","","","","html-keyboard-response","76","234799","0.0-76.0","C0972E6BC62B41DA9EDF4FCAEC85B11F","6b05b527-7369-4ba0-b0e4-7b928764d0a3","61e1ec61-13c7-4a8f-bf47-a91ec9909364","","null","<div style=""display: flex; justify-content: center; align-items: center;"">
                <img src=""images/other/blank.jpg"" style=""width: 300px; height: 300px;"" />
              </div>","null",""
"","","","","","html-keyboard-response","77","237811","0.0-77.0","C0972E6BC62B41DA9EDF4FCAEC85B11F","6b05b527-7369-4ba0-b0e4-7b928764d0a3","61e1ec61-13c7-4a8f-bf47-a91ec9909364","","null","<div style=""display: flex; justify-content: center; align-items: center;"">
                <img src=""images/causal/causal_series_17/causal_series_17_a.jpg"" style=""width: 300px; height: 300px;"" />
              </div>","null",""
"","","","","","html-keyboard-response","78","240815","0.0-78.0","C0972E6BC62B41DA9EDF4FCAEC85B11F","6b05b527-7369-4ba0-b0e4-7b928764d0a3","61e1ec61-13c7-4a8f-bf47-a91ec9909364","","null","<div style=""display: flex; justify-content: center; align-items: center;"">
                <img src=""images/causal/causal_series_17/causal_series_17_b.jpg"" style=""width: 300px; height: 300px;"" />
              </div>","null",""
"","","","","","html-keyboard-response","79","243821","0.0-79.0","C0972E6BC62B41DA9EDF4FCAEC85B11F","6b05b527-7369-4ba0-b0e4-7b928764d0a3","61e1ec61-13c7-4a8f-bf47-a91ec9909364","","null","<div style=""display: flex; justify-content: center; align-items: center;"">
                <img src=""images/causal/causal_series_17/causal_series_17_c.jpg"" style=""width: 300px; height: 300px;"" />
              </div>","null",""
"","","","","","html-button-response","80","244546","0.0-80.0","C0972E6BC62B41DA9EDF4FCAEC85B11F","6b05b527-7369-4ba0-b0e4-7b928764d0a3","61e1ec61-13c7-4a8f-bf47-a91ec9909364","","724","
    <div style=""display: flex; justify-content: center; align-items: center;"">
      <img src=""images/red_deck_2.png"" style=""width: 300px; height: 300px; margin-right: 10px;"" />
      <img src=""images/blue_deck_1.png"" style=""width: 300px; height: 300px;"" />
    </div>","1","1"
"","","","","","html-keyboard-response","81","247562","0.0-81.0-1.0-0.0","C0972E6BC62B41DA9EDF4FCAEC85B11F","6b05b527-7369-4ba0-b0e4-7b928764d0a3","61e1ec61-13c7-4a8f-bf47-a91ec9909364","","null","<div style=""display: flex; justify-content: center; align-items: center;"">
                <img src=""images/semantic/semantic_series_16/semantic_series_16_d.jpg"" style=""width: 300px; height: 300px;"" />
              </div>","null",""
"","","","","","html-keyboard-response","82","250572","0.0-82.0","C0972E6BC62B41DA9EDF4FCAEC85B11F","6b05b527-7369-4ba0-b0e4-7b928764d0a3","61e1ec61-13c7-4a8f-bf47-a91ec9909364","","null","<div style=""display: flex; justify-content: center; align-items: center;"">
                <img src=""images/other/blank.jpg"" style=""width: 300px; height: 300px;"" />
              </div>","null",""
"","","","","","html-keyboard-response","83","253581","0.0-83.0","C0972E6BC62B41DA9EDF4FCAEC85B11F","6b05b527-7369-4ba0-b0e4-7b928764d0a3","61e1ec61-13c7-4a8f-bf47-a91ec9909364","","null","<div style=""display: flex; justify-content: center; align-items: center;"">
                <img src=""images/causal/causal_series_11/causal_series_11_a.jpg"" style=""width: 300px; height: 300px;"" />
              </div>","null",""
"","","","","","html-keyboard-response","84","256582","0.0-84.0","C0972E6BC62B41DA9EDF4FCAEC85B11F","6b05b527-7369-4ba0-b0e4-7b928764d0a3","61e1ec61-13c7-4a8f-bf47-a91ec9909364","","null","<div style=""display: flex; justify-content: center; align-items: center;"">
                <img src=""images/causal/causal_series_11/causal_series_11_b.jpg"" style=""width: 300px; height: 300px;"" />
              </div>","null",""
"","","","","","html-keyboard-response","85","259596","0.0-85.0","C0972E6BC62B41DA9EDF4FCAEC85B11F","6b05b527-7369-4ba0-b0e4-7b928764d0a3","61e1ec61-13c7-4a8f-bf47-a91ec9909364","","null","<div style=""display: flex; justify-content: center; align-items: center;"">
                <img src=""images/causal/causal_series_11/causal_series_11_c.jpg"" style=""width: 300px; height: 300px;"" />
              </div>","null",""
"","","","","","html-button-response","86","260201","0.0-86.0","C0972E6BC62B41DA9EDF4FCAEC85B11F","6b05b527-7369-4ba0-b0e4-7b928764d0a3","61e1ec61-13c7-4a8f-bf47-a91ec9909364","","604","
    <div style=""display: flex; justify-content: center; align-items: center;"">
      <img src=""images/red_deck_2.png"" style=""width: 300px; height: 300px; margin-right: 10px;"" />
      <img src=""images/blue_deck_1.png"" style=""width: 300px; height: 300px;"" />
    </div>","1","1"
"","","","","","html-keyboard-response","87","263217","0.0-87.0-1.0-0.0","C0972E6BC62B41DA9EDF4FCAEC85B11F","6b05b527-7369-4ba0-b0e4-7b928764d0a3","61e1ec61-13c7-4a8f-bf47-a91ec9909364","","null","<div style=""display: flex; justify-content: center; align-items: center;"">
                <img src=""images/semantic/semantic_series_10/semantic_series_10_d.jpg"" style=""width: 300px; height: 300px;"" />
              </div>","null",""
"","","","","","html-keyboard-response","88","266223","0.0-88.0","C0972E6BC62B41DA9EDF4FCAEC85B11F","6b05b527-7369-4ba0-b0e4-7b928764d0a3","61e1ec61-13c7-4a8f-bf47-a91ec9909364","","null","<div style=""display: flex; justify-content: center; align-items: center;"">
                <img src=""images/other/blank.jpg"" style=""width: 300px; height: 300px;"" />
              </div>","null",""
"","","","","","html-keyboard-response","89","269238","0.0-89.0","C0972E6BC62B41DA9EDF4FCAEC85B11F","6b05b527-7369-4ba0-b0e4-7b928764d0a3","61e1ec61-13c7-4a8f-bf47-a91ec9909364","","null","<div style=""display: flex; justify-content: center; align-items: center;"">
                <img src=""images/causal/causal_series_14/causal_series_14_a.jpg"" style=""width: 300px; height: 300px;"" />
              </div>","null",""
"","","","","","html-keyboard-response","90","272252","0.0-90.0","C0972E6BC62B41DA9EDF4FCAEC85B11F","6b05b527-7369-4ba0-b0e4-7b928764d0a3","61e1ec61-13c7-4a8f-bf47-a91ec9909364","","null","<div style=""display: flex; justify-content: center; align-items: center;"">
                <img src=""images/causal/causal_series_14/causal_series_14_b.jpg"" style=""width: 300px; height: 300px;"" />
              </div>","null",""
"","","","","","html-keyboard-response","91","275264","0.0-91.0","C0972E6BC62B41DA9EDF4FCAEC85B11F","6b05b527-7369-4ba0-b0e4-7b928764d0a3","61e1ec61-13c7-4a8f-bf47-a91ec9909364","","null","<div style=""display: flex; justify-content: center; align-items: center;"">
                <img src=""images/causal/causal_series_14/causal_series_14_c.jpg"" style=""width: 300px; height: 300px;"" />
              </div>","null",""
"","","","","","html-button-response","92","276001","0.0-92.0","C0972E6BC62B41DA9EDF4FCAEC85B11F","6b05b527-7369-4ba0-b0e4-7b928764d0a3","61e1ec61-13c7-4a8f-bf47-a91ec9909364","","736","
    <div style=""display: flex; justify-content: center; align-items: center;"">
      <img src=""images/red_deck_2.png"" style=""width: 300px; height: 300px; margin-right: 10px;"" />
      <img src=""images/blue_deck_1.png"" style=""width: 300px; height: 300px;"" />
    </div>","1","1"
"","","","","","html-keyboard-response","93","279004","0.0-93.0-1.0-0.0","C0972E6BC62B41DA9EDF4FCAEC85B11F","6b05b527-7369-4ba0-b0e4-7b928764d0a3","61e1ec61-13c7-4a8f-bf47-a91ec9909364","","null","<div style=""display: flex; justify-content: center; align-items: center;"">
                <img src=""images/semantic/semantic_series_13/semantic_series_13_d.jpg"" style=""width: 300px; height: 300px;"" />
              </div>","null",""
"","","","","","html-keyboard-response","94","282007","0.0-94.0","C0972E6BC62B41DA9EDF4FCAEC85B11F","6b05b527-7369-4ba0-b0e4-7b928764d0a3","61e1ec61-13c7-4a8f-bf47-a91ec9909364","","null","<div style=""display: flex; justify-content: center; align-items: center;"">
                <img src=""images/other/blank.jpg"" style=""width: 300px; height: 300px;"" />
              </div>","null",""
"","","","","","html-keyboard-response","95","285009","0.0-95.0","C0972E6BC62B41DA9EDF4FCAEC85B11F","6b05b527-7369-4ba0-b0e4-7b928764d0a3","61e1ec61-13c7-4a8f-bf47-a91ec9909364","","null","<div style=""display: flex; justify-content: center; align-items: center;"">
                <img src=""images/causal/causal_series_13/causal_series_13_a.jpg"" style=""width: 300px; height: 300px;"" />
              </div>","null",""
"","","","","","html-keyboard-response","96","288022","0.0-96.0","C0972E6BC62B41DA9EDF4FCAEC85B11F","6b05b527-7369-4ba0-b0e4-7b928764d0a3","61e1ec61-13c7-4a8f-bf47-a91ec9909364","","null","<div style=""display: flex; justify-content: center; align-items: center;"">
                <img src=""images/causal/causal_series_13/causal_series_13_b.jpg"" style=""width: 300px; height: 300px;"" />
              </div>","null",""
"","","","","","html-keyboard-response","97","291024","0.0-97.0","C0972E6BC62B41DA9EDF4FCAEC85B11F","6b05b527-7369-4ba0-b0e4-7b928764d0a3","61e1ec61-13c7-4a8f-bf47-a91ec9909364","","null","<div style=""display: flex; justify-content: center; align-items: center;"">
                <img src=""images/causal/causal_series_13/causal_series_13_c.jpg"" style=""width: 300px; height: 300px;"" />
              </div>","null",""
"","","","","","html-button-response","98","291691","0.0-98.0","C0972E6BC62B41DA9EDF4FCAEC85B11F","6b05b527-7369-4ba0-b0e4-7b928764d0a3","61e1ec61-13c7-4a8f-bf47-a91ec9909364","","666","
    <div style=""display: flex; justify-content: center; align-items: center;"">
      <img src=""images/red_deck_2.png"" style=""width: 300px; height: 300px; margin-right: 10px;"" />
      <img src=""images/blue_deck_1.png"" style=""width: 300px; height: 300px;"" />
    </div>","0","0"
"","","","","","html-keyboard-response","99","294696","0.0-99.0-0.0-0.0","C0972E6BC62B41DA9EDF4FCAEC85B11F","6b05b527-7369-4ba0-b0e4-7b928764d0a3","61e1ec61-13c7-4a8f-bf47-a91ec9909364","","null","<div style=""display: flex; justify-content: center; align-items: center;"">
                <img src=""images/causal/causal_series_13/causal_series_13_d.jpg"" style=""width: 300px; height: 300px;"" />
              </div>","null",""
"","","","","","html-keyboard-response","100","297705","0.0-100.0","C0972E6BC62B41DA9EDF4FCAEC85B11F","6b05b527-7369-4ba0-b0e4-7b928764d0a3","61e1ec61-13c7-4a8f-bf47-a91ec9909364","","null","<div style=""display: flex; justify-content: center; align-items: center;"">
                <img src=""images/other/blank.jpg"" style=""width: 300px; height: 300px;"" />
              </div>","null",""
"","","","","","html-keyboard-response","101","300706","0.0-101.0","C0972E6BC62B41DA9EDF4FCAEC85B11F","6b05b527-7369-4ba0-b0e4-7b928764d0a3","61e1ec61-13c7-4a8f-bf47-a91ec9909364","","null","<div style=""display: flex; justify-content: center; align-items: center;"">
                <img src=""images/causal/causal_series_6/causal_series_6_a.jpg"" style=""width: 300px; height: 300px;"" />
              </div>","null",""
"","","","","","html-keyboard-response","102","303711","0.0-102.0","C0972E6BC62B41DA9EDF4FCAEC85B11F","6b05b527-7369-4ba0-b0e4-7b928764d0a3","61e1ec61-13c7-4a8f-bf47-a91ec9909364","","null","<div style=""display: flex; justify-content: center; align-items: center;"">
                <img src=""images/causal/causal_series_6/causal_series_6_b.jpg"" style=""width: 300px; height: 300px;"" />
              </div>","null",""
"","","","","","html-keyboard-response","103","306717","0.0-103.0","C0972E6BC62B41DA9EDF4FCAEC85B11F","6b05b527-7369-4ba0-b0e4-7b928764d0a3","61e1ec61-13c7-4a8f-bf47-a91ec9909364","","null","<div style=""display: flex; justify-content: center; align-items: center;"">
                <img src=""images/causal/causal_series_6/causal_series_6_c.jpg"" style=""width: 300px; height: 300px;"" />
              </div>","null",""
"","","","","","html-button-response","104","307416","0.0-104.0","C0972E6BC62B41DA9EDF4FCAEC85B11F","6b05b527-7369-4ba0-b0e4-7b928764d0a3","61e1ec61-13c7-4a8f-bf47-a91ec9909364","","698","
    <div style=""display: flex; justify-content: center; align-items: center;"">
      <img src=""images/red_deck_2.png"" style=""width: 300px; height: 300px; margin-right: 10px;"" />
      <img src=""images/blue_deck_1.png"" style=""width: 300px; height: 300px;"" />
    </div>","0","0"
"","","","","","html-keyboard-response","105","310418","0.0-105.0-0.0-0.0","C0972E6BC62B41DA9EDF4FCAEC85B11F","6b05b527-7369-4ba0-b0e4-7b928764d0a3","61e1ec61-13c7-4a8f-bf47-a91ec9909364","","null","<div style=""display: flex; justify-content: center; align-items: center;"">
                <img src=""images/causal/causal_series_6/causal_series_6_d.jpg"" style=""width: 300px; height: 300px;"" />
              </div>","null",""
"","","","","","html-keyboard-response","106","313424","0.0-106.0","C0972E6BC62B41DA9EDF4FCAEC85B11F","6b05b527-7369-4ba0-b0e4-7b928764d0a3","61e1ec61-13c7-4a8f-bf47-a91ec9909364","","null","<div style=""display: flex; justify-content: center; align-items: center;"">
                <img src=""images/other/blank.jpg"" style=""width: 300px; height: 300px;"" />
              </div>","null",""
"","","","","","html-keyboard-response","107","316431","0.0-107.0","C0972E6BC62B41DA9EDF4FCAEC85B11F","6b05b527-7369-4ba0-b0e4-7b928764d0a3","61e1ec61-13c7-4a8f-bf47-a91ec9909364","","null","<div style=""display: flex; justify-content: center; align-items: center;"">
                <img src=""images/causal/causal_series_12/causal_series_12_a.jpg"" style=""width: 300px; height: 300px;"" />
              </div>","null",""
"","","","","","html-keyboard-response","108","319442","0.0-108.0","C0972E6BC62B41DA9EDF4FCAEC85B11F","6b05b527-7369-4ba0-b0e4-7b928764d0a3","61e1ec61-13c7-4a8f-bf47-a91ec9909364","","null","<div style=""display: flex; justify-content: center; align-items: center;"">
                <img src=""images/causal/causal_series_12/causal_series_12_b.jpg"" style=""width: 300px; height: 300px;"" />
              </div>","null",""
"","","","","","html-keyboard-response","109","322443","0.0-109.0","C0972E6BC62B41DA9EDF4FCAEC85B11F","6b05b527-7369-4ba0-b0e4-7b928764d0a3","61e1ec61-13c7-4a8f-bf47-a91ec9909364","","null","<div style=""display: flex; justify-content: center; align-items: center;"">
                <img src=""images/causal/causal_series_12/causal_series_12_c.jpg"" style=""width: 300px; height: 300px;"" />
              </div>","null",""
"","","","","","html-button-response","110","323176","0.0-110.0","C0972E6BC62B41DA9EDF4FCAEC85B11F","6b05b527-7369-4ba0-b0e4-7b928764d0a3","61e1ec61-13c7-4a8f-bf47-a91ec9909364","","733","
    <div style=""display: flex; justify-content: center; align-items: center;"">
      <img src=""images/red_deck_2.png"" style=""width: 300px; height: 300px; margin-right: 10px;"" />
      <img src=""images/blue_deck_1.png"" style=""width: 300px; height: 300px;"" />
    </div>","1","1"
"","","","","","html-keyboard-response","111","326178","0.0-111.0-1.0-0.0","C0972E6BC62B41DA9EDF4FCAEC85B11F","6b05b527-7369-4ba0-b0e4-7b928764d0a3","61e1ec61-13c7-4a8f-bf47-a91ec9909364","","null","<div style=""display: flex; justify-content: center; align-items: center;"">
                <img src=""images/semantic/semantic_series_11/semantic_series_11_d.jpg"" style=""width: 300px; height: 300px;"" />
              </div>","null",""
"","","","","","html-keyboard-response","112","329185","0.0-112.0","C0972E6BC62B41DA9EDF4FCAEC85B11F","6b05b527-7369-4ba0-b0e4-7b928764d0a3","61e1ec61-13c7-4a8f-bf47-a91ec9909364","","null","<div style=""display: flex; justify-content: center; align-items: center;"">
                <img src=""images/other/blank.jpg"" style=""width: 300px; height: 300px;"" />
              </div>","null",""
"","","","","","survey-text","113","354632","0.0-113.0","C0972E6BC62B41DA9EDF4FCAEC85B11F","6b05b527-7369-4ba0-b0e4-7b928764d0a3","61e1ec61-13c7-4a8f-bf47-a91ec9909364","","25440","","{""Q0"":""It seems as though the blue cards had more of a dad tone to them, while the red was happier. ""}",""
"","","","","","survey-text","114","360481","0.0-114.0","C0972E6BC62B41DA9EDF4FCAEC85B11F","6b05b527-7369-4ba0-b0e4-7b928764d0a3","61e1ec61-13c7-4a8f-bf47-a91ec9909364","","5848","","{""Q0"":""The red.""}",""
"","","","","","html-button-response","115","367196","0.0-115.0","C0972E6BC62B41DA9EDF4FCAEC85B11F","6b05b527-7369-4ba0-b0e4-7b928764d0a3","61e1ec61-13c7-4a8f-bf47-a91ec9909364","","6714","Which color deck does the fourth image continue the story from the series?","1",""
"","","","","","html-button-response","116","370682","0.0-116.0","C0972E6BC62B41DA9EDF4FCAEC85B11F","6b05b527-7369-4ba0-b0e4-7b928764d0a3","61e1ec61-13c7-4a8f-bf47-a91ec9909364","","3485","Which color deck does the fourth image not follow the story from the series?","0",""
"","","","","","survey-text","117","376582","0.0-117.0","C0972E6BC62B41DA9EDF4FCAEC85B11F","6b05b527-7369-4ba0-b0e4-7b928764d0a3","61e1ec61-13c7-4a8f-bf47-a91ec9909364","","5897","","{""Q0"":""Male"",""Q1"":""28""}",""
"","","","","","instructions","118","380001","0.0-118.0","C0972E6BC62B41DA9EDF4FCAEC85B11F","6b05b527-7369-4ba0-b0e4-7b928764d0a3","61e1ec61-13c7-4a8f-bf47-a91ec9909364","[{""page_index"":0,""viewing_time"":3419}]","3419","","",""
