"success","timeout","failed_images","failed_audio","failed_video","trial_type","trial_index","time_elapsed","internal_node_id","subject_id","study_id","session_id","view_history","rt","stimulus","response","choice"
"true","false","[]","[]","[]","preload","0","1691","0.0-0.0","46C36D77E4B247AE95721BC9779FE422","a2b966f2-867d-4aef-889b-62ff1fbb942d","61e1ec61-13c7-4a8f-bf47-a91ec9909364","","","","",""
"","","","","","instructions","1","2843","0.0-1.0","46C36D77E4B247AE95721BC9779FE422","a2b966f2-867d-4aef-889b-62ff1fbb942d","61e1ec61-13c7-4a8f-bf47-a91ec9909364","[{""page_index"":0,""viewing_time"":1152}]","1152","","",""
"","","","","","instructions","2","5130","0.0-2.0","46C36D77E4B247AE95721BC9779FE422","a2b966f2-867d-4aef-889b-62ff1fbb942d","61e1ec61-13c7-4a8f-bf47-a91ec9909364","[{""page_index"":0,""viewing_time"":2286}]","2286","","",""
"true","","","","","fullscreen","3","6937","0.0-3.0","46C36D77E4B247AE95721BC9779FE422","a2b966f2-867d-4aef-889b-62ff1fbb942d","61e1ec61-13c7-4a8f-bf47-a91ec9909364","","789","","",""
"","","","","","instructions","4","32222","0.0-4.0","46C36D77E4B247AE95721BC9779FE422","a2b966f2-867d-4aef-889b-62ff1fbb942d","61e1ec61-13c7-4a8f-bf47-a91ec9909364","[{""page_index"":0,""viewing_time"":25284}]","25285","","",""
"","","","","","html-keyboard-response","5","35224","0.0-5.0","46C36D77E4B247AE95721BC9779FE422","a2b966f2-867d-4aef-889b-62ff1fbb942d","61e1ec61-13c7-4a8f-bf47-a91ec9909364","","null","<div style=""display: flex; justify-content: center; align-items: center;"">
                <img src=""images/causal/causal_series_14/causal_series_14_a.jpg"" style=""width: 300px; height: 300px;"" />
              </div>","null",""
"","","","","","html-keyboard-response","6","38227","0.0-6.0","46C36D77E4B247AE95721BC9779FE422","a2b966f2-867d-4aef-889b-62ff1fbb942d","61e1ec61-13c7-4a8f-bf47-a91ec9909364","","null","<div style=""display: flex; justify-content: center; align-items: center;"">
                <img src=""images/causal/causal_series_14/causal_series_14_b.jpg"" style=""width: 300px; height: 300px;"" />
              </div>","null",""
"","","","","","html-keyboard-response","7","41229","0.0-7.0","46C36D77E4B247AE95721BC9779FE422","a2b966f2-867d-4aef-889b-62ff1fbb942d","61e1ec61-13c7-4a8f-bf47-a91ec9909364","","null","<div style=""display: flex; justify-content: center; align-items: center;"">
                <img src=""images/causal/causal_series_14/causal_series_14_c.jpg"" style=""width: 300px; height: 300px;"" />
              </div>","null",""
"","","","","","html-button-response","8","42698","0.0-8.0","46C36D77E4B247AE95721BC9779FE422","a2b966f2-867d-4aef-889b-62ff1fbb942d","61e1ec61-13c7-4a8f-bf47-a91ec9909364","","1468","
    <div style=""display: flex; justify-content: center; align-items: center;"">
      <img src=""images/red_deck_2.png"" style=""width: 300px; height: 300px; margin-right: 10px;"" />
      <img src=""images/blue_deck_1.png"" style=""width: 300px; height: 300px;"" />
    </div>","0","0"
"","","","","","html-keyboard-response","9","45712","0.0-9.0-0.0-0.0","46C36D77E4B247AE95721BC9779FE422","a2b966f2-867d-4aef-889b-62ff1fbb942d","61e1ec61-13c7-4a8f-bf47-a91ec9909364","","null","<div style=""display: flex; justify-content: center; align-items: center;"">
                <img src=""images/causal/causal_series_14/causal_series_14_d.jpg"" style=""width: 300px; height: 300px;"" />
              </div>","null",""
"","","","","","html-keyboard-response","10","48720","0.0-10.0","46C36D77E4B247AE95721BC9779FE422","a2b966f2-867d-4aef-889b-62ff1fbb942d","61e1ec61-13c7-4a8f-bf47-a91ec9909364","","null","<div style=""display: flex; justify-content: center; align-items: center;"">
                <img src=""images/other/blank.jpg"" style=""width: 300px; height: 300px;"" />
              </div>","null",""
"","","","","","html-keyboard-response","11","51727","0.0-11.0","46C36D77E4B247AE95721BC9779FE422","a2b966f2-867d-4aef-889b-62ff1fbb942d","61e1ec61-13c7-4a8f-bf47-a91ec9909364","","null","<div style=""display: flex; justify-content: center; align-items: center;"">
                <img src=""images/causal/causal_series_16/causal_series_16_a.jpg"" style=""width: 300px; height: 300px;"" />
              </div>","null",""
"","","","","","html-keyboard-response","12","54729","0.0-12.0","46C36D77E4B247AE95721BC9779FE422","a2b966f2-867d-4aef-889b-62ff1fbb942d","61e1ec61-13c7-4a8f-bf47-a91ec9909364","","null","<div style=""display: flex; justify-content: center; align-items: center;"">
                <img src=""images/causal/causal_series_16/causal_series_16_b.jpg"" style=""width: 300px; height: 300px;"" />
              </div>","null",""
"","","","","","html-keyboard-response","13","57743","0.0-13.0","46C36D77E4B247AE95721BC9779FE422","a2b966f2-867d-4aef-889b-62ff1fbb942d","61e1ec61-13c7-4a8f-bf47-a91ec9909364","","null","<div style=""display: flex; justify-content: center; align-items: center;"">
                <img src=""images/causal/causal_series_16/causal_series_16_c.jpg"" style=""width: 300px; height: 300px;"" />
              </div>","null",""
"","","","","","html-button-response","14","58481","0.0-14.0","46C36D77E4B247AE95721BC9779FE422","a2b966f2-867d-4aef-889b-62ff1fbb942d","61e1ec61-13c7-4a8f-bf47-a91ec9909364","","736","
    <div style=""display: flex; justify-content: center; align-items: center;"">
      <img src=""images/red_deck_2.png"" style=""width: 300px; height: 300px; margin-right: 10px;"" />
      <img src=""images/blue_deck_1.png"" style=""width: 300px; height: 300px;"" />
    </div>","1","1"
"","","","","","html-keyboard-response","15","61482","0.0-15.0-1.0-0.0","46C36D77E4B247AE95721BC9779FE422","a2b966f2-867d-4aef-889b-62ff1fbb942d","61e1ec61-13c7-4a8f-bf47-a91ec9909364","","null","<div style=""display: flex; justify-content: center; align-items: center;"">
                <img src=""images/semantic/semantic_series_15/semantic_series_15_d.jpg"" style=""width: 300px; height: 300px;"" />
              </div>","null",""
"","","","","","html-keyboard-response","16","64498","0.0-16.0","46C36D77E4B247AE95721BC9779FE422","a2b966f2-867d-4aef-889b-62ff1fbb942d","61e1ec61-13c7-4a8f-bf47-a91ec9909364","","null","<div style=""display: flex; justify-content: center; align-items: center;"">
                <img src=""images/other/blank.jpg"" style=""width: 300px; height: 300px;"" />
              </div>","null",""
"","","","","","html-keyboard-response","17","67503","0.0-17.0","46C36D77E4B247AE95721BC9779FE422","a2b966f2-867d-4aef-889b-62ff1fbb942d","61e1ec61-13c7-4a8f-bf47-a91ec9909364","","null","<div style=""display: flex; justify-content: center; align-items: center;"">
                <img src=""images/causal/causal_series_15/causal_series_15_a.jpg"" style=""width: 300px; height: 300px;"" />
              </div>","null",""
"","","","","","html-keyboard-response","18","70519","0.0-18.0","46C36D77E4B247AE95721BC9779FE422","a2b966f2-867d-4aef-889b-62ff1fbb942d","61e1ec61-13c7-4a8f-bf47-a91ec9909364","","null","<div style=""display: flex; justify-content: center; align-items: center;"">
                <img src=""images/causal/causal_series_15/causal_series_15_b.jpg"" style=""width: 300px; height: 300px;"" />
              </div>","null",""
"","","","","","html-keyboard-response","19","73530","0.0-19.0","46C36D77E4B247AE95721BC9779FE422","a2b966f2-867d-4aef-889b-62ff1fbb942d","61e1ec61-13c7-4a8f-bf47-a91ec9909364","","null","<div style=""display: flex; justify-content: center; align-items: center;"">
                <img src=""images/causal/causal_series_15/causal_series_15_c.jpg"" style=""width: 300px; height: 300px;"" />
              </div>","null",""
"","","","","","html-button-response","20","78124","0.0-20.0","46C36D77E4B247AE95721BC9779FE422","a2b966f2-867d-4aef-889b-62ff1fbb942d","61e1ec61-13c7-4a8f-bf47-a91ec9909364","","4593","
    <div style=""display: flex; justify-content: center; align-items: center;"">
      <img src=""images/red_deck_2.png"" style=""width: 300px; height: 300px; margin-right: 10px;"" />
      <img src=""images/blue_deck_1.png"" style=""width: 300px; height: 300px;"" />
    </div>","0","0"
"","","","","","html-keyboard-response","21","81134","0.0-21.0-0.0-0.0","46C36D77E4B247AE95721BC9779FE422","a2b966f2-867d-4aef-889b-62ff1fbb942d","61e1ec61-13c7-4a8f-bf47-a91ec9909364","","null","<div style=""display: flex; justify-content: center; align-items: center;"">
                <img src=""images/causal/causal_series_15/causal_series_15_d.jpg"" style=""width: 300px; height: 300px;"" />
              </div>","null",""
"","","","","","html-keyboard-response","22","84149","0.0-22.0","46C36D77E4B247AE95721BC9779FE422","a2b966f2-867d-4aef-889b-62ff1fbb942d","61e1ec61-13c7-4a8f-bf47-a91ec9909364","","null","<div style=""display: flex; justify-content: center; align-items: center;"">
                <img src=""images/other/blank.jpg"" style=""width: 300px; height: 300px;"" />
              </div>","null",""
"","","","","","html-keyboard-response","23","87153","0.0-23.0","46C36D77E4B247AE95721BC9779FE422","a2b966f2-867d-4aef-889b-62ff1fbb942d","61e1ec61-13c7-4a8f-bf47-a91ec9909364","","null","<div style=""display: flex; justify-content: center; align-items: center;"">
                <img src=""images/causal/causal_series_12/causal_series_12_a.jpg"" style=""width: 300px; height: 300px;"" />
              </div>","null",""
"","","","","","html-keyboard-response","24","90165","0.0-24.0","46C36D77E4B247AE95721BC9779FE422","a2b966f2-867d-4aef-889b-62ff1fbb942d","61e1ec61-13c7-4a8f-bf47-a91ec9909364","","null","<div style=""display: flex; justify-content: center; align-items: center;"">
                <img src=""images/causal/causal_series_12/causal_series_12_b.jpg"" style=""width: 300px; height: 300px;"" />
              </div>","null",""
"","","","","","html-keyboard-response","25","93180","0.0-25.0","46C36D77E4B247AE95721BC9779FE422","a2b966f2-867d-4aef-889b-62ff1fbb942d","61e1ec61-13c7-4a8f-bf47-a91ec9909364","","null","<div style=""display: flex; justify-content: center; align-items: center;"">
                <img src=""images/causal/causal_series_12/causal_series_12_c.jpg"" style=""width: 300px; height: 300px;"" />
              </div>","null",""
"","","","","","html-button-response","26","97180","0.0-26.0","46C36D77E4B247AE95721BC9779FE422","a2b966f2-867d-4aef-889b-62ff1fbb942d","61e1ec61-13c7-4a8f-bf47-a91ec9909364","","4000","
    <div style=""display: flex; justify-content: center; align-items: center;"">
      <img src=""images/red_deck_2.png"" style=""width: 300px; height: 300px; margin-right: 10px;"" />
      <img src=""images/blue_deck_1.png"" style=""width: 300px; height: 300px;"" />
    </div>","0","0"
"","","","","","html-keyboard-response","27","100198","0.0-27.0-0.0-0.0","46C36D77E4B247AE95721BC9779FE422","a2b966f2-867d-4aef-889b-62ff1fbb942d","61e1ec61-13c7-4a8f-bf47-a91ec9909364","","null","<div style=""display: flex; justify-content: center; align-items: center;"">
                <img src=""images/causal/causal_series_12/causal_series_12_d.jpg"" style=""width: 300px; height: 300px;"" />
              </div>","null",""
"","","","","","html-keyboard-response","28","103213","0.0-28.0","46C36D77E4B247AE95721BC9779FE422","a2b966f2-867d-4aef-889b-62ff1fbb942d","61e1ec61-13c7-4a8f-bf47-a91ec9909364","","null","<div style=""display: flex; justify-content: center; align-items: center;"">
                <img src=""images/other/blank.jpg"" style=""width: 300px; height: 300px;"" />
              </div>","null",""
"","","","","","html-keyboard-response","29","106228","0.0-29.0","46C36D77E4B247AE95721BC9779FE422","a2b966f2-867d-4aef-889b-62ff1fbb942d","61e1ec61-13c7-4a8f-bf47-a91ec9909364","","null","<div style=""display: flex; justify-content: center; align-items: center;"">
                <img src=""images/causal/causal_series_18/causal_series_18_a.jpg"" style=""width: 300px; height: 300px;"" />
              </div>","null",""
"","","","","","html-keyboard-response","30","109233","0.0-30.0","46C36D77E4B247AE95721BC9779FE422","a2b966f2-867d-4aef-889b-62ff1fbb942d","61e1ec61-13c7-4a8f-bf47-a91ec9909364","","null","<div style=""display: flex; justify-content: center; align-items: center;"">
                <img src=""images/causal/causal_series_18/causal_series_18_b.jpg"" style=""width: 300px; height: 300px;"" />
              </div>","null",""
"","","","","","html-keyboard-response","31","112248","0.0-31.0","46C36D77E4B247AE95721BC9779FE422","a2b966f2-867d-4aef-889b-62ff1fbb942d","61e1ec61-13c7-4a8f-bf47-a91ec9909364","","null","<div style=""display: flex; justify-content: center; align-items: center;"">
                <img src=""images/causal/causal_series_18/causal_series_18_c.jpg"" style=""width: 300px; height: 300px;"" />
              </div>","null",""
"","","","","","html-button-response","32","114656","0.0-32.0","46C36D77E4B247AE95721BC9779FE422","a2b966f2-867d-4aef-889b-62ff1fbb942d","61e1ec61-13c7-4a8f-bf47-a91ec9909364","","2407","
    <div style=""display: flex; justify-content: center; align-items: center;"">
      <img src=""images/red_deck_2.png"" style=""width: 300px; height: 300px; margin-right: 10px;"" />
      <img src=""images/blue_deck_1.png"" style=""width: 300px; height: 300px;"" />
    </div>","1","1"
"","","","","","html-keyboard-response","33","117663","0.0-33.0-1.0-0.0","46C36D77E4B247AE95721BC9779FE422","a2b966f2-867d-4aef-889b-62ff1fbb942d","61e1ec61-13c7-4a8f-bf47-a91ec9909364","","null","<div style=""display: flex; justify-content: center; align-items: center;"">
                <img src=""images/semantic/semantic_series_17/semantic_series_17_d.jpg"" style=""width: 300px; height: 300px;"" />
              </div>","null",""
"","","","","","html-keyboard-response","34","120665","0.0-34.0","46C36D77E4B247AE95721BC9779FE422","a2b966f2-867d-4aef-889b-62ff1fbb942d","61e1ec61-13c7-4a8f-bf47-a91ec9909364","","null","<div style=""display: flex; justify-content: center; align-items: center;"">
                <img src=""images/other/blank.jpg"" style=""width: 300px; height: 300px;"" />
              </div>","null",""
"","","","","","html-keyboard-response","35","123681","0.0-35.0","46C36D77E4B247AE95721BC9779FE422","a2b966f2-867d-4aef-889b-62ff1fbb942d","61e1ec61-13c7-4a8f-bf47-a91ec9909364","","null","<div style=""display: flex; justify-content: center; align-items: center;"">
                <img src=""images/causal/causal_series_3/causal_series_3_a.jpg"" style=""width: 300px; height: 300px;"" />
              </div>","null",""
"","","","","","html-keyboard-response","36","126685","0.0-36.0","46C36D77E4B247AE95721BC9779FE422","a2b966f2-867d-4aef-889b-62ff1fbb942d","61e1ec61-13c7-4a8f-bf47-a91ec9909364","","null","<div style=""display: flex; justify-content: center; align-items: center;"">
                <img src=""images/causal/causal_series_3/causal_series_3_b.jpg"" style=""width: 300px; height: 300px;"" />
              </div>","null",""
"","","","","","html-keyboard-response","37","129691","0.0-37.0","46C36D77E4B247AE95721BC9779FE422","a2b966f2-867d-4aef-889b-62ff1fbb942d","61e1ec61-13c7-4a8f-bf47-a91ec9909364","","null","<div style=""display: flex; justify-content: center; align-items: center;"">
                <img src=""images/causal/causal_series_3/causal_series_3_c.jpg"" style=""width: 300px; height: 300px;"" />
              </div>","null",""
"","","","","","html-button-response","38","130574","0.0-38.0","46C36D77E4B247AE95721BC9779FE422","a2b966f2-867d-4aef-889b-62ff1fbb942d","61e1ec61-13c7-4a8f-bf47-a91ec9909364","","883","
    <div style=""display: flex; justify-content: center; align-items: center;"">
      <img src=""images/red_deck_2.png"" style=""width: 300px; height: 300px; margin-right: 10px;"" />
      <img src=""images/blue_deck_1.png"" style=""width: 300px; height: 300px;"" />
    </div>","1","1"
"","","","","","html-keyboard-response","39","133575","0.0-39.0-1.0-0.0","46C36D77E4B247AE95721BC9779FE422","a2b966f2-867d-4aef-889b-62ff1fbb942d","61e1ec61-13c7-4a8f-bf47-a91ec9909364","","null","<div style=""display: flex; justify-content: center; align-items: center;"">
                <img src=""images/semantic/semantic_series_2/semantic_series_2_d.jpg"" style=""width: 300px; height: 300px;"" />
              </div>","null",""
"","","","","","html-keyboard-response","40","136589","0.0-40.0","46C36D77E4B247AE95721BC9779FE422","a2b966f2-867d-4aef-889b-62ff1fbb942d","61e1ec61-13c7-4a8f-bf47-a91ec9909364","","null","<div style=""display: flex; justify-content: center; align-items: center;"">
                <img src=""images/other/blank.jpg"" style=""width: 300px; height: 300px;"" />
              </div>","null",""
"","","","","","html-keyboard-response","41","139591","0.0-41.0","46C36D77E4B247AE95721BC9779FE422","a2b966f2-867d-4aef-889b-62ff1fbb942d","61e1ec61-13c7-4a8f-bf47-a91ec9909364","","null","<div style=""display: flex; justify-content: center; align-items: center;"">
                <img src=""images/causal/causal_series_8/causal_series_8_a.jpg"" style=""width: 300px; height: 300px;"" />
              </div>","null",""
"","","","","","html-keyboard-response","42","142593","0.0-42.0","46C36D77E4B247AE95721BC9779FE422","a2b966f2-867d-4aef-889b-62ff1fbb942d","61e1ec61-13c7-4a8f-bf47-a91ec9909364","","null","<div style=""display: flex; justify-content: center; align-items: center;"">
                <img src=""images/causal/causal_series_8/causal_series_8_b.jpg"" style=""width: 300px; height: 300px;"" />
              </div>","null",""
"","","","","","html-keyboard-response","43","145599","0.0-43.0","46C36D77E4B247AE95721BC9779FE422","a2b966f2-867d-4aef-889b-62ff1fbb942d","61e1ec61-13c7-4a8f-bf47-a91ec9909364","","null","<div style=""display: flex; justify-content: center; align-items: center;"">
                <img src=""images/causal/causal_series_8/causal_series_8_c.jpg"" style=""width: 300px; height: 300px;"" />
              </div>","null",""
"","","","","","html-button-response","44","146462","0.0-44.0","46C36D77E4B247AE95721BC9779FE422","a2b966f2-867d-4aef-889b-62ff1fbb942d","61e1ec61-13c7-4a8f-bf47-a91ec9909364","","860","
    <div style=""display: flex; justify-content: center; align-items: center;"">
      <img src=""images/red_deck_2.png"" style=""width: 300px; height: 300px; margin-right: 10px;"" />
      <img src=""images/blue_deck_1.png"" style=""width: 300px; height: 300px;"" />
    </div>","0","0"
"","","","","","html-keyboard-response","45","149469","0.0-45.0-0.0-0.0","46C36D77E4B247AE95721BC9779FE422","a2b966f2-867d-4aef-889b-62ff1fbb942d","61e1ec61-13c7-4a8f-bf47-a91ec9909364","","null","<div style=""display: flex; justify-content: center; align-items: center;"">
                <img src=""images/causal/causal_series_8/causal_series_8_d.jpg"" style=""width: 300px; height: 300px;"" />
              </div>","null",""
"","","","","","html-keyboard-response","46","152480","0.0-46.0","46C36D77E4B247AE95721BC9779FE422","a2b966f2-867d-4aef-889b-62ff1fbb942d","61e1ec61-13c7-4a8f-bf47-a91ec9909364","","null","<div style=""display: flex; justify-content: center; align-items: center;"">
                <img src=""images/other/blank.jpg"" style=""width: 300px; height: 300px;"" />
              </div>","null",""
"","","","","","html-keyboard-response","47","155482","0.0-47.0","46C36D77E4B247AE95721BC9779FE422","a2b966f2-867d-4aef-889b-62ff1fbb942d","61e1ec61-13c7-4a8f-bf47-a91ec9909364","","null","<div style=""display: flex; justify-content: center; align-items: center;"">
                <img src=""images/causal/causal_series_4/causal_series_4_a.jpg"" style=""width: 300px; height: 300px;"" />
              </div>","null",""
"","","","","","html-keyboard-response","48","158493","0.0-48.0","46C36D77E4B247AE95721BC9779FE422","a2b966f2-867d-4aef-889b-62ff1fbb942d","61e1ec61-13c7-4a8f-bf47-a91ec9909364","","null","<div style=""display: flex; justify-content: center; align-items: center;"">
                <img src=""images/causal/causal_series_4/causal_series_4_b.jpg"" style=""width: 300px; height: 300px;"" />
              </div>","null",""
"","","","","","html-keyboard-response","49","161508","0.0-49.0","46C36D77E4B247AE95721BC9779FE422","a2b966f2-867d-4aef-889b-62ff1fbb942d","61e1ec61-13c7-4a8f-bf47-a91ec9909364","","null","<div style=""display: flex; justify-content: center; align-items: center;"">
                <img src=""images/causal/causal_series_4/causal_series_4_c.jpg"" style=""width: 300px; height: 300px;"" />
              </div>","null",""
"","","","","","html-button-response","50","168216","0.0-50.0","46C36D77E4B247AE95721BC9779FE422","a2b966f2-867d-4aef-889b-62ff1fbb942d","61e1ec61-13c7-4a8f-bf47-a91ec9909364","","6707","
    <div style=""display: flex; justify-content: center; align-items: center;"">
      <img src=""images/red_deck_2.png"" style=""width: 300px; height: 300px; margin-right: 10px;"" />
      <img src=""images/blue_deck_1.png"" style=""width: 300px; height: 300px;"" />
    </div>","1","1"
"","","","","","html-keyboard-response","51","171233","0.0-51.0-1.0-0.0","46C36D77E4B247AE95721BC9779FE422","a2b966f2-867d-4aef-889b-62ff1fbb942d","61e1ec61-13c7-4a8f-bf47-a91ec9909364","","null","<div style=""display: flex; justify-content: center; align-items: center;"">
                <img src=""images/semantic/semantic_series_3/semantic_series_3_d.jpg"" style=""width: 300px; height: 300px;"" />
              </div>","null",""
"","","","","","html-keyboard-response","52","174236","0.0-52.0","46C36D77E4B247AE95721BC9779FE422","a2b966f2-867d-4aef-889b-62ff1fbb942d","61e1ec61-13c7-4a8f-bf47-a91ec9909364","","null","<div style=""display: flex; justify-content: center; align-items: center;"">
                <img src=""images/other/blank.jpg"" style=""width: 300px; height: 300px;"" />
              </div>","null",""
"","","","","","html-keyboard-response","53","177242","0.0-53.0","46C36D77E4B247AE95721BC9779FE422","a2b966f2-867d-4aef-889b-62ff1fbb942d","61e1ec61-13c7-4a8f-bf47-a91ec9909364","","null","<div style=""display: flex; justify-content: center; align-items: center;"">
                <img src=""images/causal/causal_series_13/causal_series_13_a.jpg"" style=""width: 300px; height: 300px;"" />
              </div>","null",""
"","","","","","html-keyboard-response","54","180259","0.0-54.0","46C36D77E4B247AE95721BC9779FE422","a2b966f2-867d-4aef-889b-62ff1fbb942d","61e1ec61-13c7-4a8f-bf47-a91ec9909364","","null","<div style=""display: flex; justify-content: center; align-items: center;"">
                <img src=""images/causal/causal_series_13/causal_series_13_b.jpg"" style=""width: 300px; height: 300px;"" />
              </div>","null",""
"","","","","","html-keyboard-response","55","183270","0.0-55.0","46C36D77E4B247AE95721BC9779FE422","a2b966f2-867d-4aef-889b-62ff1fbb942d","61e1ec61-13c7-4a8f-bf47-a91ec9909364","","null","<div style=""display: flex; justify-content: center; align-items: center;"">
                <img src=""images/causal/causal_series_13/causal_series_13_c.jpg"" style=""width: 300px; height: 300px;"" />
              </div>","null",""
"","","","","","html-button-response","56","184363","0.0-56.0","46C36D77E4B247AE95721BC9779FE422","a2b966f2-867d-4aef-889b-62ff1fbb942d","61e1ec61-13c7-4a8f-bf47-a91ec9909364","","1093","
    <div style=""display: flex; justify-content: center; align-items: center;"">
      <img src=""images/red_deck_2.png"" style=""width: 300px; height: 300px; margin-right: 10px;"" />
      <img src=""images/blue_deck_1.png"" style=""width: 300px; height: 300px;"" />
    </div>","1","1"
"","","","","","html-keyboard-response","57","187370","0.0-57.0-1.0-0.0","46C36D77E4B247AE95721BC9779FE422","a2b966f2-867d-4aef-889b-62ff1fbb942d","61e1ec61-13c7-4a8f-bf47-a91ec9909364","","null","<div style=""display: flex; justify-content: center; align-items: center;"">
                <img src=""images/semantic/semantic_series_12/semantic_series_12_d.jpg"" style=""width: 300px; height: 300px;"" />
              </div>","null",""
"","","","","","html-keyboard-response","58","190377","0.0-58.0","46C36D77E4B247AE95721BC9779FE422","a2b966f2-867d-4aef-889b-62ff1fbb942d","61e1ec61-13c7-4a8f-bf47-a91ec9909364","","null","<div style=""display: flex; justify-content: center; align-items: center;"">
                <img src=""images/other/blank.jpg"" style=""width: 300px; height: 300px;"" />
              </div>","null",""
"","","","","","html-keyboard-response","59","193380","0.0-59.0","46C36D77E4B247AE95721BC9779FE422","a2b966f2-867d-4aef-889b-62ff1fbb942d","61e1ec61-13c7-4a8f-bf47-a91ec9909364","","null","<div style=""display: flex; justify-content: center; align-items: center;"">
                <img src=""images/causal/causal_series_10/causal_series_10_a.jpg"" style=""width: 300px; height: 300px;"" />
              </div>","null",""
"","","","","","html-keyboard-response","60","196384","0.0-60.0","46C36D77E4B247AE95721BC9779FE422","a2b966f2-867d-4aef-889b-62ff1fbb942d","61e1ec61-13c7-4a8f-bf47-a91ec9909364","","null","<div style=""display: flex; justify-content: center; align-items: center;"">
                <img src=""images/causal/causal_series_10/causal_series_10_b.jpg"" style=""width: 300px; height: 300px;"" />
              </div>","null",""
"","","","","","html-keyboard-response","61","199387","0.0-61.0","46C36D77E4B247AE95721BC9779FE422","a2b966f2-867d-4aef-889b-62ff1fbb942d","61e1ec61-13c7-4a8f-bf47-a91ec9909364","","null","<div style=""display: flex; justify-content: center; align-items: center;"">
                <img src=""images/causal/causal_series_10/causal_series_10_c.jpg"" style=""width: 300px; height: 300px;"" />
              </div>","null",""
"","","","","","html-button-response","62","200226","0.0-62.0","46C36D77E4B247AE95721BC9779FE422","a2b966f2-867d-4aef-889b-62ff1fbb942d","61e1ec61-13c7-4a8f-bf47-a91ec9909364","","838","
    <div style=""display: flex; justify-content: center; align-items: center;"">
      <img src=""images/red_deck_2.png"" style=""width: 300px; height: 300px; margin-right: 10px;"" />
      <img src=""images/blue_deck_1.png"" style=""width: 300px; height: 300px;"" />
    </div>","0","0"
"","","","","","html-keyboard-response","63","203239","0.0-63.0-0.0-0.0","46C36D77E4B247AE95721BC9779FE422","a2b966f2-867d-4aef-889b-62ff1fbb942d","61e1ec61-13c7-4a8f-bf47-a91ec9909364","","null","<div style=""display: flex; justify-content: center; align-items: center;"">
                <img src=""images/causal/causal_series_10/causal_series_10_d.jpg"" style=""width: 300px; height: 300px;"" />
              </div>","null",""
"","","","","","html-keyboard-response","64","206244","0.0-64.0","46C36D77E4B247AE95721BC9779FE422","a2b966f2-867d-4aef-889b-62ff1fbb942d","61e1ec61-13c7-4a8f-bf47-a91ec9909364","","null","<div style=""display: flex; justify-content: center; align-items: center;"">
                <img src=""images/other/blank.jpg"" style=""width: 300px; height: 300px;"" />
              </div>","null",""
"","","","","","html-keyboard-response","65","209248","0.0-65.0","46C36D77E4B247AE95721BC9779FE422","a2b966f2-867d-4aef-889b-62ff1fbb942d","61e1ec61-13c7-4a8f-bf47-a91ec9909364","","null","<div style=""display: flex; justify-content: center; align-items: center;"">
                <img src=""images/causal/causal_series_17/causal_series_17_a.jpg"" style=""width: 300px; height: 300px;"" />
              </div>","null",""
"","","","","","html-keyboard-response","66","212253","0.0-66.0","46C36D77E4B247AE95721BC9779FE422","a2b966f2-867d-4aef-889b-62ff1fbb942d","61e1ec61-13c7-4a8f-bf47-a91ec9909364","","null","<div style=""display: flex; justify-content: center; align-items: center;"">
                <img src=""images/causal/causal_series_17/causal_series_17_b.jpg"" style=""width: 300px; height: 300px;"" />
              </div>","null",""
"","","","","","html-keyboard-response","67","215258","0.0-67.0","46C36D77E4B247AE95721BC9779FE422","a2b966f2-867d-4aef-889b-62ff1fbb942d","61e1ec61-13c7-4a8f-bf47-a91ec9909364","","null","<div style=""display: flex; justify-content: center; align-items: center;"">
                <img src=""images/causal/causal_series_17/causal_series_17_c.jpg"" style=""width: 300px; height: 300px;"" />
              </div>","null",""
"","","","","","html-button-response","68","216276","0.0-68.0","46C36D77E4B247AE95721BC9779FE422","a2b966f2-867d-4aef-889b-62ff1fbb942d","61e1ec61-13c7-4a8f-bf47-a91ec9909364","","1018","
    <div style=""display: flex; justify-content: center; align-items: center;"">
      <img src=""images/red_deck_2.png"" style=""width: 300px; height: 300px; margin-right: 10px;"" />
      <img src=""images/blue_deck_1.png"" style=""width: 300px; height: 300px;"" />
    </div>","0","0"
"","","","","","html-keyboard-response","69","219285","0.0-69.0-0.0-0.0","46C36D77E4B247AE95721BC9779FE422","a2b966f2-867d-4aef-889b-62ff1fbb942d","61e1ec61-13c7-4a8f-bf47-a91ec9909364","","null","<div style=""display: flex; justify-content: center; align-items: center;"">
                <img src=""images/causal/causal_series_17/causal_series_17_d.jpg"" style=""width: 300px; height: 300px;"" />
              </div>","null",""
"","","","","","html-keyboard-response","70","222286","0.0-70.0","46C36D77E4B247AE95721BC9779FE422","a2b966f2-867d-4aef-889b-62ff1fbb942d","61e1ec61-13c7-4a8f-bf47-a91ec9909364","","null","<div style=""display: flex; justify-content: center; align-items: center;"">
                <img src=""images/other/blank.jpg"" style=""width: 300px; height: 300px;"" />
              </div>","null",""
"","","","","","html-keyboard-response","71","225302","0.0-71.0","46C36D77E4B247AE95721BC9779FE422","a2b966f2-867d-4aef-889b-62ff1fbb942d","61e1ec61-13c7-4a8f-bf47-a91ec9909364","","null","<div style=""display: flex; justify-content: center; align-items: center;"">
                <img src=""images/causal/causal_series_11/causal_series_11_a.jpg"" style=""width: 300px; height: 300px;"" />
              </div>","null",""
"","","","","","html-keyboard-response","72","228305","0.0-72.0","46C36D77E4B247AE95721BC9779FE422","a2b966f2-867d-4aef-889b-62ff1fbb942d","61e1ec61-13c7-4a8f-bf47-a91ec9909364","","null","<div style=""display: flex; justify-content: center; align-items: center;"">
                <img src=""images/causal/causal_series_11/causal_series_11_b.jpg"" style=""width: 300px; height: 300px;"" />
              </div>","null",""
"","","","","","html-keyboard-response","73","231308","0.0-73.0","46C36D77E4B247AE95721BC9779FE422","a2b966f2-867d-4aef-889b-62ff1fbb942d","61e1ec61-13c7-4a8f-bf47-a91ec9909364","","null","<div style=""display: flex; justify-content: center; align-items: center;"">
                <img src=""images/causal/causal_series_11/causal_series_11_c.jpg"" style=""width: 300px; height: 300px;"" />
              </div>","null",""
"","","","","","html-button-response","74","232034","0.0-74.0","46C36D77E4B247AE95721BC9779FE422","a2b966f2-867d-4aef-889b-62ff1fbb942d","61e1ec61-13c7-4a8f-bf47-a91ec9909364","","726","
    <div style=""display: flex; justify-content: center; align-items: center;"">
      <img src=""images/red_deck_2.png"" style=""width: 300px; height: 300px; margin-right: 10px;"" />
      <img src=""images/blue_deck_1.png"" style=""width: 300px; height: 300px;"" />
    </div>","0","0"
"","","","","","html-keyboard-response","75","235038","0.0-75.0-0.0-0.0","46C36D77E4B247AE95721BC9779FE422","a2b966f2-867d-4aef-889b-62ff1fbb942d","61e1ec61-13c7-4a8f-bf47-a91ec9909364","","null","<div style=""display: flex; justify-content: center; align-items: center;"">
                <img src=""images/causal/causal_series_11/causal_series_11_d.jpg"" style=""width: 300px; height: 300px;"" />
              </div>","null",""
"","","","","","html-keyboard-response","76","238046","0.0-76.0","46C36D77E4B247AE95721BC9779FE422","a2b966f2-867d-4aef-889b-62ff1fbb942d","61e1ec61-13c7-4a8f-bf47-a91ec9909364","","null","<div style=""display: flex; justify-content: center; align-items: center;"">
                <img src=""images/other/blank.jpg"" style=""width: 300px; height: 300px;"" />
              </div>","null",""
"","","","","","html-keyboard-response","77","241055","0.0-77.0","46C36D77E4B247AE95721BC9779FE422","a2b966f2-867d-4aef-889b-62ff1fbb942d","61e1ec61-13c7-4a8f-bf47-a91ec9909364","","null","<div style=""display: flex; justify-content: center; align-items: center;"">
                <img src=""images/causal/causal_series_2/causal_series_2_a.jpg"" style=""width: 300px; height: 300px;"" />
              </div>","null",""
"","","","","","html-keyboard-response","78","244057","0.0-78.0","46C36D77E4B247AE95721BC9779FE422","a2b966f2-867d-4aef-889b-62ff1fbb942d","61e1ec61-13c7-4a8f-bf47-a91ec9909364","","null","<div style=""display: flex; justify-content: center; align-items: center;"">
                <img src=""images/causal/causal_series_2/causal_series_2_b.jpg"" style=""width: 300px; height: 300px;"" />
              </div>","null",""
"","","","","","html-keyboard-response","79","247058","0.0-79.0","46C36D77E4B247AE95721BC9779FE422","a2b966f2-867d-4aef-889b-62ff1fbb942d","61e1ec61-13c7-4a8f-bf47-a91ec9909364","","null","<div style=""display: flex; justify-content: center; align-items: center;"">
                <img src=""images/causal/causal_series_2/causal_series_2_c.jpg"" style=""width: 300px; height: 300px;"" />
              </div>","null",""
"","","","","","html-button-response","80","247627","0.0-80.0","46C36D77E4B247AE95721BC9779FE422","a2b966f2-867d-4aef-889b-62ff1fbb942d","61e1ec61-13c7-4a8f-bf47-a91ec9909364","","568","
    <div style=""display: flex; justify-content: center; align-items: center;"">
      <img src=""images/red_deck_2.png"" style=""width: 300px; height: 300px; margin-right: 10px;"" />
      <img src=""images/blue_deck_1.png"" style=""width: 300px; height: 300px;"" />
    </div>","0","0"
"","","","","","html-keyboard-response","81","250630","0.0-81.0-0.0-0.0","46C36D77E4B247AE95721BC9779FE422","a2b966f2-867d-4aef-889b-62ff1fbb942d","61e1ec61-13c7-4a8f-bf47-a91ec9909364","","null","<div style=""display: flex; justify-content: center; align-items: center;"">
                <img src=""images/causal/causal_series_2/causal_series_2_d.jpg"" style=""width: 300px; height: 300px;"" />
              </div>","null",""
"","","","","","html-keyboard-response","82","253633","0.0-82.0","46C36D77E4B247AE95721BC9779FE422","a2b966f2-867d-4aef-889b-62ff1fbb942d","61e1ec61-13c7-4a8f-bf47-a91ec9909364","","null","<div style=""display: flex; justify-content: center; align-items: center;"">
                <img src=""images/other/blank.jpg"" style=""width: 300px; height: 300px;"" />
              </div>","null",""
"","","","","","html-keyboard-response","83","256635","0.0-83.0","46C36D77E4B247AE95721BC9779FE422","a2b966f2-867d-4aef-889b-62ff1fbb942d","61e1ec61-13c7-4a8f-bf47-a91ec9909364","","null","<div style=""display: flex; justify-content: center; align-items: center;"">
                <img src=""images/causal/causal_series_7/causal_series_7_a.jpg"" style=""width: 300px; height: 300px;"" />
              </div>","null",""
"","","","","","html-keyboard-response","84","259648","0.0-84.0","46C36D77E4B247AE95721BC9779FE422","a2b966f2-867d-4aef-889b-62ff1fbb942d","61e1ec61-13c7-4a8f-bf47-a91ec9909364","","null","<div style=""display: flex; justify-content: center; align-items: center;"">
                <img src=""images/causal/causal_series_7/causal_series_7_b.jpg"" style=""width: 300px; height: 300px;"" />
              </div>","null",""
"","","","","","html-keyboard-response","85","262661","0.0-85.0","46C36D77E4B247AE95721BC9779FE422","a2b966f2-867d-4aef-889b-62ff1fbb942d","61e1ec61-13c7-4a8f-bf47-a91ec9909364","","null","<div style=""display: flex; justify-content: center; align-items: center;"">
                <img src=""images/causal/causal_series_7/causal_series_7_c.jpg"" style=""width: 300px; height: 300px;"" />
              </div>","null",""
"","","","","","html-button-response","86","264022","0.0-86.0","46C36D77E4B247AE95721BC9779FE422","a2b966f2-867d-4aef-889b-62ff1fbb942d","61e1ec61-13c7-4a8f-bf47-a91ec9909364","","1360","
    <div style=""display: flex; justify-content: center; align-items: center;"">
      <img src=""images/red_deck_2.png"" style=""width: 300px; height: 300px; margin-right: 10px;"" />
      <img src=""images/blue_deck_1.png"" style=""width: 300px; height: 300px;"" />
    </div>","1","1"
"","","","","","html-keyboard-response","87","267032","0.0-87.0-1.0-0.0","46C36D77E4B247AE95721BC9779FE422","a2b966f2-867d-4aef-889b-62ff1fbb942d","61e1ec61-13c7-4a8f-bf47-a91ec9909364","","null","<div style=""display: flex; justify-content: center; align-items: center;"">
                <img src=""images/semantic/semantic_series_6/semantic_series_6_d.jpg"" style=""width: 300px; height: 300px;"" />
              </div>","null",""
"","","","","","html-keyboard-response","88","270039","0.0-88.0","46C36D77E4B247AE95721BC9779FE422","a2b966f2-867d-4aef-889b-62ff1fbb942d","61e1ec61-13c7-4a8f-bf47-a91ec9909364","","null","<div style=""display: flex; justify-content: center; align-items: center;"">
                <img src=""images/other/blank.jpg"" style=""width: 300px; height: 300px;"" />
              </div>","null",""
"","","","","","html-keyboard-response","89","273055","0.0-89.0","46C36D77E4B247AE95721BC9779FE422","a2b966f2-867d-4aef-889b-62ff1fbb942d","61e1ec61-13c7-4a8f-bf47-a91ec9909364","","null","<div style=""display: flex; justify-content: center; align-items: center;"">
                <img src=""images/causal/causal_series_9/causal_series_9_a.jpg"" style=""width: 300px; height: 300px;"" />
              </div>","null",""
"","","","","","html-keyboard-response","90","276067","0.0-90.0","46C36D77E4B247AE95721BC9779FE422","a2b966f2-867d-4aef-889b-62ff1fbb942d","61e1ec61-13c7-4a8f-bf47-a91ec9909364","","null","<div style=""display: flex; justify-content: center; align-items: center;"">
                <img src=""images/causal/causal_series_9/causal_series_9_b.jpg"" style=""width: 300px; height: 300px;"" />
              </div>","null",""
"","","","","","html-keyboard-response","91","279073","0.0-91.0","46C36D77E4B247AE95721BC9779FE422","a2b966f2-867d-4aef-889b-62ff1fbb942d","61e1ec61-13c7-4a8f-bf47-a91ec9909364","","null","<div style=""display: flex; justify-content: center; align-items: center;"">
                <img src=""images/causal/causal_series_9/causal_series_9_c.jpg"" style=""width: 300px; height: 300px;"" />
              </div>","null",""
"","","","","","html-button-response","92","287727","0.0-92.0","46C36D77E4B247AE95721BC9779FE422","a2b966f2-867d-4aef-889b-62ff1fbb942d","61e1ec61-13c7-4a8f-bf47-a91ec9909364","","8654","
    <div style=""display: flex; justify-content: center; align-items: center;"">
      <img src=""images/red_deck_2.png"" style=""width: 300px; height: 300px; margin-right: 10px;"" />
      <img src=""images/blue_deck_1.png"" style=""width: 300px; height: 300px;"" />
    </div>","1","1"
"","","","","","html-keyboard-response","93","290741","0.0-93.0-1.0-0.0","46C36D77E4B247AE95721BC9779FE422","a2b966f2-867d-4aef-889b-62ff1fbb942d","61e1ec61-13c7-4a8f-bf47-a91ec9909364","","null","<div style=""display: flex; justify-content: center; align-items: center;"">
                <img src=""images/semantic/semantic_series_8/semantic_series_8_d.jpg"" style=""width: 300px; height: 300px;"" />
              </div>","null",""
"","","","","","html-keyboard-response","94","293743","0.0-94.0","46C36D77E4B247AE95721BC9779FE422","a2b966f2-867d-4aef-889b-62ff1fbb942d","61e1ec61-13c7-4a8f-bf47-a91ec9909364","","null","<div style=""display: flex; justify-content: center; align-items: center;"">
                <img src=""images/other/blank.jpg"" style=""width: 300px; height: 300px;"" />
              </div>","null",""
"","","","","","html-keyboard-response","95","296748","0.0-95.0","46C36D77E4B247AE95721BC9779FE422","a2b966f2-867d-4aef-889b-62ff1fbb942d","61e1ec61-13c7-4a8f-bf47-a91ec9909364","","null","<div style=""display: flex; justify-content: center; align-items: center;"">
                <img src=""images/causal/causal_series_5/causal_series_5_a.jpg"" style=""width: 300px; height: 300px;"" />
              </div>","null",""
"","","","","","html-keyboard-response","96","299753","0.0-96.0","46C36D77E4B247AE95721BC9779FE422","a2b966f2-867d-4aef-889b-62ff1fbb942d","61e1ec61-13c7-4a8f-bf47-a91ec9909364","","null","<div style=""display: flex; justify-content: center; align-items: center;"">
                <img src=""images/causal/causal_series_5/causal_series_5_b.jpg"" style=""width: 300px; height: 300px;"" />
              </div>","null",""
"","","","","","html-keyboard-response","97","302755","0.0-97.0","46C36D77E4B247AE95721BC9779FE422","a2b966f2-867d-4aef-889b-62ff1fbb942d","61e1ec61-13c7-4a8f-bf47-a91ec9909364","","null","<div style=""display: flex; justify-content: center; align-items: center;"">
                <img src=""images/causal/causal_series_5/causal_series_5_c.jpg"" style=""width: 300px; height: 300px;"" />
              </div>","null",""
"","","","","","html-button-response","98","307533","0.0-98.0","46C36D77E4B247AE95721BC9779FE422","a2b966f2-867d-4aef-889b-62ff1fbb942d","61e1ec61-13c7-4a8f-bf47-a91ec9909364","","4778","
    <div style=""display: flex; justify-content: center; align-items: center;"">
      <img src=""images/red_deck_2.png"" style=""width: 300px; height: 300px; margin-right: 10px;"" />
      <img src=""images/blue_deck_1.png"" style=""width: 300px; height: 300px;"" />
    </div>","0","0"
"","","","","","html-keyboard-response","99","310543","0.0-99.0-0.0-0.0","46C36D77E4B247AE95721BC9779FE422","a2b966f2-867d-4aef-889b-62ff1fbb942d","61e1ec61-13c7-4a8f-bf47-a91ec9909364","","null","<div style=""display: flex; justify-content: center; align-items: center;"">
                <img src=""images/causal/causal_series_5/causal_series_5_d.jpg"" style=""width: 300px; height: 300px;"" />
              </div>","null",""
"","","","","","html-keyboard-response","100","313554","0.0-100.0","46C36D77E4B247AE95721BC9779FE422","a2b966f2-867d-4aef-889b-62ff1fbb942d","61e1ec61-13c7-4a8f-bf47-a91ec9909364","","null","<div style=""display: flex; justify-content: center; align-items: center;"">
                <img src=""images/other/blank.jpg"" style=""width: 300px; height: 300px;"" />
              </div>","null",""
"","","","","","html-keyboard-response","101","316560","0.0-101.0","46C36D77E4B247AE95721BC9779FE422","a2b966f2-867d-4aef-889b-62ff1fbb942d","61e1ec61-13c7-4a8f-bf47-a91ec9909364","","null","<div style=""display: flex; justify-content: center; align-items: center;"">
                <img src=""images/causal/causal_series_1/causal_series_1_a.jpg"" style=""width: 300px; height: 300px;"" />
              </div>","null",""
"","","","","","html-keyboard-response","102","319570","0.0-102.0","46C36D77E4B247AE95721BC9779FE422","a2b966f2-867d-4aef-889b-62ff1fbb942d","61e1ec61-13c7-4a8f-bf47-a91ec9909364","","null","<div style=""display: flex; justify-content: center; align-items: center;"">
                <img src=""images/causal/causal_series_1/causal_series_1_b.jpg"" style=""width: 300px; height: 300px;"" />
              </div>","null",""
"","","","","","html-keyboard-response","103","322573","0.0-103.0","46C36D77E4B247AE95721BC9779FE422","a2b966f2-867d-4aef-889b-62ff1fbb942d","61e1ec61-13c7-4a8f-bf47-a91ec9909364","","null","<div style=""display: flex; justify-content: center; align-items: center;"">
                <img src=""images/causal/causal_series_1/causal_series_1_c.jpg"" style=""width: 300px; height: 300px;"" />
              </div>","null",""
"","","","","","html-button-response","104","325127","0.0-104.0","46C36D77E4B247AE95721BC9779FE422","a2b966f2-867d-4aef-889b-62ff1fbb942d","61e1ec61-13c7-4a8f-bf47-a91ec9909364","","2553","
    <div style=""display: flex; justify-content: center; align-items: center;"">
      <img src=""images/red_deck_2.png"" style=""width: 300px; height: 300px; margin-right: 10px;"" />
      <img src=""images/blue_deck_1.png"" style=""width: 300px; height: 300px;"" />
    </div>","0","0"
"","","","","","html-keyboard-response","105","328130","0.0-105.0-0.0-0.0","46C36D77E4B247AE95721BC9779FE422","a2b966f2-867d-4aef-889b-62ff1fbb942d","61e1ec61-13c7-4a8f-bf47-a91ec9909364","","null","<div style=""display: flex; justify-content: center; align-items: center;"">
                <img src=""images/causal/causal_series_1/causal_series_1_d.jpg"" style=""width: 300px; height: 300px;"" />
              </div>","null",""
"","","","","","html-keyboard-response","106","331148","0.0-106.0","46C36D77E4B247AE95721BC9779FE422","a2b966f2-867d-4aef-889b-62ff1fbb942d","61e1ec61-13c7-4a8f-bf47-a91ec9909364","","null","<div style=""display: flex; justify-content: center; align-items: center;"">
                <img src=""images/other/blank.jpg"" style=""width: 300px; height: 300px;"" />
              </div>","null",""
"","","","","","html-keyboard-response","107","334157","0.0-107.0","46C36D77E4B247AE95721BC9779FE422","a2b966f2-867d-4aef-889b-62ff1fbb942d","61e1ec61-13c7-4a8f-bf47-a91ec9909364","","null","<div style=""display: flex; justify-content: center; align-items: center;"">
                <img src=""images/causal/causal_series_6/causal_series_6_a.jpg"" style=""width: 300px; height: 300px;"" />
              </div>","null",""
"","","","","","html-keyboard-response","108","337171","0.0-108.0","46C36D77E4B247AE95721BC9779FE422","a2b966f2-867d-4aef-889b-62ff1fbb942d","61e1ec61-13c7-4a8f-bf47-a91ec9909364","","null","<div style=""display: flex; justify-content: center; align-items: center;"">
                <img src=""images/causal/causal_series_6/causal_series_6_b.jpg"" style=""width: 300px; height: 300px;"" />
              </div>","null",""
"","","","","","html-keyboard-response","109","340176","0.0-109.0","46C36D77E4B247AE95721BC9779FE422","a2b966f2-867d-4aef-889b-62ff1fbb942d","61e1ec61-13c7-4a8f-bf47-a91ec9909364","","null","<div style=""display: flex; justify-content: center; align-items: center;"">
                <img src=""images/causal/causal_series_6/causal_series_6_c.jpg"" style=""width: 300px; height: 300px;"" />
              </div>","null",""
"","","","","","html-button-response","110","344920","0.0-110.0","46C36D77E4B247AE95721BC9779FE422","a2b966f2-867d-4aef-889b-62ff1fbb942d","61e1ec61-13c7-4a8f-bf47-a91ec9909364","","4743","
    <div style=""display: flex; justify-content: center; align-items: center;"">
      <img src=""images/red_deck_2.png"" style=""width: 300px; height: 300px; margin-right: 10px;"" />
      <img src=""images/blue_deck_1.png"" style=""width: 300px; height: 300px;"" />
    </div>","1","1"
"","","","","","html-keyboard-response","111","347923","0.0-111.0-1.0-0.0","46C36D77E4B247AE95721BC9779FE422","a2b966f2-867d-4aef-889b-62ff1fbb942d","61e1ec61-13c7-4a8f-bf47-a91ec9909364","","null","<div style=""display: flex; justify-content: center; align-items: center;"">
                <img src=""images/semantic/semantic_series_5/semantic_series_5_d.jpg"" style=""width: 300px; height: 300px;"" />
              </div>","null",""
"","","","","","html-keyboard-response","112","350935","0.0-112.0","46C36D77E4B247AE95721BC9779FE422","a2b966f2-867d-4aef-889b-62ff1fbb942d","61e1ec61-13c7-4a8f-bf47-a91ec9909364","","null","<div style=""display: flex; justify-content: center; align-items: center;"">
                <img src=""images/other/blank.jpg"" style=""width: 300px; height: 300px;"" />
              </div>","null",""
"","","","","","survey-text","113","364844","0.0-113.0","46C36D77E4B247AE95721BC9779FE422","a2b966f2-867d-4aef-889b-62ff1fbb942d","61e1ec61-13c7-4a8f-bf47-a91ec9909364","","13889","","{""Q0"":""One deck told a story, the other deck showed images""}",""
"","","","","","survey-text","114","375558","0.0-114.0","46C36D77E4B247AE95721BC9779FE422","a2b966f2-867d-4aef-889b-62ff1fbb942d","61e1ec61-13c7-4a8f-bf47-a91ec9909364","","10712","","{""Q0"":""I found the red deck more interesting""}",""
"","","","","","html-button-response","115","380794","0.0-115.0","46C36D77E4B247AE95721BC9779FE422","a2b966f2-867d-4aef-889b-62ff1fbb942d","61e1ec61-13c7-4a8f-bf47-a91ec9909364","","5234","Which color deck does the fourth image continue the story from the series?","0",""
"","","","","","html-button-response","116","383081","0.0-116.0","46C36D77E4B247AE95721BC9779FE422","a2b966f2-867d-4aef-889b-62ff1fbb942d","61e1ec61-13c7-4a8f-bf47-a91ec9909364","","2286","Which color deck does the fourth image not follow the story from the series?","1",""
"","","","","","survey-text","117","388163","0.0-117.0","46C36D77E4B247AE95721BC9779FE422","a2b966f2-867d-4aef-889b-62ff1fbb942d","61e1ec61-13c7-4a8f-bf47-a91ec9909364","","5080","","{""Q0"":""Male"",""Q1"":""33""}",""
"","","","","","instructions","118","391332","0.0-118.0","46C36D77E4B247AE95721BC9779FE422","a2b966f2-867d-4aef-889b-62ff1fbb942d","61e1ec61-13c7-4a8f-bf47-a91ec9909364","[{""page_index"":0,""viewing_time"":3168}]","3168","","",""
