"success","timeout","failed_images","failed_audio","failed_video","trial_type","trial_index","time_elapsed","internal_node_id","subject_id","study_id","session_id","view_history","rt","stimulus","response","choice"
"true","false","[]","[]","[]","preload","0","2300","0.0-0.0","FF0BAF21C46C4D9ABA513C417FFA195F","c382acf8-0089-4197-947b-5929764a81fb","935a6d0c-0ba8-4f12-81d2-6af4ae24cda6","","","","",""
"","","","","","instructions","1","6994","0.0-1.0","FF0BAF21C46C4D9ABA513C417FFA195F","c382acf8-0089-4197-947b-5929764a81fb","935a6d0c-0ba8-4f12-81d2-6af4ae24cda6","[{""page_index"":0,""viewing_time"":4693}]","4694","","",""
"","","","","","instructions","2","31358","0.0-2.0","FF0BAF21C46C4D9ABA513C417FFA195F","c382acf8-0089-4197-947b-5929764a81fb","935a6d0c-0ba8-4f12-81d2-6af4ae24cda6","[{""page_index"":0,""viewing_time"":24363}]","24363","","",""
"true","","","","","fullscreen","3","33671","0.0-3.0","FF0BAF21C46C4D9ABA513C417FFA195F","c382acf8-0089-4197-947b-5929764a81fb","935a6d0c-0ba8-4f12-81d2-6af4ae24cda6","","1296","","",""
"","","","","","instructions","4","45852","0.0-4.0","FF0BAF21C46C4D9ABA513C417FFA195F","c382acf8-0089-4197-947b-5929764a81fb","935a6d0c-0ba8-4f12-81d2-6af4ae24cda6","[{""page_index"":0,""viewing_time"":12180}]","12181","","",""
"","","","","","html-keyboard-response","5","48853","0.0-5.0","FF0BAF21C46C4D9ABA513C417FFA195F","c382acf8-0089-4197-947b-5929764a81fb","935a6d0c-0ba8-4f12-81d2-6af4ae24cda6","","null","<div style=""display: flex; justify-content: center; align-items: center;"">
                <img src=""images/causal/causal_series_3/causal_series_3_a.jpg"" style=""width: 300px; height: 300px;"" />
              </div>","null",""
"","","","","","html-button-response","6","50178","0.0-6.0","FF0BAF21C46C4D9ABA513C417FFA195F","c382acf8-0089-4197-947b-5929764a81fb","935a6d0c-0ba8-4f12-81d2-6af4ae24cda6","","1324","
    <div style=""display: flex; justify-content: center; align-items: center;"">
      <img src=""images/red_deck_2.png"" style=""width: 300px; height: 300px; margin-right: 10px;"" />
      <img src=""images/blue_deck_1.png"" style=""width: 300px; height: 300px;"" />
    </div>","0","0"
"","","","","","html-keyboard-response","7","53191","0.0-7.0-0.0-0.0","FF0BAF21C46C4D9ABA513C417FFA195F","c382acf8-0089-4197-947b-5929764a81fb","935a6d0c-0ba8-4f12-81d2-6af4ae24cda6","","null","<div style=""display: flex; justify-content: center; align-items: center;"">
                <img src=""images/causal/causal_series_3/causal_series_3_b.jpg"" style=""width: 300px; height: 300px;"" />
              </div>","null",""
"","","","","","html-keyboard-response","8","56198","0.0-7.0-0.0-1.0","FF0BAF21C46C4D9ABA513C417FFA195F","c382acf8-0089-4197-947b-5929764a81fb","935a6d0c-0ba8-4f12-81d2-6af4ae24cda6","","null","<div style=""display: flex; justify-content: center; align-items: center;"">
                <img src=""images/causal/causal_series_3/causal_series_3_c.jpg"" style=""width: 300px; height: 300px;"" />
              </div>","null",""
"","","","","","html-keyboard-response","9","59200","0.0-7.0-0.0-2.0","FF0BAF21C46C4D9ABA513C417FFA195F","c382acf8-0089-4197-947b-5929764a81fb","935a6d0c-0ba8-4f12-81d2-6af4ae24cda6","","null","<div style=""display: flex; justify-content: center; align-items: center;"">
                <img src=""images/causal/causal_series_3/causal_series_3_d.jpg"" style=""width: 300px; height: 300px;"" />
              </div>","null",""
"","","","","","html-keyboard-response","10","62203","0.0-8.0","FF0BAF21C46C4D9ABA513C417FFA195F","c382acf8-0089-4197-947b-5929764a81fb","935a6d0c-0ba8-4f12-81d2-6af4ae24cda6","","null","<div style=""display: flex; justify-content: center; align-items: center;"">
                <img src=""images/other/blank.jpg"" style=""width: 300px; height: 300px;"" />
              </div>","null",""
"","","","","","html-keyboard-response","11","65209","0.0-9.0","FF0BAF21C46C4D9ABA513C417FFA195F","c382acf8-0089-4197-947b-5929764a81fb","935a6d0c-0ba8-4f12-81d2-6af4ae24cda6","","null","<div style=""display: flex; justify-content: center; align-items: center;"">
                <img src=""images/causal/causal_series_17/causal_series_17_a.jpg"" style=""width: 300px; height: 300px;"" />
              </div>","null",""
"","","","","","html-button-response","12","66854","0.0-10.0","FF0BAF21C46C4D9ABA513C417FFA195F","c382acf8-0089-4197-947b-5929764a81fb","935a6d0c-0ba8-4f12-81d2-6af4ae24cda6","","1644","
    <div style=""display: flex; justify-content: center; align-items: center;"">
      <img src=""images/red_deck_2.png"" style=""width: 300px; height: 300px; margin-right: 10px;"" />
      <img src=""images/blue_deck_1.png"" style=""width: 300px; height: 300px;"" />
    </div>","1","1"
"","","","","","html-keyboard-response","13","69870","0.0-11.0-1.0-0.0","FF0BAF21C46C4D9ABA513C417FFA195F","c382acf8-0089-4197-947b-5929764a81fb","935a6d0c-0ba8-4f12-81d2-6af4ae24cda6","","null","<div style=""display: flex; justify-content: center; align-items: center;"">
                <img src=""images/semantic/semantic_series_12/semantic_series_12_d.jpg"" style=""width: 300px; height: 300px;"" />
              </div>","null",""
"","","","","","html-keyboard-response","14","72874","0.0-11.0-1.0-1.0","FF0BAF21C46C4D9ABA513C417FFA195F","c382acf8-0089-4197-947b-5929764a81fb","935a6d0c-0ba8-4f12-81d2-6af4ae24cda6","","null","<div style=""display: flex; justify-content: center; align-items: center;"">
                <img src=""images/semantic/semantic_series_13/semantic_series_13_d.jpg"" style=""width: 300px; height: 300px;"" />
              </div>","null",""
"","","","","","html-keyboard-response","15","75881","0.0-11.0-1.0-2.0","FF0BAF21C46C4D9ABA513C417FFA195F","c382acf8-0089-4197-947b-5929764a81fb","935a6d0c-0ba8-4f12-81d2-6af4ae24cda6","","null","<div style=""display: flex; justify-content: center; align-items: center;"">
                <img src=""images/semantic/semantic_series_14/semantic_series_14_d.jpg"" style=""width: 300px; height: 300px;"" />
              </div>","null",""
"","","","","","html-keyboard-response","16","78886","0.0-12.0","FF0BAF21C46C4D9ABA513C417FFA195F","c382acf8-0089-4197-947b-5929764a81fb","935a6d0c-0ba8-4f12-81d2-6af4ae24cda6","","null","<div style=""display: flex; justify-content: center; align-items: center;"">
                <img src=""images/other/blank.jpg"" style=""width: 300px; height: 300px;"" />
              </div>","null",""
"","","","","","html-keyboard-response","17","81891","0.0-13.0","FF0BAF21C46C4D9ABA513C417FFA195F","c382acf8-0089-4197-947b-5929764a81fb","935a6d0c-0ba8-4f12-81d2-6af4ae24cda6","","null","<div style=""display: flex; justify-content: center; align-items: center;"">
                <img src=""images/causal/causal_series_11/causal_series_11_a.jpg"" style=""width: 300px; height: 300px;"" />
              </div>","null",""
"","","","","","html-button-response","18","89045","0.0-14.0","FF0BAF21C46C4D9ABA513C417FFA195F","c382acf8-0089-4197-947b-5929764a81fb","935a6d0c-0ba8-4f12-81d2-6af4ae24cda6","","7153","
    <div style=""display: flex; justify-content: center; align-items: center;"">
      <img src=""images/red_deck_2.png"" style=""width: 300px; height: 300px; margin-right: 10px;"" />
      <img src=""images/blue_deck_1.png"" style=""width: 300px; height: 300px;"" />
    </div>","0","0"
"","","","","","html-keyboard-response","19","92051","0.0-15.0-0.0-0.0","FF0BAF21C46C4D9ABA513C417FFA195F","c382acf8-0089-4197-947b-5929764a81fb","935a6d0c-0ba8-4f12-81d2-6af4ae24cda6","","null","<div style=""display: flex; justify-content: center; align-items: center;"">
                <img src=""images/causal/causal_series_11/causal_series_11_b.jpg"" style=""width: 300px; height: 300px;"" />
              </div>","null",""
"","","","","","html-keyboard-response","20","95066","0.0-15.0-0.0-1.0","FF0BAF21C46C4D9ABA513C417FFA195F","c382acf8-0089-4197-947b-5929764a81fb","935a6d0c-0ba8-4f12-81d2-6af4ae24cda6","","null","<div style=""display: flex; justify-content: center; align-items: center;"">
                <img src=""images/causal/causal_series_11/causal_series_11_c.jpg"" style=""width: 300px; height: 300px;"" />
              </div>","null",""
"","","","","","html-keyboard-response","21","98069","0.0-15.0-0.0-2.0","FF0BAF21C46C4D9ABA513C417FFA195F","c382acf8-0089-4197-947b-5929764a81fb","935a6d0c-0ba8-4f12-81d2-6af4ae24cda6","","null","<div style=""display: flex; justify-content: center; align-items: center;"">
                <img src=""images/causal/causal_series_11/causal_series_11_d.jpg"" style=""width: 300px; height: 300px;"" />
              </div>","null",""
"","","","","","html-keyboard-response","22","101085","0.0-16.0","FF0BAF21C46C4D9ABA513C417FFA195F","c382acf8-0089-4197-947b-5929764a81fb","935a6d0c-0ba8-4f12-81d2-6af4ae24cda6","","null","<div style=""display: flex; justify-content: center; align-items: center;"">
                <img src=""images/other/blank.jpg"" style=""width: 300px; height: 300px;"" />
              </div>","null",""
"","","","","","html-keyboard-response","23","104093","0.0-17.0","FF0BAF21C46C4D9ABA513C417FFA195F","c382acf8-0089-4197-947b-5929764a81fb","935a6d0c-0ba8-4f12-81d2-6af4ae24cda6","","null","<div style=""display: flex; justify-content: center; align-items: center;"">
                <img src=""images/causal/causal_series_18/causal_series_18_a.jpg"" style=""width: 300px; height: 300px;"" />
              </div>","null",""
"","","","","","html-button-response","24","107029","0.0-18.0","FF0BAF21C46C4D9ABA513C417FFA195F","c382acf8-0089-4197-947b-5929764a81fb","935a6d0c-0ba8-4f12-81d2-6af4ae24cda6","","2935","
    <div style=""display: flex; justify-content: center; align-items: center;"">
      <img src=""images/red_deck_2.png"" style=""width: 300px; height: 300px; margin-right: 10px;"" />
      <img src=""images/blue_deck_1.png"" style=""width: 300px; height: 300px;"" />
    </div>","0","0"
"","","","","","html-keyboard-response","25","110033","0.0-19.0-0.0-0.0","FF0BAF21C46C4D9ABA513C417FFA195F","c382acf8-0089-4197-947b-5929764a81fb","935a6d0c-0ba8-4f12-81d2-6af4ae24cda6","","null","<div style=""display: flex; justify-content: center; align-items: center;"">
                <img src=""images/causal/causal_series_18/causal_series_18_b.jpg"" style=""width: 300px; height: 300px;"" />
              </div>","null",""
"","","","","","html-keyboard-response","26","113044","0.0-19.0-0.0-1.0","FF0BAF21C46C4D9ABA513C417FFA195F","c382acf8-0089-4197-947b-5929764a81fb","935a6d0c-0ba8-4f12-81d2-6af4ae24cda6","","null","<div style=""display: flex; justify-content: center; align-items: center;"">
                <img src=""images/causal/causal_series_18/causal_series_18_c.jpg"" style=""width: 300px; height: 300px;"" />
              </div>","null",""
"","","","","","html-keyboard-response","27","116048","0.0-19.0-0.0-2.0","FF0BAF21C46C4D9ABA513C417FFA195F","c382acf8-0089-4197-947b-5929764a81fb","935a6d0c-0ba8-4f12-81d2-6af4ae24cda6","","null","<div style=""display: flex; justify-content: center; align-items: center;"">
                <img src=""images/causal/causal_series_18/causal_series_18_d.jpg"" style=""width: 300px; height: 300px;"" />
              </div>","null",""
"","","","","","html-keyboard-response","28","119061","0.0-20.0","FF0BAF21C46C4D9ABA513C417FFA195F","c382acf8-0089-4197-947b-5929764a81fb","935a6d0c-0ba8-4f12-81d2-6af4ae24cda6","","null","<div style=""display: flex; justify-content: center; align-items: center;"">
                <img src=""images/other/blank.jpg"" style=""width: 300px; height: 300px;"" />
              </div>","null",""
"","","","","","html-keyboard-response","29","122063","0.0-21.0","FF0BAF21C46C4D9ABA513C417FFA195F","c382acf8-0089-4197-947b-5929764a81fb","935a6d0c-0ba8-4f12-81d2-6af4ae24cda6","","null","<div style=""display: flex; justify-content: center; align-items: center;"">
                <img src=""images/causal/causal_series_7/causal_series_7_a.jpg"" style=""width: 300px; height: 300px;"" />
              </div>","null",""
"","","","","","html-button-response","30","123520","0.0-22.0","FF0BAF21C46C4D9ABA513C417FFA195F","c382acf8-0089-4197-947b-5929764a81fb","935a6d0c-0ba8-4f12-81d2-6af4ae24cda6","","1456","
    <div style=""display: flex; justify-content: center; align-items: center;"">
      <img src=""images/red_deck_2.png"" style=""width: 300px; height: 300px; margin-right: 10px;"" />
      <img src=""images/blue_deck_1.png"" style=""width: 300px; height: 300px;"" />
    </div>","0","0"
"","","","","","html-keyboard-response","31","126531","0.0-23.0-0.0-0.0","FF0BAF21C46C4D9ABA513C417FFA195F","c382acf8-0089-4197-947b-5929764a81fb","935a6d0c-0ba8-4f12-81d2-6af4ae24cda6","","null","<div style=""display: flex; justify-content: center; align-items: center;"">
                <img src=""images/causal/causal_series_7/causal_series_7_b.jpg"" style=""width: 300px; height: 300px;"" />
              </div>","null",""
"","","","","","html-keyboard-response","32","129546","0.0-23.0-0.0-1.0","FF0BAF21C46C4D9ABA513C417FFA195F","c382acf8-0089-4197-947b-5929764a81fb","935a6d0c-0ba8-4f12-81d2-6af4ae24cda6","","null","<div style=""display: flex; justify-content: center; align-items: center;"">
                <img src=""images/causal/causal_series_7/causal_series_7_c.jpg"" style=""width: 300px; height: 300px;"" />
              </div>","null",""
"","","","","","html-keyboard-response","33","132562","0.0-23.0-0.0-2.0","FF0BAF21C46C4D9ABA513C417FFA195F","c382acf8-0089-4197-947b-5929764a81fb","935a6d0c-0ba8-4f12-81d2-6af4ae24cda6","","null","<div style=""display: flex; justify-content: center; align-items: center;"">
                <img src=""images/causal/causal_series_7/causal_series_7_d.jpg"" style=""width: 300px; height: 300px;"" />
              </div>","null",""
"","","","","","html-keyboard-response","34","135572","0.0-24.0","FF0BAF21C46C4D9ABA513C417FFA195F","c382acf8-0089-4197-947b-5929764a81fb","935a6d0c-0ba8-4f12-81d2-6af4ae24cda6","","null","<div style=""display: flex; justify-content: center; align-items: center;"">
                <img src=""images/other/blank.jpg"" style=""width: 300px; height: 300px;"" />
              </div>","null",""
"","","","","","html-keyboard-response","35","138575","0.0-25.0","FF0BAF21C46C4D9ABA513C417FFA195F","c382acf8-0089-4197-947b-5929764a81fb","935a6d0c-0ba8-4f12-81d2-6af4ae24cda6","","null","<div style=""display: flex; justify-content: center; align-items: center;"">
                <img src=""images/causal/causal_series_15/causal_series_15_a.jpg"" style=""width: 300px; height: 300px;"" />
              </div>","null",""
"","","","","","html-button-response","36","139467","0.0-26.0","FF0BAF21C46C4D9ABA513C417FFA195F","c382acf8-0089-4197-947b-5929764a81fb","935a6d0c-0ba8-4f12-81d2-6af4ae24cda6","","891","
    <div style=""display: flex; justify-content: center; align-items: center;"">
      <img src=""images/red_deck_2.png"" style=""width: 300px; height: 300px; margin-right: 10px;"" />
      <img src=""images/blue_deck_1.png"" style=""width: 300px; height: 300px;"" />
    </div>","0","0"
"","","","","","html-keyboard-response","37","142473","0.0-27.0-0.0-0.0","FF0BAF21C46C4D9ABA513C417FFA195F","c382acf8-0089-4197-947b-5929764a81fb","935a6d0c-0ba8-4f12-81d2-6af4ae24cda6","","null","<div style=""display: flex; justify-content: center; align-items: center;"">
                <img src=""images/causal/causal_series_15/causal_series_15_b.jpg"" style=""width: 300px; height: 300px;"" />
              </div>","null",""
"","","","","","html-keyboard-response","38","145476","0.0-27.0-0.0-1.0","FF0BAF21C46C4D9ABA513C417FFA195F","c382acf8-0089-4197-947b-5929764a81fb","935a6d0c-0ba8-4f12-81d2-6af4ae24cda6","","null","<div style=""display: flex; justify-content: center; align-items: center;"">
                <img src=""images/causal/causal_series_15/causal_series_15_c.jpg"" style=""width: 300px; height: 300px;"" />
              </div>","null",""
"","","","","","html-keyboard-response","39","148486","0.0-27.0-0.0-2.0","FF0BAF21C46C4D9ABA513C417FFA195F","c382acf8-0089-4197-947b-5929764a81fb","935a6d0c-0ba8-4f12-81d2-6af4ae24cda6","","null","<div style=""display: flex; justify-content: center; align-items: center;"">
                <img src=""images/causal/causal_series_15/causal_series_15_d.jpg"" style=""width: 300px; height: 300px;"" />
              </div>","null",""
"","","","","","html-keyboard-response","40","151494","0.0-28.0","FF0BAF21C46C4D9ABA513C417FFA195F","c382acf8-0089-4197-947b-5929764a81fb","935a6d0c-0ba8-4f12-81d2-6af4ae24cda6","","null","<div style=""display: flex; justify-content: center; align-items: center;"">
                <img src=""images/other/blank.jpg"" style=""width: 300px; height: 300px;"" />
              </div>","null",""
"","","","","","html-keyboard-response","41","154495","0.0-29.0","FF0BAF21C46C4D9ABA513C417FFA195F","c382acf8-0089-4197-947b-5929764a81fb","935a6d0c-0ba8-4f12-81d2-6af4ae24cda6","","null","<div style=""display: flex; justify-content: center; align-items: center;"">
                <img src=""images/causal/causal_series_5/causal_series_5_a.jpg"" style=""width: 300px; height: 300px;"" />
              </div>","null",""
"","","","","","html-button-response","42","155118","0.0-30.0","FF0BAF21C46C4D9ABA513C417FFA195F","c382acf8-0089-4197-947b-5929764a81fb","935a6d0c-0ba8-4f12-81d2-6af4ae24cda6","","622","
    <div style=""display: flex; justify-content: center; align-items: center;"">
      <img src=""images/red_deck_2.png"" style=""width: 300px; height: 300px; margin-right: 10px;"" />
      <img src=""images/blue_deck_1.png"" style=""width: 300px; height: 300px;"" />
    </div>","0","0"
"","","","","","html-keyboard-response","43","158120","0.0-31.0-0.0-0.0","FF0BAF21C46C4D9ABA513C417FFA195F","c382acf8-0089-4197-947b-5929764a81fb","935a6d0c-0ba8-4f12-81d2-6af4ae24cda6","","null","<div style=""display: flex; justify-content: center; align-items: center;"">
                <img src=""images/causal/causal_series_5/causal_series_5_b.jpg"" style=""width: 300px; height: 300px;"" />
              </div>","null",""
"","","","","","html-keyboard-response","44","161126","0.0-31.0-0.0-1.0","FF0BAF21C46C4D9ABA513C417FFA195F","c382acf8-0089-4197-947b-5929764a81fb","935a6d0c-0ba8-4f12-81d2-6af4ae24cda6","","null","<div style=""display: flex; justify-content: center; align-items: center;"">
                <img src=""images/causal/causal_series_5/causal_series_5_c.jpg"" style=""width: 300px; height: 300px;"" />
              </div>","null",""
"","","","","","html-keyboard-response","45","164136","0.0-31.0-0.0-2.0","FF0BAF21C46C4D9ABA513C417FFA195F","c382acf8-0089-4197-947b-5929764a81fb","935a6d0c-0ba8-4f12-81d2-6af4ae24cda6","","null","<div style=""display: flex; justify-content: center; align-items: center;"">
                <img src=""images/causal/causal_series_5/causal_series_5_d.jpg"" style=""width: 300px; height: 300px;"" />
              </div>","null",""
"","","","","","html-keyboard-response","46","167151","0.0-32.0","FF0BAF21C46C4D9ABA513C417FFA195F","c382acf8-0089-4197-947b-5929764a81fb","935a6d0c-0ba8-4f12-81d2-6af4ae24cda6","","null","<div style=""display: flex; justify-content: center; align-items: center;"">
                <img src=""images/other/blank.jpg"" style=""width: 300px; height: 300px;"" />
              </div>","null",""
"","","","","","html-keyboard-response","47","170166","0.0-33.0","FF0BAF21C46C4D9ABA513C417FFA195F","c382acf8-0089-4197-947b-5929764a81fb","935a6d0c-0ba8-4f12-81d2-6af4ae24cda6","","null","<div style=""display: flex; justify-content: center; align-items: center;"">
                <img src=""images/causal/causal_series_16/causal_series_16_a.jpg"" style=""width: 300px; height: 300px;"" />
              </div>","null",""
"","","","","","html-button-response","48","171089","0.0-34.0","FF0BAF21C46C4D9ABA513C417FFA195F","c382acf8-0089-4197-947b-5929764a81fb","935a6d0c-0ba8-4f12-81d2-6af4ae24cda6","","923","
    <div style=""display: flex; justify-content: center; align-items: center;"">
      <img src=""images/red_deck_2.png"" style=""width: 300px; height: 300px; margin-right: 10px;"" />
      <img src=""images/blue_deck_1.png"" style=""width: 300px; height: 300px;"" />
    </div>","0","0"
"","","","","","html-keyboard-response","49","174095","0.0-35.0-0.0-0.0","FF0BAF21C46C4D9ABA513C417FFA195F","c382acf8-0089-4197-947b-5929764a81fb","935a6d0c-0ba8-4f12-81d2-6af4ae24cda6","","null","<div style=""display: flex; justify-content: center; align-items: center;"">
                <img src=""images/causal/causal_series_16/causal_series_16_b.jpg"" style=""width: 300px; height: 300px;"" />
              </div>","null",""
"","","","","","html-keyboard-response","50","177098","0.0-35.0-0.0-1.0","FF0BAF21C46C4D9ABA513C417FFA195F","c382acf8-0089-4197-947b-5929764a81fb","935a6d0c-0ba8-4f12-81d2-6af4ae24cda6","","null","<div style=""display: flex; justify-content: center; align-items: center;"">
                <img src=""images/causal/causal_series_16/causal_series_16_c.jpg"" style=""width: 300px; height: 300px;"" />
              </div>","null",""
"","","","","","html-keyboard-response","51","180099","0.0-35.0-0.0-2.0","FF0BAF21C46C4D9ABA513C417FFA195F","c382acf8-0089-4197-947b-5929764a81fb","935a6d0c-0ba8-4f12-81d2-6af4ae24cda6","","null","<div style=""display: flex; justify-content: center; align-items: center;"">
                <img src=""images/causal/causal_series_16/causal_series_16_d.jpg"" style=""width: 300px; height: 300px;"" />
              </div>","null",""
"","","","","","html-keyboard-response","52","183104","0.0-36.0","FF0BAF21C46C4D9ABA513C417FFA195F","c382acf8-0089-4197-947b-5929764a81fb","935a6d0c-0ba8-4f12-81d2-6af4ae24cda6","","null","<div style=""display: flex; justify-content: center; align-items: center;"">
                <img src=""images/other/blank.jpg"" style=""width: 300px; height: 300px;"" />
              </div>","null",""
"","","","","","html-keyboard-response","53","186107","0.0-37.0","FF0BAF21C46C4D9ABA513C417FFA195F","c382acf8-0089-4197-947b-5929764a81fb","935a6d0c-0ba8-4f12-81d2-6af4ae24cda6","","null","<div style=""display: flex; justify-content: center; align-items: center;"">
                <img src=""images/causal/causal_series_12/causal_series_12_a.jpg"" style=""width: 300px; height: 300px;"" />
              </div>","null",""
"","","","","","html-button-response","54","187155","0.0-38.0","FF0BAF21C46C4D9ABA513C417FFA195F","c382acf8-0089-4197-947b-5929764a81fb","935a6d0c-0ba8-4f12-81d2-6af4ae24cda6","","1047","
    <div style=""display: flex; justify-content: center; align-items: center;"">
      <img src=""images/red_deck_2.png"" style=""width: 300px; height: 300px; margin-right: 10px;"" />
      <img src=""images/blue_deck_1.png"" style=""width: 300px; height: 300px;"" />
    </div>","0","0"
"","","","","","html-keyboard-response","55","190161","0.0-39.0-0.0-0.0","FF0BAF21C46C4D9ABA513C417FFA195F","c382acf8-0089-4197-947b-5929764a81fb","935a6d0c-0ba8-4f12-81d2-6af4ae24cda6","","null","<div style=""display: flex; justify-content: center; align-items: center;"">
                <img src=""images/causal/causal_series_12/causal_series_12_b.jpg"" style=""width: 300px; height: 300px;"" />
              </div>","null",""
"","","","","","html-keyboard-response","56","193175","0.0-39.0-0.0-1.0","FF0BAF21C46C4D9ABA513C417FFA195F","c382acf8-0089-4197-947b-5929764a81fb","935a6d0c-0ba8-4f12-81d2-6af4ae24cda6","","null","<div style=""display: flex; justify-content: center; align-items: center;"">
                <img src=""images/causal/causal_series_12/causal_series_12_c.jpg"" style=""width: 300px; height: 300px;"" />
              </div>","null",""
"","","","","","html-keyboard-response","57","196183","0.0-39.0-0.0-2.0","FF0BAF21C46C4D9ABA513C417FFA195F","c382acf8-0089-4197-947b-5929764a81fb","935a6d0c-0ba8-4f12-81d2-6af4ae24cda6","","null","<div style=""display: flex; justify-content: center; align-items: center;"">
                <img src=""images/causal/causal_series_12/causal_series_12_d.jpg"" style=""width: 300px; height: 300px;"" />
              </div>","null",""
"","","","","","html-keyboard-response","58","199193","0.0-40.0","FF0BAF21C46C4D9ABA513C417FFA195F","c382acf8-0089-4197-947b-5929764a81fb","935a6d0c-0ba8-4f12-81d2-6af4ae24cda6","","null","<div style=""display: flex; justify-content: center; align-items: center;"">
                <img src=""images/other/blank.jpg"" style=""width: 300px; height: 300px;"" />
              </div>","null",""
"","","","","","html-keyboard-response","59","202195","0.0-41.0","FF0BAF21C46C4D9ABA513C417FFA195F","c382acf8-0089-4197-947b-5929764a81fb","935a6d0c-0ba8-4f12-81d2-6af4ae24cda6","","null","<div style=""display: flex; justify-content: center; align-items: center;"">
                <img src=""images/causal/causal_series_13/causal_series_13_a.jpg"" style=""width: 300px; height: 300px;"" />
              </div>","null",""
"","","","","","html-button-response","60","203763","0.0-42.0","FF0BAF21C46C4D9ABA513C417FFA195F","c382acf8-0089-4197-947b-5929764a81fb","935a6d0c-0ba8-4f12-81d2-6af4ae24cda6","","1566","
    <div style=""display: flex; justify-content: center; align-items: center;"">
      <img src=""images/red_deck_2.png"" style=""width: 300px; height: 300px; margin-right: 10px;"" />
      <img src=""images/blue_deck_1.png"" style=""width: 300px; height: 300px;"" />
    </div>","0","0"
"","","","","","html-keyboard-response","61","206769","0.0-43.0-0.0-0.0","FF0BAF21C46C4D9ABA513C417FFA195F","c382acf8-0089-4197-947b-5929764a81fb","935a6d0c-0ba8-4f12-81d2-6af4ae24cda6","","null","<div style=""display: flex; justify-content: center; align-items: center;"">
                <img src=""images/causal/causal_series_13/causal_series_13_b.jpg"" style=""width: 300px; height: 300px;"" />
              </div>","null",""
"","","","","","html-keyboard-response","62","209783","0.0-43.0-0.0-1.0","FF0BAF21C46C4D9ABA513C417FFA195F","c382acf8-0089-4197-947b-5929764a81fb","935a6d0c-0ba8-4f12-81d2-6af4ae24cda6","","null","<div style=""display: flex; justify-content: center; align-items: center;"">
                <img src=""images/causal/causal_series_13/causal_series_13_c.jpg"" style=""width: 300px; height: 300px;"" />
              </div>","null",""
"","","","","","html-keyboard-response","63","212793","0.0-43.0-0.0-2.0","FF0BAF21C46C4D9ABA513C417FFA195F","c382acf8-0089-4197-947b-5929764a81fb","935a6d0c-0ba8-4f12-81d2-6af4ae24cda6","","null","<div style=""display: flex; justify-content: center; align-items: center;"">
                <img src=""images/causal/causal_series_13/causal_series_13_d.jpg"" style=""width: 300px; height: 300px;"" />
              </div>","null",""
"","","","","","html-keyboard-response","64","215801","0.0-44.0","FF0BAF21C46C4D9ABA513C417FFA195F","c382acf8-0089-4197-947b-5929764a81fb","935a6d0c-0ba8-4f12-81d2-6af4ae24cda6","","null","<div style=""display: flex; justify-content: center; align-items: center;"">
                <img src=""images/other/blank.jpg"" style=""width: 300px; height: 300px;"" />
              </div>","null",""
"","","","","","html-keyboard-response","65","218814","0.0-45.0","FF0BAF21C46C4D9ABA513C417FFA195F","c382acf8-0089-4197-947b-5929764a81fb","935a6d0c-0ba8-4f12-81d2-6af4ae24cda6","","null","<div style=""display: flex; justify-content: center; align-items: center;"">
                <img src=""images/causal/causal_series_14/causal_series_14_a.jpg"" style=""width: 300px; height: 300px;"" />
              </div>","null",""
"","","","","","html-button-response","66","221044","0.0-46.0","FF0BAF21C46C4D9ABA513C417FFA195F","c382acf8-0089-4197-947b-5929764a81fb","935a6d0c-0ba8-4f12-81d2-6af4ae24cda6","","2229","
    <div style=""display: flex; justify-content: center; align-items: center;"">
      <img src=""images/red_deck_2.png"" style=""width: 300px; height: 300px; margin-right: 10px;"" />
      <img src=""images/blue_deck_1.png"" style=""width: 300px; height: 300px;"" />
    </div>","1","1"
"","","","","","html-keyboard-response","67","224059","0.0-47.0-1.0-0.0","FF0BAF21C46C4D9ABA513C417FFA195F","c382acf8-0089-4197-947b-5929764a81fb","935a6d0c-0ba8-4f12-81d2-6af4ae24cda6","","null","<div style=""display: flex; justify-content: center; align-items: center;"">
                <img src=""images/semantic/semantic_series_3/semantic_series_3_d.jpg"" style=""width: 300px; height: 300px;"" />
              </div>","null",""
"","","","","","html-keyboard-response","68","227069","0.0-47.0-1.0-1.0","FF0BAF21C46C4D9ABA513C417FFA195F","c382acf8-0089-4197-947b-5929764a81fb","935a6d0c-0ba8-4f12-81d2-6af4ae24cda6","","null","<div style=""display: flex; justify-content: center; align-items: center;"">
                <img src=""images/semantic/semantic_series_4/semantic_series_4_d.jpg"" style=""width: 300px; height: 300px;"" />
              </div>","null",""
"","","","","","html-keyboard-response","69","230081","0.0-47.0-1.0-2.0","FF0BAF21C46C4D9ABA513C417FFA195F","c382acf8-0089-4197-947b-5929764a81fb","935a6d0c-0ba8-4f12-81d2-6af4ae24cda6","","null","<div style=""display: flex; justify-content: center; align-items: center;"">
                <img src=""images/semantic/semantic_series_5/semantic_series_5_d.jpg"" style=""width: 300px; height: 300px;"" />
              </div>","null",""
"","","","","","html-keyboard-response","70","233091","0.0-48.0","FF0BAF21C46C4D9ABA513C417FFA195F","c382acf8-0089-4197-947b-5929764a81fb","935a6d0c-0ba8-4f12-81d2-6af4ae24cda6","","null","<div style=""display: flex; justify-content: center; align-items: center;"">
                <img src=""images/other/blank.jpg"" style=""width: 300px; height: 300px;"" />
              </div>","null",""
"","","","","","html-keyboard-response","71","236100","0.0-49.0","FF0BAF21C46C4D9ABA513C417FFA195F","c382acf8-0089-4197-947b-5929764a81fb","935a6d0c-0ba8-4f12-81d2-6af4ae24cda6","","null","<div style=""display: flex; justify-content: center; align-items: center;"">
                <img src=""images/causal/causal_series_2/causal_series_2_a.jpg"" style=""width: 300px; height: 300px;"" />
              </div>","null",""
"","","","","","html-button-response","72","237216","0.0-50.0","FF0BAF21C46C4D9ABA513C417FFA195F","c382acf8-0089-4197-947b-5929764a81fb","935a6d0c-0ba8-4f12-81d2-6af4ae24cda6","","1116","
    <div style=""display: flex; justify-content: center; align-items: center;"">
      <img src=""images/red_deck_2.png"" style=""width: 300px; height: 300px; margin-right: 10px;"" />
      <img src=""images/blue_deck_1.png"" style=""width: 300px; height: 300px;"" />
    </div>","1","1"
"","","","","","html-keyboard-response","73","240227","0.0-51.0-1.0-0.0","FF0BAF21C46C4D9ABA513C417FFA195F","c382acf8-0089-4197-947b-5929764a81fb","935a6d0c-0ba8-4f12-81d2-6af4ae24cda6","","null","<div style=""display: flex; justify-content: center; align-items: center;"">
                <img src=""images/semantic/semantic_series_3/semantic_series_3_d.jpg"" style=""width: 300px; height: 300px;"" />
              </div>","null",""
"","","","","","html-keyboard-response","74","243237","0.0-51.0-1.0-1.0","FF0BAF21C46C4D9ABA513C417FFA195F","c382acf8-0089-4197-947b-5929764a81fb","935a6d0c-0ba8-4f12-81d2-6af4ae24cda6","","null","<div style=""display: flex; justify-content: center; align-items: center;"">
                <img src=""images/semantic/semantic_series_4/semantic_series_4_d.jpg"" style=""width: 300px; height: 300px;"" />
              </div>","null",""
"","","","","","html-keyboard-response","75","246246","0.0-51.0-1.0-2.0","FF0BAF21C46C4D9ABA513C417FFA195F","c382acf8-0089-4197-947b-5929764a81fb","935a6d0c-0ba8-4f12-81d2-6af4ae24cda6","","null","<div style=""display: flex; justify-content: center; align-items: center;"">
                <img src=""images/semantic/semantic_series_5/semantic_series_5_d.jpg"" style=""width: 300px; height: 300px;"" />
              </div>","null",""
"","","","","","html-keyboard-response","76","249256","0.0-52.0","FF0BAF21C46C4D9ABA513C417FFA195F","c382acf8-0089-4197-947b-5929764a81fb","935a6d0c-0ba8-4f12-81d2-6af4ae24cda6","","null","<div style=""display: flex; justify-content: center; align-items: center;"">
                <img src=""images/other/blank.jpg"" style=""width: 300px; height: 300px;"" />
              </div>","null",""
"","","","","","html-keyboard-response","77","252262","0.0-53.0","FF0BAF21C46C4D9ABA513C417FFA195F","c382acf8-0089-4197-947b-5929764a81fb","935a6d0c-0ba8-4f12-81d2-6af4ae24cda6","","null","<div style=""display: flex; justify-content: center; align-items: center;"">
                <img src=""images/causal/causal_series_9/causal_series_9_a.jpg"" style=""width: 300px; height: 300px;"" />
              </div>","null",""
"","","","","","html-button-response","78","252855","0.0-54.0","FF0BAF21C46C4D9ABA513C417FFA195F","c382acf8-0089-4197-947b-5929764a81fb","935a6d0c-0ba8-4f12-81d2-6af4ae24cda6","","592","
    <div style=""display: flex; justify-content: center; align-items: center;"">
      <img src=""images/red_deck_2.png"" style=""width: 300px; height: 300px; margin-right: 10px;"" />
      <img src=""images/blue_deck_1.png"" style=""width: 300px; height: 300px;"" />
    </div>","0","0"
"","","","","","html-keyboard-response","79","255866","0.0-55.0-0.0-0.0","FF0BAF21C46C4D9ABA513C417FFA195F","c382acf8-0089-4197-947b-5929764a81fb","935a6d0c-0ba8-4f12-81d2-6af4ae24cda6","","null","<div style=""display: flex; justify-content: center; align-items: center;"">
                <img src=""images/causal/causal_series_9/causal_series_9_b.jpg"" style=""width: 300px; height: 300px;"" />
              </div>","null",""
"","","","","","html-keyboard-response","80","258870","0.0-55.0-0.0-1.0","FF0BAF21C46C4D9ABA513C417FFA195F","c382acf8-0089-4197-947b-5929764a81fb","935a6d0c-0ba8-4f12-81d2-6af4ae24cda6","","null","<div style=""display: flex; justify-content: center; align-items: center;"">
                <img src=""images/causal/causal_series_9/causal_series_9_c.jpg"" style=""width: 300px; height: 300px;"" />
              </div>","null",""
"","","","","","html-keyboard-response","81","261877","0.0-55.0-0.0-2.0","FF0BAF21C46C4D9ABA513C417FFA195F","c382acf8-0089-4197-947b-5929764a81fb","935a6d0c-0ba8-4f12-81d2-6af4ae24cda6","","null","<div style=""display: flex; justify-content: center; align-items: center;"">
                <img src=""images/causal/causal_series_9/causal_series_9_d.jpg"" style=""width: 300px; height: 300px;"" />
              </div>","null",""
"","","","","","html-keyboard-response","82","264884","0.0-56.0","FF0BAF21C46C4D9ABA513C417FFA195F","c382acf8-0089-4197-947b-5929764a81fb","935a6d0c-0ba8-4f12-81d2-6af4ae24cda6","","null","<div style=""display: flex; justify-content: center; align-items: center;"">
                <img src=""images/other/blank.jpg"" style=""width: 300px; height: 300px;"" />
              </div>","null",""
"","","","","","html-keyboard-response","83","267885","0.0-57.0","FF0BAF21C46C4D9ABA513C417FFA195F","c382acf8-0089-4197-947b-5929764a81fb","935a6d0c-0ba8-4f12-81d2-6af4ae24cda6","","null","<div style=""display: flex; justify-content: center; align-items: center;"">
                <img src=""images/causal/causal_series_4/causal_series_4_a.jpg"" style=""width: 300px; height: 300px;"" />
              </div>","null",""
"","","","","","html-button-response","84","269009","0.0-58.0","FF0BAF21C46C4D9ABA513C417FFA195F","c382acf8-0089-4197-947b-5929764a81fb","935a6d0c-0ba8-4f12-81d2-6af4ae24cda6","","1123","
    <div style=""display: flex; justify-content: center; align-items: center;"">
      <img src=""images/red_deck_2.png"" style=""width: 300px; height: 300px; margin-right: 10px;"" />
      <img src=""images/blue_deck_1.png"" style=""width: 300px; height: 300px;"" />
    </div>","0","0"
"","","","","","html-keyboard-response","85","272017","0.0-59.0-0.0-0.0","FF0BAF21C46C4D9ABA513C417FFA195F","c382acf8-0089-4197-947b-5929764a81fb","935a6d0c-0ba8-4f12-81d2-6af4ae24cda6","","null","<div style=""display: flex; justify-content: center; align-items: center;"">
                <img src=""images/causal/causal_series_4/causal_series_4_b.jpg"" style=""width: 300px; height: 300px;"" />
              </div>","null",""
"","","","","","html-keyboard-response","86","275021","0.0-59.0-0.0-1.0","FF0BAF21C46C4D9ABA513C417FFA195F","c382acf8-0089-4197-947b-5929764a81fb","935a6d0c-0ba8-4f12-81d2-6af4ae24cda6","","null","<div style=""display: flex; justify-content: center; align-items: center;"">
                <img src=""images/causal/causal_series_4/causal_series_4_c.jpg"" style=""width: 300px; height: 300px;"" />
              </div>","null",""
"","","","","","html-keyboard-response","87","278024","0.0-59.0-0.0-2.0","FF0BAF21C46C4D9ABA513C417FFA195F","c382acf8-0089-4197-947b-5929764a81fb","935a6d0c-0ba8-4f12-81d2-6af4ae24cda6","","null","<div style=""display: flex; justify-content: center; align-items: center;"">
                <img src=""images/causal/causal_series_4/causal_series_4_d.jpg"" style=""width: 300px; height: 300px;"" />
              </div>","null",""
"","","","","","html-keyboard-response","88","281030","0.0-60.0","FF0BAF21C46C4D9ABA513C417FFA195F","c382acf8-0089-4197-947b-5929764a81fb","935a6d0c-0ba8-4f12-81d2-6af4ae24cda6","","null","<div style=""display: flex; justify-content: center; align-items: center;"">
                <img src=""images/other/blank.jpg"" style=""width: 300px; height: 300px;"" />
              </div>","null",""
"","","","","","html-keyboard-response","89","284039","0.0-61.0","FF0BAF21C46C4D9ABA513C417FFA195F","c382acf8-0089-4197-947b-5929764a81fb","935a6d0c-0ba8-4f12-81d2-6af4ae24cda6","","null","<div style=""display: flex; justify-content: center; align-items: center;"">
                <img src=""images/causal/causal_series_10/causal_series_10_a.jpg"" style=""width: 300px; height: 300px;"" />
              </div>","null",""
"","","","","","html-button-response","90","284546","0.0-62.0","FF0BAF21C46C4D9ABA513C417FFA195F","c382acf8-0089-4197-947b-5929764a81fb","935a6d0c-0ba8-4f12-81d2-6af4ae24cda6","","506","
    <div style=""display: flex; justify-content: center; align-items: center;"">
      <img src=""images/red_deck_2.png"" style=""width: 300px; height: 300px; margin-right: 10px;"" />
      <img src=""images/blue_deck_1.png"" style=""width: 300px; height: 300px;"" />
    </div>","0","0"
"","","","","","html-keyboard-response","91","287551","0.0-63.0-0.0-0.0","FF0BAF21C46C4D9ABA513C417FFA195F","c382acf8-0089-4197-947b-5929764a81fb","935a6d0c-0ba8-4f12-81d2-6af4ae24cda6","","null","<div style=""display: flex; justify-content: center; align-items: center;"">
                <img src=""images/causal/causal_series_10/causal_series_10_b.jpg"" style=""width: 300px; height: 300px;"" />
              </div>","null",""
"","","","","","html-keyboard-response","92","290562","0.0-63.0-0.0-1.0","FF0BAF21C46C4D9ABA513C417FFA195F","c382acf8-0089-4197-947b-5929764a81fb","935a6d0c-0ba8-4f12-81d2-6af4ae24cda6","","null","<div style=""display: flex; justify-content: center; align-items: center;"">
                <img src=""images/causal/causal_series_10/causal_series_10_c.jpg"" style=""width: 300px; height: 300px;"" />
              </div>","null",""
"","","","","","html-keyboard-response","93","293564","0.0-63.0-0.0-2.0","FF0BAF21C46C4D9ABA513C417FFA195F","c382acf8-0089-4197-947b-5929764a81fb","935a6d0c-0ba8-4f12-81d2-6af4ae24cda6","","null","<div style=""display: flex; justify-content: center; align-items: center;"">
                <img src=""images/causal/causal_series_10/causal_series_10_d.jpg"" style=""width: 300px; height: 300px;"" />
              </div>","null",""
"","","","","","html-keyboard-response","94","296572","0.0-64.0","FF0BAF21C46C4D9ABA513C417FFA195F","c382acf8-0089-4197-947b-5929764a81fb","935a6d0c-0ba8-4f12-81d2-6af4ae24cda6","","null","<div style=""display: flex; justify-content: center; align-items: center;"">
                <img src=""images/other/blank.jpg"" style=""width: 300px; height: 300px;"" />
              </div>","null",""
"","","","","","html-keyboard-response","95","299584","0.0-65.0","FF0BAF21C46C4D9ABA513C417FFA195F","c382acf8-0089-4197-947b-5929764a81fb","935a6d0c-0ba8-4f12-81d2-6af4ae24cda6","","null","<div style=""display: flex; justify-content: center; align-items: center;"">
                <img src=""images/causal/causal_series_6/causal_series_6_a.jpg"" style=""width: 300px; height: 300px;"" />
              </div>","null",""
"","","","","","html-button-response","96","300660","0.0-66.0","FF0BAF21C46C4D9ABA513C417FFA195F","c382acf8-0089-4197-947b-5929764a81fb","935a6d0c-0ba8-4f12-81d2-6af4ae24cda6","","1075","
    <div style=""display: flex; justify-content: center; align-items: center;"">
      <img src=""images/red_deck_2.png"" style=""width: 300px; height: 300px; margin-right: 10px;"" />
      <img src=""images/blue_deck_1.png"" style=""width: 300px; height: 300px;"" />
    </div>","0","0"
"","","","","","html-keyboard-response","97","303666","0.0-67.0-0.0-0.0","FF0BAF21C46C4D9ABA513C417FFA195F","c382acf8-0089-4197-947b-5929764a81fb","935a6d0c-0ba8-4f12-81d2-6af4ae24cda6","","null","<div style=""display: flex; justify-content: center; align-items: center;"">
                <img src=""images/causal/causal_series_6/causal_series_6_b.jpg"" style=""width: 300px; height: 300px;"" />
              </div>","null",""
"","","","","","html-keyboard-response","98","306682","0.0-67.0-0.0-1.0","FF0BAF21C46C4D9ABA513C417FFA195F","c382acf8-0089-4197-947b-5929764a81fb","935a6d0c-0ba8-4f12-81d2-6af4ae24cda6","","null","<div style=""display: flex; justify-content: center; align-items: center;"">
                <img src=""images/causal/causal_series_6/causal_series_6_c.jpg"" style=""width: 300px; height: 300px;"" />
              </div>","null",""
"","","","","","html-keyboard-response","99","309690","0.0-67.0-0.0-2.0","FF0BAF21C46C4D9ABA513C417FFA195F","c382acf8-0089-4197-947b-5929764a81fb","935a6d0c-0ba8-4f12-81d2-6af4ae24cda6","","null","<div style=""display: flex; justify-content: center; align-items: center;"">
                <img src=""images/causal/causal_series_6/causal_series_6_d.jpg"" style=""width: 300px; height: 300px;"" />
              </div>","null",""
"","","","","","html-keyboard-response","100","312699","0.0-68.0","FF0BAF21C46C4D9ABA513C417FFA195F","c382acf8-0089-4197-947b-5929764a81fb","935a6d0c-0ba8-4f12-81d2-6af4ae24cda6","","null","<div style=""display: flex; justify-content: center; align-items: center;"">
                <img src=""images/other/blank.jpg"" style=""width: 300px; height: 300px;"" />
              </div>","null",""
"","","","","","html-keyboard-response","101","315710","0.0-69.0","FF0BAF21C46C4D9ABA513C417FFA195F","c382acf8-0089-4197-947b-5929764a81fb","935a6d0c-0ba8-4f12-81d2-6af4ae24cda6","","null","<div style=""display: flex; justify-content: center; align-items: center;"">
                <img src=""images/causal/causal_series_1/causal_series_1_a.jpg"" style=""width: 300px; height: 300px;"" />
              </div>","null",""
"","","","","","html-button-response","102","316419","0.0-70.0","FF0BAF21C46C4D9ABA513C417FFA195F","c382acf8-0089-4197-947b-5929764a81fb","935a6d0c-0ba8-4f12-81d2-6af4ae24cda6","","707","
    <div style=""display: flex; justify-content: center; align-items: center;"">
      <img src=""images/red_deck_2.png"" style=""width: 300px; height: 300px; margin-right: 10px;"" />
      <img src=""images/blue_deck_1.png"" style=""width: 300px; height: 300px;"" />
    </div>","0","0"
"","","","","","html-keyboard-response","103","319423","0.0-71.0-0.0-0.0","FF0BAF21C46C4D9ABA513C417FFA195F","c382acf8-0089-4197-947b-5929764a81fb","935a6d0c-0ba8-4f12-81d2-6af4ae24cda6","","null","<div style=""display: flex; justify-content: center; align-items: center;"">
                <img src=""images/causal/causal_series_1/causal_series_1_b.jpg"" style=""width: 300px; height: 300px;"" />
              </div>","null",""
"","","","","","html-keyboard-response","104","322429","0.0-71.0-0.0-1.0","FF0BAF21C46C4D9ABA513C417FFA195F","c382acf8-0089-4197-947b-5929764a81fb","935a6d0c-0ba8-4f12-81d2-6af4ae24cda6","","null","<div style=""display: flex; justify-content: center; align-items: center;"">
                <img src=""images/causal/causal_series_1/causal_series_1_c.jpg"" style=""width: 300px; height: 300px;"" />
              </div>","null",""
"","","","","","html-keyboard-response","105","325439","0.0-71.0-0.0-2.0","FF0BAF21C46C4D9ABA513C417FFA195F","c382acf8-0089-4197-947b-5929764a81fb","935a6d0c-0ba8-4f12-81d2-6af4ae24cda6","","null","<div style=""display: flex; justify-content: center; align-items: center;"">
                <img src=""images/causal/causal_series_1/causal_series_1_d.jpg"" style=""width: 300px; height: 300px;"" />
              </div>","null",""
"","","","","","html-keyboard-response","106","328440","0.0-72.0","FF0BAF21C46C4D9ABA513C417FFA195F","c382acf8-0089-4197-947b-5929764a81fb","935a6d0c-0ba8-4f12-81d2-6af4ae24cda6","","null","<div style=""display: flex; justify-content: center; align-items: center;"">
                <img src=""images/other/blank.jpg"" style=""width: 300px; height: 300px;"" />
              </div>","null",""
"","","","","","html-keyboard-response","107","331442","0.0-73.0","FF0BAF21C46C4D9ABA513C417FFA195F","c382acf8-0089-4197-947b-5929764a81fb","935a6d0c-0ba8-4f12-81d2-6af4ae24cda6","","null","<div style=""display: flex; justify-content: center; align-items: center;"">
                <img src=""images/causal/causal_series_8/causal_series_8_a.jpg"" style=""width: 300px; height: 300px;"" />
              </div>","null",""
"","","","","","html-button-response","108","332133","0.0-74.0","FF0BAF21C46C4D9ABA513C417FFA195F","c382acf8-0089-4197-947b-5929764a81fb","935a6d0c-0ba8-4f12-81d2-6af4ae24cda6","","690","
    <div style=""display: flex; justify-content: center; align-items: center;"">
      <img src=""images/red_deck_2.png"" style=""width: 300px; height: 300px; margin-right: 10px;"" />
      <img src=""images/blue_deck_1.png"" style=""width: 300px; height: 300px;"" />
    </div>","0","0"
"","","","","","html-keyboard-response","109","335136","0.0-75.0-0.0-0.0","FF0BAF21C46C4D9ABA513C417FFA195F","c382acf8-0089-4197-947b-5929764a81fb","935a6d0c-0ba8-4f12-81d2-6af4ae24cda6","","null","<div style=""display: flex; justify-content: center; align-items: center;"">
                <img src=""images/causal/causal_series_8/causal_series_8_b.jpg"" style=""width: 300px; height: 300px;"" />
              </div>","null",""
"","","","","","html-keyboard-response","110","338146","0.0-75.0-0.0-1.0","FF0BAF21C46C4D9ABA513C417FFA195F","c382acf8-0089-4197-947b-5929764a81fb","935a6d0c-0ba8-4f12-81d2-6af4ae24cda6","","null","<div style=""display: flex; justify-content: center; align-items: center;"">
                <img src=""images/causal/causal_series_8/causal_series_8_c.jpg"" style=""width: 300px; height: 300px;"" />
              </div>","null",""
"","","","","","html-keyboard-response","111","341157","0.0-75.0-0.0-2.0","FF0BAF21C46C4D9ABA513C417FFA195F","c382acf8-0089-4197-947b-5929764a81fb","935a6d0c-0ba8-4f12-81d2-6af4ae24cda6","","null","<div style=""display: flex; justify-content: center; align-items: center;"">
                <img src=""images/causal/causal_series_8/causal_series_8_d.jpg"" style=""width: 300px; height: 300px;"" />
              </div>","null",""
"","","","","","html-keyboard-response","112","344160","0.0-76.0","FF0BAF21C46C4D9ABA513C417FFA195F","c382acf8-0089-4197-947b-5929764a81fb","935a6d0c-0ba8-4f12-81d2-6af4ae24cda6","","null","<div style=""display: flex; justify-content: center; align-items: center;"">
                <img src=""images/other/blank.jpg"" style=""width: 300px; height: 300px;"" />
              </div>","null",""
"","","","","","survey-text","113","367533","0.0-77.0","FF0BAF21C46C4D9ABA513C417FFA195F","c382acf8-0089-4197-947b-5929764a81fb","935a6d0c-0ba8-4f12-81d2-6af4ae24cda6","","23367","","{""Q0"":""The red deck continues the story of the first card and the blue deck shows random parts of stories""}",""
"","","","","","survey-text","114","376683","0.0-78.0","FF0BAF21C46C4D9ABA513C417FFA195F","c382acf8-0089-4197-947b-5929764a81fb","935a6d0c-0ba8-4f12-81d2-6af4ae24cda6","","9148","","{""Q0"":""The red deck""}",""
"","","","","","html-button-response","115","391508","0.0-79.0","FF0BAF21C46C4D9ABA513C417FFA195F","c382acf8-0089-4197-947b-5929764a81fb","935a6d0c-0ba8-4f12-81d2-6af4ae24cda6","","14824","Which color deck does the fourth image continue the story from the series?","1",""
"","","","","","html-button-response","116","393622","0.0-80.0","FF0BAF21C46C4D9ABA513C417FFA195F","c382acf8-0089-4197-947b-5929764a81fb","935a6d0c-0ba8-4f12-81d2-6af4ae24cda6","","2113","Which color deck does the fourth image not follow the story from the series?","0",""
"","","","","","survey-text","117","398573","0.0-81.0","FF0BAF21C46C4D9ABA513C417FFA195F","c382acf8-0089-4197-947b-5929764a81fb","935a6d0c-0ba8-4f12-81d2-6af4ae24cda6","","4947","","{""Q0"":""female"",""Q1"":""22""}",""
"","","","","","instructions","118","403227","0.0-82.0","FF0BAF21C46C4D9ABA513C417FFA195F","c382acf8-0089-4197-947b-5929764a81fb","935a6d0c-0ba8-4f12-81d2-6af4ae24cda6","[{""page_index"":0,""viewing_time"":4653}]","4653","","",""
