"success","timeout","failed_images","failed_audio","failed_video","trial_type","trial_index","time_elapsed","internal_node_id","subject_id","study_id","session_id","view_history","rt","stimulus","response","choice"
"true","false","[]","[]","[]","preload","0","2363","0.0-0.0","F630182B87BE4DD19F8A28C4D2B38E7D","f43e17f2-3749-4d60-b089-b7f05fa8effe","23db58b9-63b0-4bce-8714-07ce439e665e","","","","",""
"","","","","","instructions","1","3566","0.0-1.0","F630182B87BE4DD19F8A28C4D2B38E7D","f43e17f2-3749-4d60-b089-b7f05fa8effe","23db58b9-63b0-4bce-8714-07ce439e665e","[{""page_index"":0,""viewing_time"":1202}]","1202","","",""
"","","","","","instructions","2","7453","0.0-2.0","F630182B87BE4DD19F8A28C4D2B38E7D","f43e17f2-3749-4d60-b089-b7f05fa8effe","23db58b9-63b0-4bce-8714-07ce439e665e","[{""page_index"":0,""viewing_time"":3887}]","3887","","",""
"true","","","","","fullscreen","3","11362","0.0-3.0","F630182B87BE4DD19F8A28C4D2B38E7D","f43e17f2-3749-4d60-b089-b7f05fa8effe","23db58b9-63b0-4bce-8714-07ce439e665e","","2904","","",""
"","","","","","instructions","4","22283","0.0-4.0","F630182B87BE4DD19F8A28C4D2B38E7D","f43e17f2-3749-4d60-b089-b7f05fa8effe","23db58b9-63b0-4bce-8714-07ce439e665e","[{""page_index"":0,""viewing_time"":10921}]","10921","","",""
"","","","","","html-keyboard-response","5","25295","0.0-5.0","F630182B87BE4DD19F8A28C4D2B38E7D","f43e17f2-3749-4d60-b089-b7f05fa8effe","23db58b9-63b0-4bce-8714-07ce439e665e","","null","<div style=""display: flex; justify-content: center; align-items: center;"">
                <img src=""images/causal/causal_series_11/causal_series_11_a.jpg"" style=""width: 300px; height: 300px;"" />
              </div>","null",""
"","","","","","html-button-response","6","27929","0.0-6.0","F630182B87BE4DD19F8A28C4D2B38E7D","f43e17f2-3749-4d60-b089-b7f05fa8effe","23db58b9-63b0-4bce-8714-07ce439e665e","","2632","
    <div style=""display: flex; justify-content: center; align-items: center;"">
      <img src=""images/red_deck_2.png"" style=""width: 300px; height: 300px; margin-right: 10px;"" />
      <img src=""images/blue_deck_1.png"" style=""width: 300px; height: 300px;"" />
    </div>","1","1"
"","","","","","html-keyboard-response","7","30930","0.0-7.0-1.0-0.0","F630182B87BE4DD19F8A28C4D2B38E7D","f43e17f2-3749-4d60-b089-b7f05fa8effe","23db58b9-63b0-4bce-8714-07ce439e665e","","null","<div style=""display: flex; justify-content: center; align-items: center;"">
                <img src=""images/semantic/semantic_series_12/semantic_series_12_d.jpg"" style=""width: 300px; height: 300px;"" />
              </div>","null",""
"","","","","","html-keyboard-response","8","33935","0.0-7.0-1.0-1.0","F630182B87BE4DD19F8A28C4D2B38E7D","f43e17f2-3749-4d60-b089-b7f05fa8effe","23db58b9-63b0-4bce-8714-07ce439e665e","","null","<div style=""display: flex; justify-content: center; align-items: center;"">
                <img src=""images/semantic/semantic_series_13/semantic_series_13_d.jpg"" style=""width: 300px; height: 300px;"" />
              </div>","null",""
"","","","","","html-keyboard-response","9","36940","0.0-7.0-1.0-2.0","F630182B87BE4DD19F8A28C4D2B38E7D","f43e17f2-3749-4d60-b089-b7f05fa8effe","23db58b9-63b0-4bce-8714-07ce439e665e","","null","<div style=""display: flex; justify-content: center; align-items: center;"">
                <img src=""images/semantic/semantic_series_14/semantic_series_14_d.jpg"" style=""width: 300px; height: 300px;"" />
              </div>","null",""
"","","","","","html-keyboard-response","10","39955","0.0-8.0","F630182B87BE4DD19F8A28C4D2B38E7D","f43e17f2-3749-4d60-b089-b7f05fa8effe","23db58b9-63b0-4bce-8714-07ce439e665e","","null","<div style=""display: flex; justify-content: center; align-items: center;"">
                <img src=""images/other/blank.jpg"" style=""width: 300px; height: 300px;"" />
              </div>","null",""
"","","","","","html-keyboard-response","11","42970","0.0-9.0","F630182B87BE4DD19F8A28C4D2B38E7D","f43e17f2-3749-4d60-b089-b7f05fa8effe","23db58b9-63b0-4bce-8714-07ce439e665e","","null","<div style=""display: flex; justify-content: center; align-items: center;"">
                <img src=""images/causal/causal_series_6/causal_series_6_a.jpg"" style=""width: 300px; height: 300px;"" />
              </div>","null",""
"","","","","","html-button-response","12","45841","0.0-10.0","F630182B87BE4DD19F8A28C4D2B38E7D","f43e17f2-3749-4d60-b089-b7f05fa8effe","23db58b9-63b0-4bce-8714-07ce439e665e","","2870","
    <div style=""display: flex; justify-content: center; align-items: center;"">
      <img src=""images/red_deck_2.png"" style=""width: 300px; height: 300px; margin-right: 10px;"" />
      <img src=""images/blue_deck_1.png"" style=""width: 300px; height: 300px;"" />
    </div>","0","0"
"","","","","","html-keyboard-response","13","48846","0.0-11.0-0.0-0.0","F630182B87BE4DD19F8A28C4D2B38E7D","f43e17f2-3749-4d60-b089-b7f05fa8effe","23db58b9-63b0-4bce-8714-07ce439e665e","","null","<div style=""display: flex; justify-content: center; align-items: center;"">
                <img src=""images/causal/causal_series_6/causal_series_6_b.jpg"" style=""width: 300px; height: 300px;"" />
              </div>","null",""
"","","","","","html-keyboard-response","14","51861","0.0-11.0-0.0-1.0","F630182B87BE4DD19F8A28C4D2B38E7D","f43e17f2-3749-4d60-b089-b7f05fa8effe","23db58b9-63b0-4bce-8714-07ce439e665e","","null","<div style=""display: flex; justify-content: center; align-items: center;"">
                <img src=""images/causal/causal_series_6/causal_series_6_c.jpg"" style=""width: 300px; height: 300px;"" />
              </div>","null",""
"","","","","","html-keyboard-response","15","54866","0.0-11.0-0.0-2.0","F630182B87BE4DD19F8A28C4D2B38E7D","f43e17f2-3749-4d60-b089-b7f05fa8effe","23db58b9-63b0-4bce-8714-07ce439e665e","","null","<div style=""display: flex; justify-content: center; align-items: center;"">
                <img src=""images/causal/causal_series_6/causal_series_6_d.jpg"" style=""width: 300px; height: 300px;"" />
              </div>","null",""
"","","","","","html-keyboard-response","16","57871","0.0-12.0","F630182B87BE4DD19F8A28C4D2B38E7D","f43e17f2-3749-4d60-b089-b7f05fa8effe","23db58b9-63b0-4bce-8714-07ce439e665e","","null","<div style=""display: flex; justify-content: center; align-items: center;"">
                <img src=""images/other/blank.jpg"" style=""width: 300px; height: 300px;"" />
              </div>","null",""
"","","","","","html-keyboard-response","17","60886","0.0-13.0","F630182B87BE4DD19F8A28C4D2B38E7D","f43e17f2-3749-4d60-b089-b7f05fa8effe","23db58b9-63b0-4bce-8714-07ce439e665e","","null","<div style=""display: flex; justify-content: center; align-items: center;"">
                <img src=""images/causal/causal_series_4/causal_series_4_a.jpg"" style=""width: 300px; height: 300px;"" />
              </div>","null",""
"","","","","","html-button-response","18","62066","0.0-14.0","F630182B87BE4DD19F8A28C4D2B38E7D","f43e17f2-3749-4d60-b089-b7f05fa8effe","23db58b9-63b0-4bce-8714-07ce439e665e","","1179","
    <div style=""display: flex; justify-content: center; align-items: center;"">
      <img src=""images/red_deck_2.png"" style=""width: 300px; height: 300px; margin-right: 10px;"" />
      <img src=""images/blue_deck_1.png"" style=""width: 300px; height: 300px;"" />
    </div>","1","1"
"","","","","","html-keyboard-response","19","65081","0.0-15.0-1.0-0.0","F630182B87BE4DD19F8A28C4D2B38E7D","f43e17f2-3749-4d60-b089-b7f05fa8effe","23db58b9-63b0-4bce-8714-07ce439e665e","","null","<div style=""display: flex; justify-content: center; align-items: center;"">
                <img src=""images/semantic/semantic_series_9/semantic_series_9_d.jpg"" style=""width: 300px; height: 300px;"" />
              </div>","null",""
"","","","","","html-keyboard-response","20","68086","0.0-15.0-1.0-1.0","F630182B87BE4DD19F8A28C4D2B38E7D","f43e17f2-3749-4d60-b089-b7f05fa8effe","23db58b9-63b0-4bce-8714-07ce439e665e","","null","<div style=""display: flex; justify-content: center; align-items: center;"">
                <img src=""images/semantic/semantic_series_10/semantic_series_10_d.jpg"" style=""width: 300px; height: 300px;"" />
              </div>","null",""
"","","","","","html-keyboard-response","21","71097","0.0-15.0-1.0-2.0","F630182B87BE4DD19F8A28C4D2B38E7D","f43e17f2-3749-4d60-b089-b7f05fa8effe","23db58b9-63b0-4bce-8714-07ce439e665e","","null","<div style=""display: flex; justify-content: center; align-items: center;"">
                <img src=""images/semantic/semantic_series_11/semantic_series_11_d.jpg"" style=""width: 300px; height: 300px;"" />
              </div>","null",""
"","","","","","html-keyboard-response","22","74104","0.0-16.0","F630182B87BE4DD19F8A28C4D2B38E7D","f43e17f2-3749-4d60-b089-b7f05fa8effe","23db58b9-63b0-4bce-8714-07ce439e665e","","null","<div style=""display: flex; justify-content: center; align-items: center;"">
                <img src=""images/other/blank.jpg"" style=""width: 300px; height: 300px;"" />
              </div>","null",""
"","","","","","html-keyboard-response","23","77116","0.0-17.0","F630182B87BE4DD19F8A28C4D2B38E7D","f43e17f2-3749-4d60-b089-b7f05fa8effe","23db58b9-63b0-4bce-8714-07ce439e665e","","null","<div style=""display: flex; justify-content: center; align-items: center;"">
                <img src=""images/causal/causal_series_17/causal_series_17_a.jpg"" style=""width: 300px; height: 300px;"" />
              </div>","null",""
"","","","","","html-button-response","24","77929","0.0-18.0","F630182B87BE4DD19F8A28C4D2B38E7D","f43e17f2-3749-4d60-b089-b7f05fa8effe","23db58b9-63b0-4bce-8714-07ce439e665e","","812","
    <div style=""display: flex; justify-content: center; align-items: center;"">
      <img src=""images/red_deck_2.png"" style=""width: 300px; height: 300px; margin-right: 10px;"" />
      <img src=""images/blue_deck_1.png"" style=""width: 300px; height: 300px;"" />
    </div>","0","0"
"","","","","","html-keyboard-response","25","80941","0.0-19.0-0.0-0.0","F630182B87BE4DD19F8A28C4D2B38E7D","f43e17f2-3749-4d60-b089-b7f05fa8effe","23db58b9-63b0-4bce-8714-07ce439e665e","","null","<div style=""display: flex; justify-content: center; align-items: center;"">
                <img src=""images/causal/causal_series_17/causal_series_17_b.jpg"" style=""width: 300px; height: 300px;"" />
              </div>","null",""
"","","","","","html-keyboard-response","26","83946","0.0-19.0-0.0-1.0","F630182B87BE4DD19F8A28C4D2B38E7D","f43e17f2-3749-4d60-b089-b7f05fa8effe","23db58b9-63b0-4bce-8714-07ce439e665e","","null","<div style=""display: flex; justify-content: center; align-items: center;"">
                <img src=""images/causal/causal_series_17/causal_series_17_c.jpg"" style=""width: 300px; height: 300px;"" />
              </div>","null",""
"","","","","","html-keyboard-response","27","86961","0.0-19.0-0.0-2.0","F630182B87BE4DD19F8A28C4D2B38E7D","f43e17f2-3749-4d60-b089-b7f05fa8effe","23db58b9-63b0-4bce-8714-07ce439e665e","","null","<div style=""display: flex; justify-content: center; align-items: center;"">
                <img src=""images/causal/causal_series_17/causal_series_17_d.jpg"" style=""width: 300px; height: 300px;"" />
              </div>","null",""
"","","","","","html-keyboard-response","28","89976","0.0-20.0","F630182B87BE4DD19F8A28C4D2B38E7D","f43e17f2-3749-4d60-b089-b7f05fa8effe","23db58b9-63b0-4bce-8714-07ce439e665e","","null","<div style=""display: flex; justify-content: center; align-items: center;"">
                <img src=""images/other/blank.jpg"" style=""width: 300px; height: 300px;"" />
              </div>","null",""
"","","","","","html-keyboard-response","29","92988","0.0-21.0","F630182B87BE4DD19F8A28C4D2B38E7D","f43e17f2-3749-4d60-b089-b7f05fa8effe","23db58b9-63b0-4bce-8714-07ce439e665e","","null","<div style=""display: flex; justify-content: center; align-items: center;"">
                <img src=""images/causal/causal_series_3/causal_series_3_a.jpg"" style=""width: 300px; height: 300px;"" />
              </div>","null",""
"","","","","","html-button-response","30","93699","0.0-22.0","F630182B87BE4DD19F8A28C4D2B38E7D","f43e17f2-3749-4d60-b089-b7f05fa8effe","23db58b9-63b0-4bce-8714-07ce439e665e","","711","
    <div style=""display: flex; justify-content: center; align-items: center;"">
      <img src=""images/red_deck_2.png"" style=""width: 300px; height: 300px; margin-right: 10px;"" />
      <img src=""images/blue_deck_1.png"" style=""width: 300px; height: 300px;"" />
    </div>","1","1"
"","","","","","html-keyboard-response","31","96701","0.0-23.0-1.0-0.0","F630182B87BE4DD19F8A28C4D2B38E7D","f43e17f2-3749-4d60-b089-b7f05fa8effe","23db58b9-63b0-4bce-8714-07ce439e665e","","null","<div style=""display: flex; justify-content: center; align-items: center;"">
                <img src=""images/semantic/semantic_series_6/semantic_series_6_d.jpg"" style=""width: 300px; height: 300px;"" />
              </div>","null",""
"","","","","","html-keyboard-response","32","99706","0.0-23.0-1.0-1.0","F630182B87BE4DD19F8A28C4D2B38E7D","f43e17f2-3749-4d60-b089-b7f05fa8effe","23db58b9-63b0-4bce-8714-07ce439e665e","","null","<div style=""display: flex; justify-content: center; align-items: center;"">
                <img src=""images/semantic/semantic_series_7/semantic_series_7_d.jpg"" style=""width: 300px; height: 300px;"" />
              </div>","null",""
"","","","","","html-keyboard-response","33","102711","0.0-23.0-1.0-2.0","F630182B87BE4DD19F8A28C4D2B38E7D","f43e17f2-3749-4d60-b089-b7f05fa8effe","23db58b9-63b0-4bce-8714-07ce439e665e","","null","<div style=""display: flex; justify-content: center; align-items: center;"">
                <img src=""images/semantic/semantic_series_8/semantic_series_8_d.jpg"" style=""width: 300px; height: 300px;"" />
              </div>","null",""
"","","","","","html-keyboard-response","34","105721","0.0-24.0","F630182B87BE4DD19F8A28C4D2B38E7D","f43e17f2-3749-4d60-b089-b7f05fa8effe","23db58b9-63b0-4bce-8714-07ce439e665e","","null","<div style=""display: flex; justify-content: center; align-items: center;"">
                <img src=""images/other/blank.jpg"" style=""width: 300px; height: 300px;"" />
              </div>","null",""
"","","","","","html-keyboard-response","35","108731","0.0-25.0","F630182B87BE4DD19F8A28C4D2B38E7D","f43e17f2-3749-4d60-b089-b7f05fa8effe","23db58b9-63b0-4bce-8714-07ce439e665e","","null","<div style=""display: flex; justify-content: center; align-items: center;"">
                <img src=""images/causal/causal_series_12/causal_series_12_a.jpg"" style=""width: 300px; height: 300px;"" />
              </div>","null",""
"","","","","","html-button-response","36","110025","0.0-26.0","F630182B87BE4DD19F8A28C4D2B38E7D","f43e17f2-3749-4d60-b089-b7f05fa8effe","23db58b9-63b0-4bce-8714-07ce439e665e","","1293","
    <div style=""display: flex; justify-content: center; align-items: center;"">
      <img src=""images/red_deck_2.png"" style=""width: 300px; height: 300px; margin-right: 10px;"" />
      <img src=""images/blue_deck_1.png"" style=""width: 300px; height: 300px;"" />
    </div>","0","0"
"","","","","","html-keyboard-response","37","113031","0.0-27.0-0.0-0.0","F630182B87BE4DD19F8A28C4D2B38E7D","f43e17f2-3749-4d60-b089-b7f05fa8effe","23db58b9-63b0-4bce-8714-07ce439e665e","","null","<div style=""display: flex; justify-content: center; align-items: center;"">
                <img src=""images/causal/causal_series_12/causal_series_12_b.jpg"" style=""width: 300px; height: 300px;"" />
              </div>","null",""
"","","","","","html-keyboard-response","38","116041","0.0-27.0-0.0-1.0","F630182B87BE4DD19F8A28C4D2B38E7D","f43e17f2-3749-4d60-b089-b7f05fa8effe","23db58b9-63b0-4bce-8714-07ce439e665e","","null","<div style=""display: flex; justify-content: center; align-items: center;"">
                <img src=""images/causal/causal_series_12/causal_series_12_c.jpg"" style=""width: 300px; height: 300px;"" />
              </div>","null",""
"","","","","","html-keyboard-response","39","119051","0.0-27.0-0.0-2.0","F630182B87BE4DD19F8A28C4D2B38E7D","f43e17f2-3749-4d60-b089-b7f05fa8effe","23db58b9-63b0-4bce-8714-07ce439e665e","","null","<div style=""display: flex; justify-content: center; align-items: center;"">
                <img src=""images/causal/causal_series_12/causal_series_12_d.jpg"" style=""width: 300px; height: 300px;"" />
              </div>","null",""
"","","","","","html-keyboard-response","40","122053","0.0-28.0","F630182B87BE4DD19F8A28C4D2B38E7D","f43e17f2-3749-4d60-b089-b7f05fa8effe","23db58b9-63b0-4bce-8714-07ce439e665e","","null","<div style=""display: flex; justify-content: center; align-items: center;"">
                <img src=""images/other/blank.jpg"" style=""width: 300px; height: 300px;"" />
              </div>","null",""
"","","","","","html-keyboard-response","41","125060","0.0-29.0","F630182B87BE4DD19F8A28C4D2B38E7D","f43e17f2-3749-4d60-b089-b7f05fa8effe","23db58b9-63b0-4bce-8714-07ce439e665e","","null","<div style=""display: flex; justify-content: center; align-items: center;"">
                <img src=""images/causal/causal_series_10/causal_series_10_a.jpg"" style=""width: 300px; height: 300px;"" />
              </div>","null",""
"","","","","","html-button-response","42","125684","0.0-30.0","F630182B87BE4DD19F8A28C4D2B38E7D","f43e17f2-3749-4d60-b089-b7f05fa8effe","23db58b9-63b0-4bce-8714-07ce439e665e","","623","
    <div style=""display: flex; justify-content: center; align-items: center;"">
      <img src=""images/red_deck_2.png"" style=""width: 300px; height: 300px; margin-right: 10px;"" />
      <img src=""images/blue_deck_1.png"" style=""width: 300px; height: 300px;"" />
    </div>","0","0"
"","","","","","html-keyboard-response","43","128691","0.0-31.0-0.0-0.0","F630182B87BE4DD19F8A28C4D2B38E7D","f43e17f2-3749-4d60-b089-b7f05fa8effe","23db58b9-63b0-4bce-8714-07ce439e665e","","null","<div style=""display: flex; justify-content: center; align-items: center;"">
                <img src=""images/causal/causal_series_10/causal_series_10_b.jpg"" style=""width: 300px; height: 300px;"" />
              </div>","null",""
"","","","","","html-keyboard-response","44","131705","0.0-31.0-0.0-1.0","F630182B87BE4DD19F8A28C4D2B38E7D","f43e17f2-3749-4d60-b089-b7f05fa8effe","23db58b9-63b0-4bce-8714-07ce439e665e","","null","<div style=""display: flex; justify-content: center; align-items: center;"">
                <img src=""images/causal/causal_series_10/causal_series_10_c.jpg"" style=""width: 300px; height: 300px;"" />
              </div>","null",""
"","","","","","html-keyboard-response","45","134716","0.0-31.0-0.0-2.0","F630182B87BE4DD19F8A28C4D2B38E7D","f43e17f2-3749-4d60-b089-b7f05fa8effe","23db58b9-63b0-4bce-8714-07ce439e665e","","null","<div style=""display: flex; justify-content: center; align-items: center;"">
                <img src=""images/causal/causal_series_10/causal_series_10_d.jpg"" style=""width: 300px; height: 300px;"" />
              </div>","null",""
"","","","","","html-keyboard-response","46","137726","0.0-32.0","F630182B87BE4DD19F8A28C4D2B38E7D","f43e17f2-3749-4d60-b089-b7f05fa8effe","23db58b9-63b0-4bce-8714-07ce439e665e","","null","<div style=""display: flex; justify-content: center; align-items: center;"">
                <img src=""images/other/blank.jpg"" style=""width: 300px; height: 300px;"" />
              </div>","null",""
"","","","","","html-keyboard-response","47","140741","0.0-33.0","F630182B87BE4DD19F8A28C4D2B38E7D","f43e17f2-3749-4d60-b089-b7f05fa8effe","23db58b9-63b0-4bce-8714-07ce439e665e","","null","<div style=""display: flex; justify-content: center; align-items: center;"">
                <img src=""images/causal/causal_series_15/causal_series_15_a.jpg"" style=""width: 300px; height: 300px;"" />
              </div>","null",""
"","","","","","html-button-response","48","141652","0.0-34.0","F630182B87BE4DD19F8A28C4D2B38E7D","f43e17f2-3749-4d60-b089-b7f05fa8effe","23db58b9-63b0-4bce-8714-07ce439e665e","","910","
    <div style=""display: flex; justify-content: center; align-items: center;"">
      <img src=""images/red_deck_2.png"" style=""width: 300px; height: 300px; margin-right: 10px;"" />
      <img src=""images/blue_deck_1.png"" style=""width: 300px; height: 300px;"" />
    </div>","0","0"
"","","","","","html-keyboard-response","49","144661","0.0-35.0-0.0-0.0","F630182B87BE4DD19F8A28C4D2B38E7D","f43e17f2-3749-4d60-b089-b7f05fa8effe","23db58b9-63b0-4bce-8714-07ce439e665e","","null","<div style=""display: flex; justify-content: center; align-items: center;"">
                <img src=""images/causal/causal_series_15/causal_series_15_b.jpg"" style=""width: 300px; height: 300px;"" />
              </div>","null",""
"","","","","","html-keyboard-response","50","147666","0.0-35.0-0.0-1.0","F630182B87BE4DD19F8A28C4D2B38E7D","f43e17f2-3749-4d60-b089-b7f05fa8effe","23db58b9-63b0-4bce-8714-07ce439e665e","","null","<div style=""display: flex; justify-content: center; align-items: center;"">
                <img src=""images/causal/causal_series_15/causal_series_15_c.jpg"" style=""width: 300px; height: 300px;"" />
              </div>","null",""
"","","","","","html-keyboard-response","51","150668","0.0-35.0-0.0-2.0","F630182B87BE4DD19F8A28C4D2B38E7D","f43e17f2-3749-4d60-b089-b7f05fa8effe","23db58b9-63b0-4bce-8714-07ce439e665e","","null","<div style=""display: flex; justify-content: center; align-items: center;"">
                <img src=""images/causal/causal_series_15/causal_series_15_d.jpg"" style=""width: 300px; height: 300px;"" />
              </div>","null",""
"","","","","","html-keyboard-response","52","153670","0.0-36.0","F630182B87BE4DD19F8A28C4D2B38E7D","f43e17f2-3749-4d60-b089-b7f05fa8effe","23db58b9-63b0-4bce-8714-07ce439e665e","","null","<div style=""display: flex; justify-content: center; align-items: center;"">
                <img src=""images/other/blank.jpg"" style=""width: 300px; height: 300px;"" />
              </div>","null",""
"","","","","","html-keyboard-response","53","156671","0.0-37.0","F630182B87BE4DD19F8A28C4D2B38E7D","f43e17f2-3749-4d60-b089-b7f05fa8effe","23db58b9-63b0-4bce-8714-07ce439e665e","","null","<div style=""display: flex; justify-content: center; align-items: center;"">
                <img src=""images/causal/causal_series_9/causal_series_9_a.jpg"" style=""width: 300px; height: 300px;"" />
              </div>","null",""
"","","","","","html-button-response","54","158918","0.0-38.0","F630182B87BE4DD19F8A28C4D2B38E7D","f43e17f2-3749-4d60-b089-b7f05fa8effe","23db58b9-63b0-4bce-8714-07ce439e665e","","2246","
    <div style=""display: flex; justify-content: center; align-items: center;"">
      <img src=""images/red_deck_2.png"" style=""width: 300px; height: 300px; margin-right: 10px;"" />
      <img src=""images/blue_deck_1.png"" style=""width: 300px; height: 300px;"" />
    </div>","1","1"
"","","","","","html-keyboard-response","55","161920","0.0-39.0-1.0-0.0","F630182B87BE4DD19F8A28C4D2B38E7D","f43e17f2-3749-4d60-b089-b7f05fa8effe","23db58b9-63b0-4bce-8714-07ce439e665e","","null","<div style=""display: flex; justify-content: center; align-items: center;"">
                <img src=""images/semantic/semantic_series_6/semantic_series_6_d.jpg"" style=""width: 300px; height: 300px;"" />
              </div>","null",""
"","","","","","html-keyboard-response","56","164932","0.0-39.0-1.0-1.0","F630182B87BE4DD19F8A28C4D2B38E7D","f43e17f2-3749-4d60-b089-b7f05fa8effe","23db58b9-63b0-4bce-8714-07ce439e665e","","null","<div style=""display: flex; justify-content: center; align-items: center;"">
                <img src=""images/semantic/semantic_series_7/semantic_series_7_d.jpg"" style=""width: 300px; height: 300px;"" />
              </div>","null",""
"","","","","","html-keyboard-response","57","167944","0.0-39.0-1.0-2.0","F630182B87BE4DD19F8A28C4D2B38E7D","f43e17f2-3749-4d60-b089-b7f05fa8effe","23db58b9-63b0-4bce-8714-07ce439e665e","","null","<div style=""display: flex; justify-content: center; align-items: center;"">
                <img src=""images/semantic/semantic_series_8/semantic_series_8_d.jpg"" style=""width: 300px; height: 300px;"" />
              </div>","null",""
"","","","","","html-keyboard-response","58","170946","0.0-40.0","F630182B87BE4DD19F8A28C4D2B38E7D","f43e17f2-3749-4d60-b089-b7f05fa8effe","23db58b9-63b0-4bce-8714-07ce439e665e","","null","<div style=""display: flex; justify-content: center; align-items: center;"">
                <img src=""images/other/blank.jpg"" style=""width: 300px; height: 300px;"" />
              </div>","null",""
"","","","","","html-keyboard-response","59","173950","0.0-41.0","F630182B87BE4DD19F8A28C4D2B38E7D","f43e17f2-3749-4d60-b089-b7f05fa8effe","23db58b9-63b0-4bce-8714-07ce439e665e","","null","<div style=""display: flex; justify-content: center; align-items: center;"">
                <img src=""images/causal/causal_series_18/causal_series_18_a.jpg"" style=""width: 300px; height: 300px;"" />
              </div>","null",""
"","","","","","html-button-response","60","174577","0.0-42.0","F630182B87BE4DD19F8A28C4D2B38E7D","f43e17f2-3749-4d60-b089-b7f05fa8effe","23db58b9-63b0-4bce-8714-07ce439e665e","","627","
    <div style=""display: flex; justify-content: center; align-items: center;"">
      <img src=""images/red_deck_2.png"" style=""width: 300px; height: 300px; margin-right: 10px;"" />
      <img src=""images/blue_deck_1.png"" style=""width: 300px; height: 300px;"" />
    </div>","0","0"
"","","","","","html-keyboard-response","61","177592","0.0-43.0-0.0-0.0","F630182B87BE4DD19F8A28C4D2B38E7D","f43e17f2-3749-4d60-b089-b7f05fa8effe","23db58b9-63b0-4bce-8714-07ce439e665e","","null","<div style=""display: flex; justify-content: center; align-items: center;"">
                <img src=""images/causal/causal_series_18/causal_series_18_b.jpg"" style=""width: 300px; height: 300px;"" />
              </div>","null",""
"","","","","","html-keyboard-response","62","180596","0.0-43.0-0.0-1.0","F630182B87BE4DD19F8A28C4D2B38E7D","f43e17f2-3749-4d60-b089-b7f05fa8effe","23db58b9-63b0-4bce-8714-07ce439e665e","","null","<div style=""display: flex; justify-content: center; align-items: center;"">
                <img src=""images/causal/causal_series_18/causal_series_18_c.jpg"" style=""width: 300px; height: 300px;"" />
              </div>","null",""
"","","","","","html-keyboard-response","63","183611","0.0-43.0-0.0-2.0","F630182B87BE4DD19F8A28C4D2B38E7D","f43e17f2-3749-4d60-b089-b7f05fa8effe","23db58b9-63b0-4bce-8714-07ce439e665e","","null","<div style=""display: flex; justify-content: center; align-items: center;"">
                <img src=""images/causal/causal_series_18/causal_series_18_d.jpg"" style=""width: 300px; height: 300px;"" />
              </div>","null",""
"","","","","","html-keyboard-response","64","186619","0.0-44.0","F630182B87BE4DD19F8A28C4D2B38E7D","f43e17f2-3749-4d60-b089-b7f05fa8effe","23db58b9-63b0-4bce-8714-07ce439e665e","","null","<div style=""display: flex; justify-content: center; align-items: center;"">
                <img src=""images/other/blank.jpg"" style=""width: 300px; height: 300px;"" />
              </div>","null",""
"","","","","","html-keyboard-response","65","189631","0.0-45.0","F630182B87BE4DD19F8A28C4D2B38E7D","f43e17f2-3749-4d60-b089-b7f05fa8effe","23db58b9-63b0-4bce-8714-07ce439e665e","","null","<div style=""display: flex; justify-content: center; align-items: center;"">
                <img src=""images/causal/causal_series_13/causal_series_13_a.jpg"" style=""width: 300px; height: 300px;"" />
              </div>","null",""
"","","","","","html-button-response","66","190219","0.0-46.0","F630182B87BE4DD19F8A28C4D2B38E7D","f43e17f2-3749-4d60-b089-b7f05fa8effe","23db58b9-63b0-4bce-8714-07ce439e665e","","587","
    <div style=""display: flex; justify-content: center; align-items: center;"">
      <img src=""images/red_deck_2.png"" style=""width: 300px; height: 300px; margin-right: 10px;"" />
      <img src=""images/blue_deck_1.png"" style=""width: 300px; height: 300px;"" />
    </div>","1","1"
"","","","","","html-keyboard-response","67","193221","0.0-47.0-1.0-0.0","F630182B87BE4DD19F8A28C4D2B38E7D","f43e17f2-3749-4d60-b089-b7f05fa8effe","23db58b9-63b0-4bce-8714-07ce439e665e","","null","<div style=""display: flex; justify-content: center; align-items: center;"">
                <img src=""images/semantic/semantic_series_18/semantic_series_18_d.jpg"" style=""width: 300px; height: 300px;"" />
              </div>","null",""
"","","","","","html-keyboard-response","68","196223","0.0-47.0-1.0-1.0","F630182B87BE4DD19F8A28C4D2B38E7D","f43e17f2-3749-4d60-b089-b7f05fa8effe","23db58b9-63b0-4bce-8714-07ce439e665e","","null","<div style=""display: flex; justify-content: center; align-items: center;"">
                <img src=""images/semantic/semantic_series_1/semantic_series_1_d.jpg"" style=""width: 300px; height: 300px;"" />
              </div>","null",""
"","","","","","html-keyboard-response","69","199236","0.0-47.0-1.0-2.0","F630182B87BE4DD19F8A28C4D2B38E7D","f43e17f2-3749-4d60-b089-b7f05fa8effe","23db58b9-63b0-4bce-8714-07ce439e665e","","null","<div style=""display: flex; justify-content: center; align-items: center;"">
                <img src=""images/semantic/semantic_series_2/semantic_series_2_d.jpg"" style=""width: 300px; height: 300px;"" />
              </div>","null",""
"","","","","","html-keyboard-response","70","202241","0.0-48.0","F630182B87BE4DD19F8A28C4D2B38E7D","f43e17f2-3749-4d60-b089-b7f05fa8effe","23db58b9-63b0-4bce-8714-07ce439e665e","","null","<div style=""display: flex; justify-content: center; align-items: center;"">
                <img src=""images/other/blank.jpg"" style=""width: 300px; height: 300px;"" />
              </div>","null",""
"","","","","","html-keyboard-response","71","205246","0.0-49.0","F630182B87BE4DD19F8A28C4D2B38E7D","f43e17f2-3749-4d60-b089-b7f05fa8effe","23db58b9-63b0-4bce-8714-07ce439e665e","","null","<div style=""display: flex; justify-content: center; align-items: center;"">
                <img src=""images/causal/causal_series_5/causal_series_5_a.jpg"" style=""width: 300px; height: 300px;"" />
              </div>","null",""
"","","","","","html-button-response","72","206450","0.0-50.0","F630182B87BE4DD19F8A28C4D2B38E7D","f43e17f2-3749-4d60-b089-b7f05fa8effe","23db58b9-63b0-4bce-8714-07ce439e665e","","1203","
    <div style=""display: flex; justify-content: center; align-items: center;"">
      <img src=""images/red_deck_2.png"" style=""width: 300px; height: 300px; margin-right: 10px;"" />
      <img src=""images/blue_deck_1.png"" style=""width: 300px; height: 300px;"" />
    </div>","0","0"
"","","","","","html-keyboard-response","73","209461","0.0-51.0-0.0-0.0","F630182B87BE4DD19F8A28C4D2B38E7D","f43e17f2-3749-4d60-b089-b7f05fa8effe","23db58b9-63b0-4bce-8714-07ce439e665e","","null","<div style=""display: flex; justify-content: center; align-items: center;"">
                <img src=""images/causal/causal_series_5/causal_series_5_b.jpg"" style=""width: 300px; height: 300px;"" />
              </div>","null",""
"","","","","","html-keyboard-response","74","212466","0.0-51.0-0.0-1.0","F630182B87BE4DD19F8A28C4D2B38E7D","f43e17f2-3749-4d60-b089-b7f05fa8effe","23db58b9-63b0-4bce-8714-07ce439e665e","","null","<div style=""display: flex; justify-content: center; align-items: center;"">
                <img src=""images/causal/causal_series_5/causal_series_5_c.jpg"" style=""width: 300px; height: 300px;"" />
              </div>","null",""
"","","","","","html-keyboard-response","75","215482","0.0-51.0-0.0-2.0","F630182B87BE4DD19F8A28C4D2B38E7D","f43e17f2-3749-4d60-b089-b7f05fa8effe","23db58b9-63b0-4bce-8714-07ce439e665e","","null","<div style=""display: flex; justify-content: center; align-items: center;"">
                <img src=""images/causal/causal_series_5/causal_series_5_d.jpg"" style=""width: 300px; height: 300px;"" />
              </div>","null",""
"","","","","","html-keyboard-response","76","218491","0.0-52.0","F630182B87BE4DD19F8A28C4D2B38E7D","f43e17f2-3749-4d60-b089-b7f05fa8effe","23db58b9-63b0-4bce-8714-07ce439e665e","","null","<div style=""display: flex; justify-content: center; align-items: center;"">
                <img src=""images/other/blank.jpg"" style=""width: 300px; height: 300px;"" />
              </div>","null",""
"","","","","","html-keyboard-response","77","221496","0.0-53.0","F630182B87BE4DD19F8A28C4D2B38E7D","f43e17f2-3749-4d60-b089-b7f05fa8effe","23db58b9-63b0-4bce-8714-07ce439e665e","","null","<div style=""display: flex; justify-content: center; align-items: center;"">
                <img src=""images/causal/causal_series_8/causal_series_8_a.jpg"" style=""width: 300px; height: 300px;"" />
              </div>","null",""
"","","","","","html-button-response","78","222377","0.0-54.0","F630182B87BE4DD19F8A28C4D2B38E7D","f43e17f2-3749-4d60-b089-b7f05fa8effe","23db58b9-63b0-4bce-8714-07ce439e665e","","880","
    <div style=""display: flex; justify-content: center; align-items: center;"">
      <img src=""images/red_deck_2.png"" style=""width: 300px; height: 300px; margin-right: 10px;"" />
      <img src=""images/blue_deck_1.png"" style=""width: 300px; height: 300px;"" />
    </div>","0","0"
"","","","","","html-keyboard-response","79","225378","0.0-55.0-0.0-0.0","F630182B87BE4DD19F8A28C4D2B38E7D","f43e17f2-3749-4d60-b089-b7f05fa8effe","23db58b9-63b0-4bce-8714-07ce439e665e","","null","<div style=""display: flex; justify-content: center; align-items: center;"">
                <img src=""images/causal/causal_series_8/causal_series_8_b.jpg"" style=""width: 300px; height: 300px;"" />
              </div>","null",""
"","","","","","html-keyboard-response","80","228391","0.0-55.0-0.0-1.0","F630182B87BE4DD19F8A28C4D2B38E7D","f43e17f2-3749-4d60-b089-b7f05fa8effe","23db58b9-63b0-4bce-8714-07ce439e665e","","null","<div style=""display: flex; justify-content: center; align-items: center;"">
                <img src=""images/causal/causal_series_8/causal_series_8_c.jpg"" style=""width: 300px; height: 300px;"" />
              </div>","null",""
"","","","","","html-keyboard-response","81","231399","0.0-55.0-0.0-2.0","F630182B87BE4DD19F8A28C4D2B38E7D","f43e17f2-3749-4d60-b089-b7f05fa8effe","23db58b9-63b0-4bce-8714-07ce439e665e","","null","<div style=""display: flex; justify-content: center; align-items: center;"">
                <img src=""images/causal/causal_series_8/causal_series_8_d.jpg"" style=""width: 300px; height: 300px;"" />
              </div>","null",""
"","","","","","html-keyboard-response","82","234400","0.0-56.0","F630182B87BE4DD19F8A28C4D2B38E7D","f43e17f2-3749-4d60-b089-b7f05fa8effe","23db58b9-63b0-4bce-8714-07ce439e665e","","null","<div style=""display: flex; justify-content: center; align-items: center;"">
                <img src=""images/other/blank.jpg"" style=""width: 300px; height: 300px;"" />
              </div>","null",""
"","","","","","html-keyboard-response","83","237407","0.0-57.0","F630182B87BE4DD19F8A28C4D2B38E7D","f43e17f2-3749-4d60-b089-b7f05fa8effe","23db58b9-63b0-4bce-8714-07ce439e665e","","null","<div style=""display: flex; justify-content: center; align-items: center;"">
                <img src=""images/causal/causal_series_16/causal_series_16_a.jpg"" style=""width: 300px; height: 300px;"" />
              </div>","null",""
"","","","","","html-button-response","84","237926","0.0-58.0","F630182B87BE4DD19F8A28C4D2B38E7D","f43e17f2-3749-4d60-b089-b7f05fa8effe","23db58b9-63b0-4bce-8714-07ce439e665e","","518","
    <div style=""display: flex; justify-content: center; align-items: center;"">
      <img src=""images/red_deck_2.png"" style=""width: 300px; height: 300px; margin-right: 10px;"" />
      <img src=""images/blue_deck_1.png"" style=""width: 300px; height: 300px;"" />
    </div>","0","0"
"","","","","","html-keyboard-response","85","240941","0.0-59.0-0.0-0.0","F630182B87BE4DD19F8A28C4D2B38E7D","f43e17f2-3749-4d60-b089-b7f05fa8effe","23db58b9-63b0-4bce-8714-07ce439e665e","","null","<div style=""display: flex; justify-content: center; align-items: center;"">
                <img src=""images/causal/causal_series_16/causal_series_16_b.jpg"" style=""width: 300px; height: 300px;"" />
              </div>","null",""
"","","","","","html-keyboard-response","86","243956","0.0-59.0-0.0-1.0","F630182B87BE4DD19F8A28C4D2B38E7D","f43e17f2-3749-4d60-b089-b7f05fa8effe","23db58b9-63b0-4bce-8714-07ce439e665e","","null","<div style=""display: flex; justify-content: center; align-items: center;"">
                <img src=""images/causal/causal_series_16/causal_series_16_c.jpg"" style=""width: 300px; height: 300px;"" />
              </div>","null",""
"","","","","","html-keyboard-response","87","246963","0.0-59.0-0.0-2.0","F630182B87BE4DD19F8A28C4D2B38E7D","f43e17f2-3749-4d60-b089-b7f05fa8effe","23db58b9-63b0-4bce-8714-07ce439e665e","","null","<div style=""display: flex; justify-content: center; align-items: center;"">
                <img src=""images/causal/causal_series_16/causal_series_16_d.jpg"" style=""width: 300px; height: 300px;"" />
              </div>","null",""
"","","","","","html-keyboard-response","88","249966","0.0-60.0","F630182B87BE4DD19F8A28C4D2B38E7D","f43e17f2-3749-4d60-b089-b7f05fa8effe","23db58b9-63b0-4bce-8714-07ce439e665e","","null","<div style=""display: flex; justify-content: center; align-items: center;"">
                <img src=""images/other/blank.jpg"" style=""width: 300px; height: 300px;"" />
              </div>","null",""
"","","","","","html-keyboard-response","89","252970","0.0-61.0","F630182B87BE4DD19F8A28C4D2B38E7D","f43e17f2-3749-4d60-b089-b7f05fa8effe","23db58b9-63b0-4bce-8714-07ce439e665e","","null","<div style=""display: flex; justify-content: center; align-items: center;"">
                <img src=""images/causal/causal_series_14/causal_series_14_a.jpg"" style=""width: 300px; height: 300px;"" />
              </div>","null",""
"","","","","","html-button-response","90","253661","0.0-62.0","F630182B87BE4DD19F8A28C4D2B38E7D","f43e17f2-3749-4d60-b089-b7f05fa8effe","23db58b9-63b0-4bce-8714-07ce439e665e","","690","
    <div style=""display: flex; justify-content: center; align-items: center;"">
      <img src=""images/red_deck_2.png"" style=""width: 300px; height: 300px; margin-right: 10px;"" />
      <img src=""images/blue_deck_1.png"" style=""width: 300px; height: 300px;"" />
    </div>","1","1"
"","","","","","html-keyboard-response","91","256671","0.0-63.0-1.0-0.0","F630182B87BE4DD19F8A28C4D2B38E7D","f43e17f2-3749-4d60-b089-b7f05fa8effe","23db58b9-63b0-4bce-8714-07ce439e665e","","null","<div style=""display: flex; justify-content: center; align-items: center;"">
                <img src=""images/semantic/semantic_series_3/semantic_series_3_d.jpg"" style=""width: 300px; height: 300px;"" />
              </div>","null",""
"","","","","","html-keyboard-response","92","259681","0.0-63.0-1.0-1.0","F630182B87BE4DD19F8A28C4D2B38E7D","f43e17f2-3749-4d60-b089-b7f05fa8effe","23db58b9-63b0-4bce-8714-07ce439e665e","","null","<div style=""display: flex; justify-content: center; align-items: center;"">
                <img src=""images/semantic/semantic_series_4/semantic_series_4_d.jpg"" style=""width: 300px; height: 300px;"" />
              </div>","null",""
"","","","","","html-keyboard-response","93","262685","0.0-63.0-1.0-2.0","F630182B87BE4DD19F8A28C4D2B38E7D","f43e17f2-3749-4d60-b089-b7f05fa8effe","23db58b9-63b0-4bce-8714-07ce439e665e","","null","<div style=""display: flex; justify-content: center; align-items: center;"">
                <img src=""images/semantic/semantic_series_5/semantic_series_5_d.jpg"" style=""width: 300px; height: 300px;"" />
              </div>","null",""
"","","","","","html-keyboard-response","94","265691","0.0-64.0","F630182B87BE4DD19F8A28C4D2B38E7D","f43e17f2-3749-4d60-b089-b7f05fa8effe","23db58b9-63b0-4bce-8714-07ce439e665e","","null","<div style=""display: flex; justify-content: center; align-items: center;"">
                <img src=""images/other/blank.jpg"" style=""width: 300px; height: 300px;"" />
              </div>","null",""
"","","","","","html-keyboard-response","95","268701","0.0-65.0","F630182B87BE4DD19F8A28C4D2B38E7D","f43e17f2-3749-4d60-b089-b7f05fa8effe","23db58b9-63b0-4bce-8714-07ce439e665e","","null","<div style=""display: flex; justify-content: center; align-items: center;"">
                <img src=""images/causal/causal_series_7/causal_series_7_a.jpg"" style=""width: 300px; height: 300px;"" />
              </div>","null",""
"","","","","","html-button-response","96","269389","0.0-66.0","F630182B87BE4DD19F8A28C4D2B38E7D","f43e17f2-3749-4d60-b089-b7f05fa8effe","23db58b9-63b0-4bce-8714-07ce439e665e","","687","
    <div style=""display: flex; justify-content: center; align-items: center;"">
      <img src=""images/red_deck_2.png"" style=""width: 300px; height: 300px; margin-right: 10px;"" />
      <img src=""images/blue_deck_1.png"" style=""width: 300px; height: 300px;"" />
    </div>","0","0"
"","","","","","html-keyboard-response","97","272401","0.0-67.0-0.0-0.0","F630182B87BE4DD19F8A28C4D2B38E7D","f43e17f2-3749-4d60-b089-b7f05fa8effe","23db58b9-63b0-4bce-8714-07ce439e665e","","null","<div style=""display: flex; justify-content: center; align-items: center;"">
                <img src=""images/causal/causal_series_7/causal_series_7_b.jpg"" style=""width: 300px; height: 300px;"" />
              </div>","null",""
"","","","","","html-keyboard-response","98","275406","0.0-67.0-0.0-1.0","F630182B87BE4DD19F8A28C4D2B38E7D","f43e17f2-3749-4d60-b089-b7f05fa8effe","23db58b9-63b0-4bce-8714-07ce439e665e","","null","<div style=""display: flex; justify-content: center; align-items: center;"">
                <img src=""images/causal/causal_series_7/causal_series_7_c.jpg"" style=""width: 300px; height: 300px;"" />
              </div>","null",""
"","","","","","html-keyboard-response","99","278421","0.0-67.0-0.0-2.0","F630182B87BE4DD19F8A28C4D2B38E7D","f43e17f2-3749-4d60-b089-b7f05fa8effe","23db58b9-63b0-4bce-8714-07ce439e665e","","null","<div style=""display: flex; justify-content: center; align-items: center;"">
                <img src=""images/causal/causal_series_7/causal_series_7_d.jpg"" style=""width: 300px; height: 300px;"" />
              </div>","null",""
"","","","","","html-keyboard-response","100","281426","0.0-68.0","F630182B87BE4DD19F8A28C4D2B38E7D","f43e17f2-3749-4d60-b089-b7f05fa8effe","23db58b9-63b0-4bce-8714-07ce439e665e","","null","<div style=""display: flex; justify-content: center; align-items: center;"">
                <img src=""images/other/blank.jpg"" style=""width: 300px; height: 300px;"" />
              </div>","null",""
"","","","","","html-keyboard-response","101","284432","0.0-69.0","F630182B87BE4DD19F8A28C4D2B38E7D","f43e17f2-3749-4d60-b089-b7f05fa8effe","23db58b9-63b0-4bce-8714-07ce439e665e","","null","<div style=""display: flex; justify-content: center; align-items: center;"">
                <img src=""images/causal/causal_series_1/causal_series_1_a.jpg"" style=""width: 300px; height: 300px;"" />
              </div>","null",""
"","","","","","html-button-response","102","285516","0.0-70.0","F630182B87BE4DD19F8A28C4D2B38E7D","f43e17f2-3749-4d60-b089-b7f05fa8effe","23db58b9-63b0-4bce-8714-07ce439e665e","","1083","
    <div style=""display: flex; justify-content: center; align-items: center;"">
      <img src=""images/red_deck_2.png"" style=""width: 300px; height: 300px; margin-right: 10px;"" />
      <img src=""images/blue_deck_1.png"" style=""width: 300px; height: 300px;"" />
    </div>","0","0"
"","","","","","html-keyboard-response","103","288526","0.0-71.0-0.0-0.0","F630182B87BE4DD19F8A28C4D2B38E7D","f43e17f2-3749-4d60-b089-b7f05fa8effe","23db58b9-63b0-4bce-8714-07ce439e665e","","null","<div style=""display: flex; justify-content: center; align-items: center;"">
                <img src=""images/causal/causal_series_1/causal_series_1_b.jpg"" style=""width: 300px; height: 300px;"" />
              </div>","null",""
"","","","","","html-keyboard-response","104","291536","0.0-71.0-0.0-1.0","F630182B87BE4DD19F8A28C4D2B38E7D","f43e17f2-3749-4d60-b089-b7f05fa8effe","23db58b9-63b0-4bce-8714-07ce439e665e","","null","<div style=""display: flex; justify-content: center; align-items: center;"">
                <img src=""images/causal/causal_series_1/causal_series_1_c.jpg"" style=""width: 300px; height: 300px;"" />
              </div>","null",""
"","","","","","html-keyboard-response","105","294546","0.0-71.0-0.0-2.0","F630182B87BE4DD19F8A28C4D2B38E7D","f43e17f2-3749-4d60-b089-b7f05fa8effe","23db58b9-63b0-4bce-8714-07ce439e665e","","null","<div style=""display: flex; justify-content: center; align-items: center;"">
                <img src=""images/causal/causal_series_1/causal_series_1_d.jpg"" style=""width: 300px; height: 300px;"" />
              </div>","null",""
"","","","","","html-keyboard-response","106","297561","0.0-72.0","F630182B87BE4DD19F8A28C4D2B38E7D","f43e17f2-3749-4d60-b089-b7f05fa8effe","23db58b9-63b0-4bce-8714-07ce439e665e","","null","<div style=""display: flex; justify-content: center; align-items: center;"">
                <img src=""images/other/blank.jpg"" style=""width: 300px; height: 300px;"" />
              </div>","null",""
"","","","","","html-keyboard-response","107","300567","0.0-73.0","F630182B87BE4DD19F8A28C4D2B38E7D","f43e17f2-3749-4d60-b089-b7f05fa8effe","23db58b9-63b0-4bce-8714-07ce439e665e","","null","<div style=""display: flex; justify-content: center; align-items: center;"">
                <img src=""images/causal/causal_series_2/causal_series_2_a.jpg"" style=""width: 300px; height: 300px;"" />
              </div>","null",""
"","","","","","html-button-response","108","301182","0.0-74.0","F630182B87BE4DD19F8A28C4D2B38E7D","f43e17f2-3749-4d60-b089-b7f05fa8effe","23db58b9-63b0-4bce-8714-07ce439e665e","","614","
    <div style=""display: flex; justify-content: center; align-items: center;"">
      <img src=""images/red_deck_2.png"" style=""width: 300px; height: 300px; margin-right: 10px;"" />
      <img src=""images/blue_deck_1.png"" style=""width: 300px; height: 300px;"" />
    </div>","1","1"
"","","","","","html-keyboard-response","109","304190","0.0-75.0-1.0-0.0","F630182B87BE4DD19F8A28C4D2B38E7D","f43e17f2-3749-4d60-b089-b7f05fa8effe","23db58b9-63b0-4bce-8714-07ce439e665e","","null","<div style=""display: flex; justify-content: center; align-items: center;"">
                <img src=""images/semantic/semantic_series_3/semantic_series_3_d.jpg"" style=""width: 300px; height: 300px;"" />
              </div>","null",""
"","","","","","html-keyboard-response","110","307194","0.0-75.0-1.0-1.0","F630182B87BE4DD19F8A28C4D2B38E7D","f43e17f2-3749-4d60-b089-b7f05fa8effe","23db58b9-63b0-4bce-8714-07ce439e665e","","null","<div style=""display: flex; justify-content: center; align-items: center;"">
                <img src=""images/semantic/semantic_series_4/semantic_series_4_d.jpg"" style=""width: 300px; height: 300px;"" />
              </div>","null",""
"","","","","","html-keyboard-response","111","310202","0.0-75.0-1.0-2.0","F630182B87BE4DD19F8A28C4D2B38E7D","f43e17f2-3749-4d60-b089-b7f05fa8effe","23db58b9-63b0-4bce-8714-07ce439e665e","","null","<div style=""display: flex; justify-content: center; align-items: center;"">
                <img src=""images/semantic/semantic_series_5/semantic_series_5_d.jpg"" style=""width: 300px; height: 300px;"" />
              </div>","null",""
"","","","","","html-keyboard-response","112","313216","0.0-76.0","F630182B87BE4DD19F8A28C4D2B38E7D","f43e17f2-3749-4d60-b089-b7f05fa8effe","23db58b9-63b0-4bce-8714-07ce439e665e","","null","<div style=""display: flex; justify-content: center; align-items: center;"">
                <img src=""images/other/blank.jpg"" style=""width: 300px; height: 300px;"" />
              </div>","null",""
"","","","","","survey-text","113","335990","0.0-77.0","F630182B87BE4DD19F8A28C4D2B38E7D","f43e17f2-3749-4d60-b089-b7f05fa8effe","23db58b9-63b0-4bce-8714-07ce439e665e","","22769","","{""Q0"":""deck a gave you the whole story following the first picture, deck b gave you a set of random images from all the stories""}",""
"","","","","","survey-text","114","343150","0.0-78.0","F630182B87BE4DD19F8A28C4D2B38E7D","f43e17f2-3749-4d60-b089-b7f05fa8effe","23db58b9-63b0-4bce-8714-07ce439e665e","","7158","","{""Q0"":""deck a""}",""
"","","","","","html-button-response","115","350005","0.0-79.0","F630182B87BE4DD19F8A28C4D2B38E7D","f43e17f2-3749-4d60-b089-b7f05fa8effe","23db58b9-63b0-4bce-8714-07ce439e665e","","6854","Which color deck does the fourth image continue the story from the series?","0",""
"","","","","","html-button-response","116","352749","0.0-80.0","F630182B87BE4DD19F8A28C4D2B38E7D","f43e17f2-3749-4d60-b089-b7f05fa8effe","23db58b9-63b0-4bce-8714-07ce439e665e","","2744","Which color deck does the fourth image not follow the story from the series?","1",""
"","","","","","survey-text","117","358141","0.0-81.0","F630182B87BE4DD19F8A28C4D2B38E7D","f43e17f2-3749-4d60-b089-b7f05fa8effe","23db58b9-63b0-4bce-8714-07ce439e665e","","5389","","{""Q0"":""Female"",""Q1"":""30""}",""
"","","","","","instructions","118","361501","0.0-82.0","F630182B87BE4DD19F8A28C4D2B38E7D","f43e17f2-3749-4d60-b089-b7f05fa8effe","23db58b9-63b0-4bce-8714-07ce439e665e","[{""page_index"":0,""viewing_time"":3360}]","3360","","",""
