"success","timeout","failed_images","failed_audio","failed_video","trial_type","trial_index","time_elapsed","internal_node_id","subject_id","study_id","session_id","view_history","rt","stimulus","response","choice"
"true","false","[]","[]","[]","preload","0","29258","0.0-0.0","2AF2189557FA4B6B84219ACB97445918","99c1f157-3b6e-4ab1-9ef0-950fec0935bc","23db58b9-63b0-4bce-8714-07ce439e665e","","","","",""
"","","","","","instructions","1","39358","0.0-1.0","2AF2189557FA4B6B84219ACB97445918","99c1f157-3b6e-4ab1-9ef0-950fec0935bc","23db58b9-63b0-4bce-8714-07ce439e665e","[{""page_index"":0,""viewing_time"":10100}]","10100","","",""
"","","","","","instructions","2","59953","0.0-2.0","2AF2189557FA4B6B84219ACB97445918","99c1f157-3b6e-4ab1-9ef0-950fec0935bc","23db58b9-63b0-4bce-8714-07ce439e665e","[{""page_index"":0,""viewing_time"":20594}]","20594","","",""
"true","","","","","fullscreen","3","65207","0.0-3.0","2AF2189557FA4B6B84219ACB97445918","99c1f157-3b6e-4ab1-9ef0-950fec0935bc","23db58b9-63b0-4bce-8714-07ce439e665e","","4248","","",""
"","","","","","instructions","4","159988","0.0-4.0","2AF2189557FA4B6B84219ACB97445918","99c1f157-3b6e-4ab1-9ef0-950fec0935bc","23db58b9-63b0-4bce-8714-07ce439e665e","[{""page_index"":0,""viewing_time"":94779}]","94780","","",""
"","","","","","html-keyboard-response","5","163002","0.0-5.0","2AF2189557FA4B6B84219ACB97445918","99c1f157-3b6e-4ab1-9ef0-950fec0935bc","23db58b9-63b0-4bce-8714-07ce439e665e","","null","<div style=""display: flex; justify-content: center; align-items: center;"">
                <img src=""images/causal/causal_series_18/causal_series_18_a.jpg"" style=""width: 300px; height: 300px;"" />
              </div>","null",""
"","","","","","html-button-response","6","166477","0.0-6.0","2AF2189557FA4B6B84219ACB97445918","99c1f157-3b6e-4ab1-9ef0-950fec0935bc","23db58b9-63b0-4bce-8714-07ce439e665e","","3473","
    <div style=""display: flex; justify-content: center; align-items: center;"">
      <img src=""images/red_deck_2.png"" style=""width: 300px; height: 300px; margin-right: 10px;"" />
      <img src=""images/blue_deck_1.png"" style=""width: 300px; height: 300px;"" />
    </div>","0","0"
"","","","","","html-keyboard-response","7","169485","0.0-7.0-0.0-0.0","2AF2189557FA4B6B84219ACB97445918","99c1f157-3b6e-4ab1-9ef0-950fec0935bc","23db58b9-63b0-4bce-8714-07ce439e665e","","null","<div style=""display: flex; justify-content: center; align-items: center;"">
                <img src=""images/causal/causal_series_18/causal_series_18_b.jpg"" style=""width: 300px; height: 300px;"" />
              </div>","null",""
"","","","","","html-keyboard-response","8","172498","0.0-7.0-0.0-1.0","2AF2189557FA4B6B84219ACB97445918","99c1f157-3b6e-4ab1-9ef0-950fec0935bc","23db58b9-63b0-4bce-8714-07ce439e665e","","null","<div style=""display: flex; justify-content: center; align-items: center;"">
                <img src=""images/causal/causal_series_18/causal_series_18_c.jpg"" style=""width: 300px; height: 300px;"" />
              </div>","null",""
"","","","","","html-keyboard-response","9","175509","0.0-7.0-0.0-2.0","2AF2189557FA4B6B84219ACB97445918","99c1f157-3b6e-4ab1-9ef0-950fec0935bc","23db58b9-63b0-4bce-8714-07ce439e665e","","null","<div style=""display: flex; justify-content: center; align-items: center;"">
                <img src=""images/causal/causal_series_18/causal_series_18_d.jpg"" style=""width: 300px; height: 300px;"" />
              </div>","null",""
"","","","","","html-keyboard-response","10","178527","0.0-8.0","2AF2189557FA4B6B84219ACB97445918","99c1f157-3b6e-4ab1-9ef0-950fec0935bc","23db58b9-63b0-4bce-8714-07ce439e665e","","null","<div style=""display: flex; justify-content: center; align-items: center;"">
                <img src=""images/other/blank.jpg"" style=""width: 300px; height: 300px;"" />
              </div>","null",""
"","","","","","html-keyboard-response","11","181544","0.0-9.0","2AF2189557FA4B6B84219ACB97445918","99c1f157-3b6e-4ab1-9ef0-950fec0935bc","23db58b9-63b0-4bce-8714-07ce439e665e","","null","<div style=""display: flex; justify-content: center; align-items: center;"">
                <img src=""images/causal/causal_series_2/causal_series_2_a.jpg"" style=""width: 300px; height: 300px;"" />
              </div>","null",""
"","","","","","html-button-response","12","189167","0.0-10.0","2AF2189557FA4B6B84219ACB97445918","99c1f157-3b6e-4ab1-9ef0-950fec0935bc","23db58b9-63b0-4bce-8714-07ce439e665e","","7621","
    <div style=""display: flex; justify-content: center; align-items: center;"">
      <img src=""images/red_deck_2.png"" style=""width: 300px; height: 300px; margin-right: 10px;"" />
      <img src=""images/blue_deck_1.png"" style=""width: 300px; height: 300px;"" />
    </div>","1","1"
"","","","","","html-keyboard-response","13","192180","0.0-11.0-1.0-0.0","2AF2189557FA4B6B84219ACB97445918","99c1f157-3b6e-4ab1-9ef0-950fec0935bc","23db58b9-63b0-4bce-8714-07ce439e665e","","null","<div style=""display: flex; justify-content: center; align-items: center;"">
                <img src=""images/semantic/semantic_series_3/semantic_series_3_d.jpg"" style=""width: 300px; height: 300px;"" />
              </div>","null",""
"","","","","","html-keyboard-response","14","195191","0.0-11.0-1.0-1.0","2AF2189557FA4B6B84219ACB97445918","99c1f157-3b6e-4ab1-9ef0-950fec0935bc","23db58b9-63b0-4bce-8714-07ce439e665e","","null","<div style=""display: flex; justify-content: center; align-items: center;"">
                <img src=""images/semantic/semantic_series_4/semantic_series_4_d.jpg"" style=""width: 300px; height: 300px;"" />
              </div>","null",""
"","","","","","html-keyboard-response","15","198206","0.0-11.0-1.0-2.0","2AF2189557FA4B6B84219ACB97445918","99c1f157-3b6e-4ab1-9ef0-950fec0935bc","23db58b9-63b0-4bce-8714-07ce439e665e","","null","<div style=""display: flex; justify-content: center; align-items: center;"">
                <img src=""images/semantic/semantic_series_5/semantic_series_5_d.jpg"" style=""width: 300px; height: 300px;"" />
              </div>","null",""
"","","","","","html-keyboard-response","16","201208","0.0-12.0","2AF2189557FA4B6B84219ACB97445918","99c1f157-3b6e-4ab1-9ef0-950fec0935bc","23db58b9-63b0-4bce-8714-07ce439e665e","","null","<div style=""display: flex; justify-content: center; align-items: center;"">
                <img src=""images/other/blank.jpg"" style=""width: 300px; height: 300px;"" />
              </div>","null",""
"","","","","","html-keyboard-response","17","204219","0.0-13.0","2AF2189557FA4B6B84219ACB97445918","99c1f157-3b6e-4ab1-9ef0-950fec0935bc","23db58b9-63b0-4bce-8714-07ce439e665e","","null","<div style=""display: flex; justify-content: center; align-items: center;"">
                <img src=""images/causal/causal_series_14/causal_series_14_a.jpg"" style=""width: 300px; height: 300px;"" />
              </div>","null",""
"","","","","","html-button-response","18","206368","0.0-14.0","2AF2189557FA4B6B84219ACB97445918","99c1f157-3b6e-4ab1-9ef0-950fec0935bc","23db58b9-63b0-4bce-8714-07ce439e665e","","2148","
    <div style=""display: flex; justify-content: center; align-items: center;"">
      <img src=""images/red_deck_2.png"" style=""width: 300px; height: 300px; margin-right: 10px;"" />
      <img src=""images/blue_deck_1.png"" style=""width: 300px; height: 300px;"" />
    </div>","1","1"
"","","","","","html-keyboard-response","19","209378","0.0-15.0-1.0-0.0","2AF2189557FA4B6B84219ACB97445918","99c1f157-3b6e-4ab1-9ef0-950fec0935bc","23db58b9-63b0-4bce-8714-07ce439e665e","","null","<div style=""display: flex; justify-content: center; align-items: center;"">
                <img src=""images/semantic/semantic_series_3/semantic_series_3_d.jpg"" style=""width: 300px; height: 300px;"" />
              </div>","null",""
"","","","","","html-keyboard-response","20","212393","0.0-15.0-1.0-1.0","2AF2189557FA4B6B84219ACB97445918","99c1f157-3b6e-4ab1-9ef0-950fec0935bc","23db58b9-63b0-4bce-8714-07ce439e665e","","null","<div style=""display: flex; justify-content: center; align-items: center;"">
                <img src=""images/semantic/semantic_series_4/semantic_series_4_d.jpg"" style=""width: 300px; height: 300px;"" />
              </div>","null",""
"","","","","","html-keyboard-response","21","215409","0.0-15.0-1.0-2.0","2AF2189557FA4B6B84219ACB97445918","99c1f157-3b6e-4ab1-9ef0-950fec0935bc","23db58b9-63b0-4bce-8714-07ce439e665e","","null","<div style=""display: flex; justify-content: center; align-items: center;"">
                <img src=""images/semantic/semantic_series_5/semantic_series_5_d.jpg"" style=""width: 300px; height: 300px;"" />
              </div>","null",""
"","","","","","html-keyboard-response","22","218412","0.0-16.0","2AF2189557FA4B6B84219ACB97445918","99c1f157-3b6e-4ab1-9ef0-950fec0935bc","23db58b9-63b0-4bce-8714-07ce439e665e","","null","<div style=""display: flex; justify-content: center; align-items: center;"">
                <img src=""images/other/blank.jpg"" style=""width: 300px; height: 300px;"" />
              </div>","null",""
"","","","","","html-keyboard-response","23","221417","0.0-17.0","2AF2189557FA4B6B84219ACB97445918","99c1f157-3b6e-4ab1-9ef0-950fec0935bc","23db58b9-63b0-4bce-8714-07ce439e665e","","null","<div style=""display: flex; justify-content: center; align-items: center;"">
                <img src=""images/causal/causal_series_10/causal_series_10_a.jpg"" style=""width: 300px; height: 300px;"" />
              </div>","null",""
"","","","","","html-button-response","24","239460","0.0-18.0","2AF2189557FA4B6B84219ACB97445918","99c1f157-3b6e-4ab1-9ef0-950fec0935bc","23db58b9-63b0-4bce-8714-07ce439e665e","","18042","
    <div style=""display: flex; justify-content: center; align-items: center;"">
      <img src=""images/red_deck_2.png"" style=""width: 300px; height: 300px; margin-right: 10px;"" />
      <img src=""images/blue_deck_1.png"" style=""width: 300px; height: 300px;"" />
    </div>","1","1"
"","","","","","html-keyboard-response","25","242471","0.0-19.0-1.0-0.0","2AF2189557FA4B6B84219ACB97445918","99c1f157-3b6e-4ab1-9ef0-950fec0935bc","23db58b9-63b0-4bce-8714-07ce439e665e","","null","<div style=""display: flex; justify-content: center; align-items: center;"">
                <img src=""images/semantic/semantic_series_9/semantic_series_9_d.jpg"" style=""width: 300px; height: 300px;"" />
              </div>","null",""
"","","","","","html-keyboard-response","26","245481","0.0-19.0-1.0-1.0","2AF2189557FA4B6B84219ACB97445918","99c1f157-3b6e-4ab1-9ef0-950fec0935bc","23db58b9-63b0-4bce-8714-07ce439e665e","","null","<div style=""display: flex; justify-content: center; align-items: center;"">
                <img src=""images/semantic/semantic_series_10/semantic_series_10_d.jpg"" style=""width: 300px; height: 300px;"" />
              </div>","null",""
"","","","","","html-keyboard-response","27","248496","0.0-19.0-1.0-2.0","2AF2189557FA4B6B84219ACB97445918","99c1f157-3b6e-4ab1-9ef0-950fec0935bc","23db58b9-63b0-4bce-8714-07ce439e665e","","null","<div style=""display: flex; justify-content: center; align-items: center;"">
                <img src=""images/semantic/semantic_series_11/semantic_series_11_d.jpg"" style=""width: 300px; height: 300px;"" />
              </div>","null",""
"","","","","","html-keyboard-response","28","251501","0.0-20.0","2AF2189557FA4B6B84219ACB97445918","99c1f157-3b6e-4ab1-9ef0-950fec0935bc","23db58b9-63b0-4bce-8714-07ce439e665e","","null","<div style=""display: flex; justify-content: center; align-items: center;"">
                <img src=""images/other/blank.jpg"" style=""width: 300px; height: 300px;"" />
              </div>","null",""
"","","","","","html-keyboard-response","29","254515","0.0-21.0","2AF2189557FA4B6B84219ACB97445918","99c1f157-3b6e-4ab1-9ef0-950fec0935bc","23db58b9-63b0-4bce-8714-07ce439e665e","","null","<div style=""display: flex; justify-content: center; align-items: center;"">
                <img src=""images/causal/causal_series_9/causal_series_9_a.jpg"" style=""width: 300px; height: 300px;"" />
              </div>","null",""
"","","","","","html-button-response","30","303227","0.0-22.0","2AF2189557FA4B6B84219ACB97445918","99c1f157-3b6e-4ab1-9ef0-950fec0935bc","23db58b9-63b0-4bce-8714-07ce439e665e","","48710","
    <div style=""display: flex; justify-content: center; align-items: center;"">
      <img src=""images/red_deck_2.png"" style=""width: 300px; height: 300px; margin-right: 10px;"" />
      <img src=""images/blue_deck_1.png"" style=""width: 300px; height: 300px;"" />
    </div>","0","0"
"","","","","","html-keyboard-response","31","306236","0.0-23.0-0.0-0.0","2AF2189557FA4B6B84219ACB97445918","99c1f157-3b6e-4ab1-9ef0-950fec0935bc","23db58b9-63b0-4bce-8714-07ce439e665e","","null","<div style=""display: flex; justify-content: center; align-items: center;"">
                <img src=""images/causal/causal_series_9/causal_series_9_b.jpg"" style=""width: 300px; height: 300px;"" />
              </div>","null",""
"","","","","","html-keyboard-response","32","309248","0.0-23.0-0.0-1.0","2AF2189557FA4B6B84219ACB97445918","99c1f157-3b6e-4ab1-9ef0-950fec0935bc","23db58b9-63b0-4bce-8714-07ce439e665e","","null","<div style=""display: flex; justify-content: center; align-items: center;"">
                <img src=""images/causal/causal_series_9/causal_series_9_c.jpg"" style=""width: 300px; height: 300px;"" />
              </div>","null",""
"","","","","","html-keyboard-response","33","312265","0.0-23.0-0.0-2.0","2AF2189557FA4B6B84219ACB97445918","99c1f157-3b6e-4ab1-9ef0-950fec0935bc","23db58b9-63b0-4bce-8714-07ce439e665e","","null","<div style=""display: flex; justify-content: center; align-items: center;"">
                <img src=""images/causal/causal_series_9/causal_series_9_d.jpg"" style=""width: 300px; height: 300px;"" />
              </div>","null",""
"","","","","","html-keyboard-response","34","315271","0.0-24.0","2AF2189557FA4B6B84219ACB97445918","99c1f157-3b6e-4ab1-9ef0-950fec0935bc","23db58b9-63b0-4bce-8714-07ce439e665e","","null","<div style=""display: flex; justify-content: center; align-items: center;"">
                <img src=""images/other/blank.jpg"" style=""width: 300px; height: 300px;"" />
              </div>","null",""
"","","","","","html-keyboard-response","35","318277","0.0-25.0","2AF2189557FA4B6B84219ACB97445918","99c1f157-3b6e-4ab1-9ef0-950fec0935bc","23db58b9-63b0-4bce-8714-07ce439e665e","","null","<div style=""display: flex; justify-content: center; align-items: center;"">
                <img src=""images/causal/causal_series_6/causal_series_6_a.jpg"" style=""width: 300px; height: 300px;"" />
              </div>","null",""
"","","","","","html-button-response","36","326742","0.0-26.0","2AF2189557FA4B6B84219ACB97445918","99c1f157-3b6e-4ab1-9ef0-950fec0935bc","23db58b9-63b0-4bce-8714-07ce439e665e","","8464","
    <div style=""display: flex; justify-content: center; align-items: center;"">
      <img src=""images/red_deck_2.png"" style=""width: 300px; height: 300px; margin-right: 10px;"" />
      <img src=""images/blue_deck_1.png"" style=""width: 300px; height: 300px;"" />
    </div>","0","0"
"","","","","","html-keyboard-response","37","329753","0.0-27.0-0.0-0.0","2AF2189557FA4B6B84219ACB97445918","99c1f157-3b6e-4ab1-9ef0-950fec0935bc","23db58b9-63b0-4bce-8714-07ce439e665e","","null","<div style=""display: flex; justify-content: center; align-items: center;"">
                <img src=""images/causal/causal_series_6/causal_series_6_b.jpg"" style=""width: 300px; height: 300px;"" />
              </div>","null",""
"","","","","","html-keyboard-response","38","332758","0.0-27.0-0.0-1.0","2AF2189557FA4B6B84219ACB97445918","99c1f157-3b6e-4ab1-9ef0-950fec0935bc","23db58b9-63b0-4bce-8714-07ce439e665e","","null","<div style=""display: flex; justify-content: center; align-items: center;"">
                <img src=""images/causal/causal_series_6/causal_series_6_c.jpg"" style=""width: 300px; height: 300px;"" />
              </div>","null",""
"","","","","","html-keyboard-response","39","335767","0.0-27.0-0.0-2.0","2AF2189557FA4B6B84219ACB97445918","99c1f157-3b6e-4ab1-9ef0-950fec0935bc","23db58b9-63b0-4bce-8714-07ce439e665e","","null","<div style=""display: flex; justify-content: center; align-items: center;"">
                <img src=""images/causal/causal_series_6/causal_series_6_d.jpg"" style=""width: 300px; height: 300px;"" />
              </div>","null",""
"","","","","","html-keyboard-response","40","338783","0.0-28.0","2AF2189557FA4B6B84219ACB97445918","99c1f157-3b6e-4ab1-9ef0-950fec0935bc","23db58b9-63b0-4bce-8714-07ce439e665e","","null","<div style=""display: flex; justify-content: center; align-items: center;"">
                <img src=""images/other/blank.jpg"" style=""width: 300px; height: 300px;"" />
              </div>","null",""
"","","","","","html-keyboard-response","41","341785","0.0-29.0","2AF2189557FA4B6B84219ACB97445918","99c1f157-3b6e-4ab1-9ef0-950fec0935bc","23db58b9-63b0-4bce-8714-07ce439e665e","","null","<div style=""display: flex; justify-content: center; align-items: center;"">
                <img src=""images/causal/causal_series_4/causal_series_4_a.jpg"" style=""width: 300px; height: 300px;"" />
              </div>","null",""
"","","","","","html-button-response","42","347104","0.0-30.0","2AF2189557FA4B6B84219ACB97445918","99c1f157-3b6e-4ab1-9ef0-950fec0935bc","23db58b9-63b0-4bce-8714-07ce439e665e","","5317","
    <div style=""display: flex; justify-content: center; align-items: center;"">
      <img src=""images/red_deck_2.png"" style=""width: 300px; height: 300px; margin-right: 10px;"" />
      <img src=""images/blue_deck_1.png"" style=""width: 300px; height: 300px;"" />
    </div>","0","0"
"","","","","","html-keyboard-response","43","350116","0.0-31.0-0.0-0.0","2AF2189557FA4B6B84219ACB97445918","99c1f157-3b6e-4ab1-9ef0-950fec0935bc","23db58b9-63b0-4bce-8714-07ce439e665e","","null","<div style=""display: flex; justify-content: center; align-items: center;"">
                <img src=""images/causal/causal_series_4/causal_series_4_b.jpg"" style=""width: 300px; height: 300px;"" />
              </div>","null",""
"","","","","","html-keyboard-response","44","353129","0.0-31.0-0.0-1.0","2AF2189557FA4B6B84219ACB97445918","99c1f157-3b6e-4ab1-9ef0-950fec0935bc","23db58b9-63b0-4bce-8714-07ce439e665e","","null","<div style=""display: flex; justify-content: center; align-items: center;"">
                <img src=""images/causal/causal_series_4/causal_series_4_c.jpg"" style=""width: 300px; height: 300px;"" />
              </div>","null",""
"","","","","","html-keyboard-response","45","356143","0.0-31.0-0.0-2.0","2AF2189557FA4B6B84219ACB97445918","99c1f157-3b6e-4ab1-9ef0-950fec0935bc","23db58b9-63b0-4bce-8714-07ce439e665e","","null","<div style=""display: flex; justify-content: center; align-items: center;"">
                <img src=""images/causal/causal_series_4/causal_series_4_d.jpg"" style=""width: 300px; height: 300px;"" />
              </div>","null",""
"","","","","","html-keyboard-response","46","359146","0.0-32.0","2AF2189557FA4B6B84219ACB97445918","99c1f157-3b6e-4ab1-9ef0-950fec0935bc","23db58b9-63b0-4bce-8714-07ce439e665e","","null","<div style=""display: flex; justify-content: center; align-items: center;"">
                <img src=""images/other/blank.jpg"" style=""width: 300px; height: 300px;"" />
              </div>","null",""
"","","","","","html-keyboard-response","47","362159","0.0-33.0","2AF2189557FA4B6B84219ACB97445918","99c1f157-3b6e-4ab1-9ef0-950fec0935bc","23db58b9-63b0-4bce-8714-07ce439e665e","","null","<div style=""display: flex; justify-content: center; align-items: center;"">
                <img src=""images/causal/causal_series_17/causal_series_17_a.jpg"" style=""width: 300px; height: 300px;"" />
              </div>","null",""
"","","","","","html-button-response","48","367654","0.0-34.0","2AF2189557FA4B6B84219ACB97445918","99c1f157-3b6e-4ab1-9ef0-950fec0935bc","23db58b9-63b0-4bce-8714-07ce439e665e","","5492","
    <div style=""display: flex; justify-content: center; align-items: center;"">
      <img src=""images/red_deck_2.png"" style=""width: 300px; height: 300px; margin-right: 10px;"" />
      <img src=""images/blue_deck_1.png"" style=""width: 300px; height: 300px;"" />
    </div>","1","1"
"","","","","","html-keyboard-response","49","370664","0.0-35.0-1.0-0.0","2AF2189557FA4B6B84219ACB97445918","99c1f157-3b6e-4ab1-9ef0-950fec0935bc","23db58b9-63b0-4bce-8714-07ce439e665e","","null","<div style=""display: flex; justify-content: center; align-items: center;"">
                <img src=""images/semantic/semantic_series_12/semantic_series_12_d.jpg"" style=""width: 300px; height: 300px;"" />
              </div>","null",""
"","","","","","html-keyboard-response","50","373670","0.0-35.0-1.0-1.0","2AF2189557FA4B6B84219ACB97445918","99c1f157-3b6e-4ab1-9ef0-950fec0935bc","23db58b9-63b0-4bce-8714-07ce439e665e","","null","<div style=""display: flex; justify-content: center; align-items: center;"">
                <img src=""images/semantic/semantic_series_13/semantic_series_13_d.jpg"" style=""width: 300px; height: 300px;"" />
              </div>","null",""
"","","","","","html-keyboard-response","51","376683","0.0-35.0-1.0-2.0","2AF2189557FA4B6B84219ACB97445918","99c1f157-3b6e-4ab1-9ef0-950fec0935bc","23db58b9-63b0-4bce-8714-07ce439e665e","","null","<div style=""display: flex; justify-content: center; align-items: center;"">
                <img src=""images/semantic/semantic_series_14/semantic_series_14_d.jpg"" style=""width: 300px; height: 300px;"" />
              </div>","null",""
"","","","","","html-keyboard-response","52","379695","0.0-36.0","2AF2189557FA4B6B84219ACB97445918","99c1f157-3b6e-4ab1-9ef0-950fec0935bc","23db58b9-63b0-4bce-8714-07ce439e665e","","null","<div style=""display: flex; justify-content: center; align-items: center;"">
                <img src=""images/other/blank.jpg"" style=""width: 300px; height: 300px;"" />
              </div>","null",""
"","","","","","html-keyboard-response","53","382707","0.0-37.0","2AF2189557FA4B6B84219ACB97445918","99c1f157-3b6e-4ab1-9ef0-950fec0935bc","23db58b9-63b0-4bce-8714-07ce439e665e","","null","<div style=""display: flex; justify-content: center; align-items: center;"">
                <img src=""images/causal/causal_series_13/causal_series_13_a.jpg"" style=""width: 300px; height: 300px;"" />
              </div>","null",""
"","","","","","html-button-response","54","501081","0.0-38.0","2AF2189557FA4B6B84219ACB97445918","99c1f157-3b6e-4ab1-9ef0-950fec0935bc","23db58b9-63b0-4bce-8714-07ce439e665e","","118372","
    <div style=""display: flex; justify-content: center; align-items: center;"">
      <img src=""images/red_deck_2.png"" style=""width: 300px; height: 300px; margin-right: 10px;"" />
      <img src=""images/blue_deck_1.png"" style=""width: 300px; height: 300px;"" />
    </div>","0","0"
"","","","","","html-keyboard-response","55","504084","0.0-39.0-0.0-0.0","2AF2189557FA4B6B84219ACB97445918","99c1f157-3b6e-4ab1-9ef0-950fec0935bc","23db58b9-63b0-4bce-8714-07ce439e665e","","null","<div style=""display: flex; justify-content: center; align-items: center;"">
                <img src=""images/causal/causal_series_13/causal_series_13_b.jpg"" style=""width: 300px; height: 300px;"" />
              </div>","null",""
"","","","","","html-keyboard-response","56","507087","0.0-39.0-0.0-1.0","2AF2189557FA4B6B84219ACB97445918","99c1f157-3b6e-4ab1-9ef0-950fec0935bc","23db58b9-63b0-4bce-8714-07ce439e665e","","null","<div style=""display: flex; justify-content: center; align-items: center;"">
                <img src=""images/causal/causal_series_13/causal_series_13_c.jpg"" style=""width: 300px; height: 300px;"" />
              </div>","null",""
"","","","","","html-keyboard-response","57","510103","0.0-39.0-0.0-2.0","2AF2189557FA4B6B84219ACB97445918","99c1f157-3b6e-4ab1-9ef0-950fec0935bc","23db58b9-63b0-4bce-8714-07ce439e665e","","null","<div style=""display: flex; justify-content: center; align-items: center;"">
                <img src=""images/causal/causal_series_13/causal_series_13_d.jpg"" style=""width: 300px; height: 300px;"" />
              </div>","null",""
"","","","","","html-keyboard-response","58","513106","0.0-40.0","2AF2189557FA4B6B84219ACB97445918","99c1f157-3b6e-4ab1-9ef0-950fec0935bc","23db58b9-63b0-4bce-8714-07ce439e665e","","null","<div style=""display: flex; justify-content: center; align-items: center;"">
                <img src=""images/other/blank.jpg"" style=""width: 300px; height: 300px;"" />
              </div>","null",""
"","","","","","html-keyboard-response","59","516121","0.0-41.0","2AF2189557FA4B6B84219ACB97445918","99c1f157-3b6e-4ab1-9ef0-950fec0935bc","23db58b9-63b0-4bce-8714-07ce439e665e","","null","<div style=""display: flex; justify-content: center; align-items: center;"">
                <img src=""images/causal/causal_series_15/causal_series_15_a.jpg"" style=""width: 300px; height: 300px;"" />
              </div>","null",""
"","","","","","html-button-response","60","536819","0.0-42.0","2AF2189557FA4B6B84219ACB97445918","99c1f157-3b6e-4ab1-9ef0-950fec0935bc","23db58b9-63b0-4bce-8714-07ce439e665e","","20696","
    <div style=""display: flex; justify-content: center; align-items: center;"">
      <img src=""images/red_deck_2.png"" style=""width: 300px; height: 300px; margin-right: 10px;"" />
      <img src=""images/blue_deck_1.png"" style=""width: 300px; height: 300px;"" />
    </div>","0","0"
"","","","","","html-keyboard-response","61","539834","0.0-43.0-0.0-0.0","2AF2189557FA4B6B84219ACB97445918","99c1f157-3b6e-4ab1-9ef0-950fec0935bc","23db58b9-63b0-4bce-8714-07ce439e665e","","null","<div style=""display: flex; justify-content: center; align-items: center;"">
                <img src=""images/causal/causal_series_15/causal_series_15_b.jpg"" style=""width: 300px; height: 300px;"" />
              </div>","null",""
"","","","","","html-keyboard-response","62","542843","0.0-43.0-0.0-1.0","2AF2189557FA4B6B84219ACB97445918","99c1f157-3b6e-4ab1-9ef0-950fec0935bc","23db58b9-63b0-4bce-8714-07ce439e665e","","null","<div style=""display: flex; justify-content: center; align-items: center;"">
                <img src=""images/causal/causal_series_15/causal_series_15_c.jpg"" style=""width: 300px; height: 300px;"" />
              </div>","null",""
"","","","","","html-keyboard-response","63","545855","0.0-43.0-0.0-2.0","2AF2189557FA4B6B84219ACB97445918","99c1f157-3b6e-4ab1-9ef0-950fec0935bc","23db58b9-63b0-4bce-8714-07ce439e665e","","null","<div style=""display: flex; justify-content: center; align-items: center;"">
                <img src=""images/causal/causal_series_15/causal_series_15_d.jpg"" style=""width: 300px; height: 300px;"" />
              </div>","null",""
"","","","","","html-keyboard-response","64","548864","0.0-44.0","2AF2189557FA4B6B84219ACB97445918","99c1f157-3b6e-4ab1-9ef0-950fec0935bc","23db58b9-63b0-4bce-8714-07ce439e665e","","null","<div style=""display: flex; justify-content: center; align-items: center;"">
                <img src=""images/other/blank.jpg"" style=""width: 300px; height: 300px;"" />
              </div>","null",""
"","","","","","html-keyboard-response","65","551868","0.0-45.0","2AF2189557FA4B6B84219ACB97445918","99c1f157-3b6e-4ab1-9ef0-950fec0935bc","23db58b9-63b0-4bce-8714-07ce439e665e","","null","<div style=""display: flex; justify-content: center; align-items: center;"">
                <img src=""images/causal/causal_series_8/causal_series_8_a.jpg"" style=""width: 300px; height: 300px;"" />
              </div>","null",""
"","","","","","html-button-response","66","553475","0.0-46.0","2AF2189557FA4B6B84219ACB97445918","99c1f157-3b6e-4ab1-9ef0-950fec0935bc","23db58b9-63b0-4bce-8714-07ce439e665e","","1606","
    <div style=""display: flex; justify-content: center; align-items: center;"">
      <img src=""images/red_deck_2.png"" style=""width: 300px; height: 300px; margin-right: 10px;"" />
      <img src=""images/blue_deck_1.png"" style=""width: 300px; height: 300px;"" />
    </div>","0","0"
"","","","","","html-keyboard-response","67","556485","0.0-47.0-0.0-0.0","2AF2189557FA4B6B84219ACB97445918","99c1f157-3b6e-4ab1-9ef0-950fec0935bc","23db58b9-63b0-4bce-8714-07ce439e665e","","null","<div style=""display: flex; justify-content: center; align-items: center;"">
                <img src=""images/causal/causal_series_8/causal_series_8_b.jpg"" style=""width: 300px; height: 300px;"" />
              </div>","null",""
"","","","","","html-keyboard-response","68","559491","0.0-47.0-0.0-1.0","2AF2189557FA4B6B84219ACB97445918","99c1f157-3b6e-4ab1-9ef0-950fec0935bc","23db58b9-63b0-4bce-8714-07ce439e665e","","null","<div style=""display: flex; justify-content: center; align-items: center;"">
                <img src=""images/causal/causal_series_8/causal_series_8_c.jpg"" style=""width: 300px; height: 300px;"" />
              </div>","null",""
"","","","","","html-keyboard-response","69","562492","0.0-47.0-0.0-2.0","2AF2189557FA4B6B84219ACB97445918","99c1f157-3b6e-4ab1-9ef0-950fec0935bc","23db58b9-63b0-4bce-8714-07ce439e665e","","null","<div style=""display: flex; justify-content: center; align-items: center;"">
                <img src=""images/causal/causal_series_8/causal_series_8_d.jpg"" style=""width: 300px; height: 300px;"" />
              </div>","null",""
"","","","","","html-keyboard-response","70","565497","0.0-48.0","2AF2189557FA4B6B84219ACB97445918","99c1f157-3b6e-4ab1-9ef0-950fec0935bc","23db58b9-63b0-4bce-8714-07ce439e665e","","null","<div style=""display: flex; justify-content: center; align-items: center;"">
                <img src=""images/other/blank.jpg"" style=""width: 300px; height: 300px;"" />
              </div>","null",""
"","","","","","html-keyboard-response","71","568512","0.0-49.0","2AF2189557FA4B6B84219ACB97445918","99c1f157-3b6e-4ab1-9ef0-950fec0935bc","23db58b9-63b0-4bce-8714-07ce439e665e","","null","<div style=""display: flex; justify-content: center; align-items: center;"">
                <img src=""images/causal/causal_series_3/causal_series_3_a.jpg"" style=""width: 300px; height: 300px;"" />
              </div>","null",""
"","","","","","html-button-response","72","584609","0.0-50.0","2AF2189557FA4B6B84219ACB97445918","99c1f157-3b6e-4ab1-9ef0-950fec0935bc","23db58b9-63b0-4bce-8714-07ce439e665e","","16095","
    <div style=""display: flex; justify-content: center; align-items: center;"">
      <img src=""images/red_deck_2.png"" style=""width: 300px; height: 300px; margin-right: 10px;"" />
      <img src=""images/blue_deck_1.png"" style=""width: 300px; height: 300px;"" />
    </div>","0","0"
"","","","","","html-keyboard-response","73","587611","0.0-51.0-0.0-0.0","2AF2189557FA4B6B84219ACB97445918","99c1f157-3b6e-4ab1-9ef0-950fec0935bc","23db58b9-63b0-4bce-8714-07ce439e665e","","null","<div style=""display: flex; justify-content: center; align-items: center;"">
                <img src=""images/causal/causal_series_3/causal_series_3_b.jpg"" style=""width: 300px; height: 300px;"" />
              </div>","null",""
"","","","","","html-keyboard-response","74","590613","0.0-51.0-0.0-1.0","2AF2189557FA4B6B84219ACB97445918","99c1f157-3b6e-4ab1-9ef0-950fec0935bc","23db58b9-63b0-4bce-8714-07ce439e665e","","null","<div style=""display: flex; justify-content: center; align-items: center;"">
                <img src=""images/causal/causal_series_3/causal_series_3_c.jpg"" style=""width: 300px; height: 300px;"" />
              </div>","null",""
"","","","","","html-keyboard-response","75","593623","0.0-51.0-0.0-2.0","2AF2189557FA4B6B84219ACB97445918","99c1f157-3b6e-4ab1-9ef0-950fec0935bc","23db58b9-63b0-4bce-8714-07ce439e665e","","null","<div style=""display: flex; justify-content: center; align-items: center;"">
                <img src=""images/causal/causal_series_3/causal_series_3_d.jpg"" style=""width: 300px; height: 300px;"" />
              </div>","null",""
"","","","","","html-keyboard-response","76","596637","0.0-52.0","2AF2189557FA4B6B84219ACB97445918","99c1f157-3b6e-4ab1-9ef0-950fec0935bc","23db58b9-63b0-4bce-8714-07ce439e665e","","null","<div style=""display: flex; justify-content: center; align-items: center;"">
                <img src=""images/other/blank.jpg"" style=""width: 300px; height: 300px;"" />
              </div>","null",""
"","","","","","html-keyboard-response","77","599652","0.0-53.0","2AF2189557FA4B6B84219ACB97445918","99c1f157-3b6e-4ab1-9ef0-950fec0935bc","23db58b9-63b0-4bce-8714-07ce439e665e","","null","<div style=""display: flex; justify-content: center; align-items: center;"">
                <img src=""images/causal/causal_series_1/causal_series_1_a.jpg"" style=""width: 300px; height: 300px;"" />
              </div>","null",""
"","","","","","html-button-response","78","610403","0.0-54.0","2AF2189557FA4B6B84219ACB97445918","99c1f157-3b6e-4ab1-9ef0-950fec0935bc","23db58b9-63b0-4bce-8714-07ce439e665e","","10749","
    <div style=""display: flex; justify-content: center; align-items: center;"">
      <img src=""images/red_deck_2.png"" style=""width: 300px; height: 300px; margin-right: 10px;"" />
      <img src=""images/blue_deck_1.png"" style=""width: 300px; height: 300px;"" />
    </div>","0","0"
"","","","","","html-keyboard-response","79","613419","0.0-55.0-0.0-0.0","2AF2189557FA4B6B84219ACB97445918","99c1f157-3b6e-4ab1-9ef0-950fec0935bc","23db58b9-63b0-4bce-8714-07ce439e665e","","null","<div style=""display: flex; justify-content: center; align-items: center;"">
                <img src=""images/causal/causal_series_1/causal_series_1_b.jpg"" style=""width: 300px; height: 300px;"" />
              </div>","null",""
"","","","","","html-keyboard-response","80","616425","0.0-55.0-0.0-1.0","2AF2189557FA4B6B84219ACB97445918","99c1f157-3b6e-4ab1-9ef0-950fec0935bc","23db58b9-63b0-4bce-8714-07ce439e665e","","null","<div style=""display: flex; justify-content: center; align-items: center;"">
                <img src=""images/causal/causal_series_1/causal_series_1_c.jpg"" style=""width: 300px; height: 300px;"" />
              </div>","null",""
"","","","","","html-keyboard-response","81","619437","0.0-55.0-0.0-2.0","2AF2189557FA4B6B84219ACB97445918","99c1f157-3b6e-4ab1-9ef0-950fec0935bc","23db58b9-63b0-4bce-8714-07ce439e665e","","null","<div style=""display: flex; justify-content: center; align-items: center;"">
                <img src=""images/causal/causal_series_1/causal_series_1_d.jpg"" style=""width: 300px; height: 300px;"" />
              </div>","null",""
"","","","","","html-keyboard-response","82","622446","0.0-56.0","2AF2189557FA4B6B84219ACB97445918","99c1f157-3b6e-4ab1-9ef0-950fec0935bc","23db58b9-63b0-4bce-8714-07ce439e665e","","null","<div style=""display: flex; justify-content: center; align-items: center;"">
                <img src=""images/other/blank.jpg"" style=""width: 300px; height: 300px;"" />
              </div>","null",""
"","","","","","html-keyboard-response","83","625458","0.0-57.0","2AF2189557FA4B6B84219ACB97445918","99c1f157-3b6e-4ab1-9ef0-950fec0935bc","23db58b9-63b0-4bce-8714-07ce439e665e","","null","<div style=""display: flex; justify-content: center; align-items: center;"">
                <img src=""images/causal/causal_series_7/causal_series_7_a.jpg"" style=""width: 300px; height: 300px;"" />
              </div>","null",""
"","","","","","html-button-response","84","664483","0.0-58.0","2AF2189557FA4B6B84219ACB97445918","99c1f157-3b6e-4ab1-9ef0-950fec0935bc","23db58b9-63b0-4bce-8714-07ce439e665e","","39025","
    <div style=""display: flex; justify-content: center; align-items: center;"">
      <img src=""images/red_deck_2.png"" style=""width: 300px; height: 300px; margin-right: 10px;"" />
      <img src=""images/blue_deck_1.png"" style=""width: 300px; height: 300px;"" />
    </div>","0","0"
"","","","","","html-keyboard-response","85","667494","0.0-59.0-0.0-0.0","2AF2189557FA4B6B84219ACB97445918","99c1f157-3b6e-4ab1-9ef0-950fec0935bc","23db58b9-63b0-4bce-8714-07ce439e665e","","null","<div style=""display: flex; justify-content: center; align-items: center;"">
                <img src=""images/causal/causal_series_7/causal_series_7_b.jpg"" style=""width: 300px; height: 300px;"" />
              </div>","null",""
"","","","","","html-keyboard-response","86","670508","0.0-59.0-0.0-1.0","2AF2189557FA4B6B84219ACB97445918","99c1f157-3b6e-4ab1-9ef0-950fec0935bc","23db58b9-63b0-4bce-8714-07ce439e665e","","null","<div style=""display: flex; justify-content: center; align-items: center;"">
                <img src=""images/causal/causal_series_7/causal_series_7_c.jpg"" style=""width: 300px; height: 300px;"" />
              </div>","null",""
"","","","","","html-keyboard-response","87","673515","0.0-59.0-0.0-2.0","2AF2189557FA4B6B84219ACB97445918","99c1f157-3b6e-4ab1-9ef0-950fec0935bc","23db58b9-63b0-4bce-8714-07ce439e665e","","null","<div style=""display: flex; justify-content: center; align-items: center;"">
                <img src=""images/causal/causal_series_7/causal_series_7_d.jpg"" style=""width: 300px; height: 300px;"" />
              </div>","null",""
"","","","","","html-keyboard-response","88","676529","0.0-60.0","2AF2189557FA4B6B84219ACB97445918","99c1f157-3b6e-4ab1-9ef0-950fec0935bc","23db58b9-63b0-4bce-8714-07ce439e665e","","null","<div style=""display: flex; justify-content: center; align-items: center;"">
                <img src=""images/other/blank.jpg"" style=""width: 300px; height: 300px;"" />
              </div>","null",""
"","","","","","html-keyboard-response","89","679531","0.0-61.0","2AF2189557FA4B6B84219ACB97445918","99c1f157-3b6e-4ab1-9ef0-950fec0935bc","23db58b9-63b0-4bce-8714-07ce439e665e","","null","<div style=""display: flex; justify-content: center; align-items: center;"">
                <img src=""images/causal/causal_series_12/causal_series_12_a.jpg"" style=""width: 300px; height: 300px;"" />
              </div>","null",""
"","","","","","html-button-response","90","707663","0.0-62.0","2AF2189557FA4B6B84219ACB97445918","99c1f157-3b6e-4ab1-9ef0-950fec0935bc","23db58b9-63b0-4bce-8714-07ce439e665e","","28131","
    <div style=""display: flex; justify-content: center; align-items: center;"">
      <img src=""images/red_deck_2.png"" style=""width: 300px; height: 300px; margin-right: 10px;"" />
      <img src=""images/blue_deck_1.png"" style=""width: 300px; height: 300px;"" />
    </div>","0","0"
"","","","","","html-keyboard-response","91","710672","0.0-63.0-0.0-0.0","2AF2189557FA4B6B84219ACB97445918","99c1f157-3b6e-4ab1-9ef0-950fec0935bc","23db58b9-63b0-4bce-8714-07ce439e665e","","null","<div style=""display: flex; justify-content: center; align-items: center;"">
                <img src=""images/causal/causal_series_12/causal_series_12_b.jpg"" style=""width: 300px; height: 300px;"" />
              </div>","null",""
"","","","","","html-keyboard-response","92","713685","0.0-63.0-0.0-1.0","2AF2189557FA4B6B84219ACB97445918","99c1f157-3b6e-4ab1-9ef0-950fec0935bc","23db58b9-63b0-4bce-8714-07ce439e665e","","null","<div style=""display: flex; justify-content: center; align-items: center;"">
                <img src=""images/causal/causal_series_12/causal_series_12_c.jpg"" style=""width: 300px; height: 300px;"" />
              </div>","null",""
"","","","","","html-keyboard-response","93","716694","0.0-63.0-0.0-2.0","2AF2189557FA4B6B84219ACB97445918","99c1f157-3b6e-4ab1-9ef0-950fec0935bc","23db58b9-63b0-4bce-8714-07ce439e665e","","null","<div style=""display: flex; justify-content: center; align-items: center;"">
                <img src=""images/causal/causal_series_12/causal_series_12_d.jpg"" style=""width: 300px; height: 300px;"" />
              </div>","null",""
"","","","","","html-keyboard-response","94","719703","0.0-64.0","2AF2189557FA4B6B84219ACB97445918","99c1f157-3b6e-4ab1-9ef0-950fec0935bc","23db58b9-63b0-4bce-8714-07ce439e665e","","null","<div style=""display: flex; justify-content: center; align-items: center;"">
                <img src=""images/other/blank.jpg"" style=""width: 300px; height: 300px;"" />
              </div>","null",""
"","","","","","html-keyboard-response","95","722708","0.0-65.0","2AF2189557FA4B6B84219ACB97445918","99c1f157-3b6e-4ab1-9ef0-950fec0935bc","23db58b9-63b0-4bce-8714-07ce439e665e","","null","<div style=""display: flex; justify-content: center; align-items: center;"">
                <img src=""images/causal/causal_series_5/causal_series_5_a.jpg"" style=""width: 300px; height: 300px;"" />
              </div>","null",""
"","","","","","html-button-response","96","767733","0.0-66.0","2AF2189557FA4B6B84219ACB97445918","99c1f157-3b6e-4ab1-9ef0-950fec0935bc","23db58b9-63b0-4bce-8714-07ce439e665e","","45023","
    <div style=""display: flex; justify-content: center; align-items: center;"">
      <img src=""images/red_deck_2.png"" style=""width: 300px; height: 300px; margin-right: 10px;"" />
      <img src=""images/blue_deck_1.png"" style=""width: 300px; height: 300px;"" />
    </div>","0","0"
"","","","","","html-keyboard-response","97","770739","0.0-67.0-0.0-0.0","2AF2189557FA4B6B84219ACB97445918","99c1f157-3b6e-4ab1-9ef0-950fec0935bc","23db58b9-63b0-4bce-8714-07ce439e665e","","null","<div style=""display: flex; justify-content: center; align-items: center;"">
                <img src=""images/causal/causal_series_5/causal_series_5_b.jpg"" style=""width: 300px; height: 300px;"" />
              </div>","null",""
"","","","","","html-keyboard-response","98","773750","0.0-67.0-0.0-1.0","2AF2189557FA4B6B84219ACB97445918","99c1f157-3b6e-4ab1-9ef0-950fec0935bc","23db58b9-63b0-4bce-8714-07ce439e665e","","null","<div style=""display: flex; justify-content: center; align-items: center;"">
                <img src=""images/causal/causal_series_5/causal_series_5_c.jpg"" style=""width: 300px; height: 300px;"" />
              </div>","null",""
"","","","","","html-keyboard-response","99","776764","0.0-67.0-0.0-2.0","2AF2189557FA4B6B84219ACB97445918","99c1f157-3b6e-4ab1-9ef0-950fec0935bc","23db58b9-63b0-4bce-8714-07ce439e665e","","null","<div style=""display: flex; justify-content: center; align-items: center;"">
                <img src=""images/causal/causal_series_5/causal_series_5_d.jpg"" style=""width: 300px; height: 300px;"" />
              </div>","null",""
"","","","","","html-keyboard-response","100","779775","0.0-68.0","2AF2189557FA4B6B84219ACB97445918","99c1f157-3b6e-4ab1-9ef0-950fec0935bc","23db58b9-63b0-4bce-8714-07ce439e665e","","null","<div style=""display: flex; justify-content: center; align-items: center;"">
                <img src=""images/other/blank.jpg"" style=""width: 300px; height: 300px;"" />
              </div>","null",""
"","","","","","html-keyboard-response","101","782785","0.0-69.0","2AF2189557FA4B6B84219ACB97445918","99c1f157-3b6e-4ab1-9ef0-950fec0935bc","23db58b9-63b0-4bce-8714-07ce439e665e","","null","<div style=""display: flex; justify-content: center; align-items: center;"">
                <img src=""images/causal/causal_series_16/causal_series_16_a.jpg"" style=""width: 300px; height: 300px;"" />
              </div>","null",""
"","","","","","html-button-response","102","788109","0.0-70.0","2AF2189557FA4B6B84219ACB97445918","99c1f157-3b6e-4ab1-9ef0-950fec0935bc","23db58b9-63b0-4bce-8714-07ce439e665e","","5323","
    <div style=""display: flex; justify-content: center; align-items: center;"">
      <img src=""images/red_deck_2.png"" style=""width: 300px; height: 300px; margin-right: 10px;"" />
      <img src=""images/blue_deck_1.png"" style=""width: 300px; height: 300px;"" />
    </div>","0","0"
"","","","","","html-keyboard-response","103","791118","0.0-71.0-0.0-0.0","2AF2189557FA4B6B84219ACB97445918","99c1f157-3b6e-4ab1-9ef0-950fec0935bc","23db58b9-63b0-4bce-8714-07ce439e665e","","null","<div style=""display: flex; justify-content: center; align-items: center;"">
                <img src=""images/causal/causal_series_16/causal_series_16_b.jpg"" style=""width: 300px; height: 300px;"" />
              </div>","null",""
"","","","","","html-keyboard-response","104","794134","0.0-71.0-0.0-1.0","2AF2189557FA4B6B84219ACB97445918","99c1f157-3b6e-4ab1-9ef0-950fec0935bc","23db58b9-63b0-4bce-8714-07ce439e665e","","null","<div style=""display: flex; justify-content: center; align-items: center;"">
                <img src=""images/causal/causal_series_16/causal_series_16_c.jpg"" style=""width: 300px; height: 300px;"" />
              </div>","null",""
"","","","","","html-keyboard-response","105","797150","0.0-71.0-0.0-2.0","2AF2189557FA4B6B84219ACB97445918","99c1f157-3b6e-4ab1-9ef0-950fec0935bc","23db58b9-63b0-4bce-8714-07ce439e665e","","null","<div style=""display: flex; justify-content: center; align-items: center;"">
                <img src=""images/causal/causal_series_16/causal_series_16_d.jpg"" style=""width: 300px; height: 300px;"" />
              </div>","null",""
"","","","","","html-keyboard-response","106","800157","0.0-72.0","2AF2189557FA4B6B84219ACB97445918","99c1f157-3b6e-4ab1-9ef0-950fec0935bc","23db58b9-63b0-4bce-8714-07ce439e665e","","null","<div style=""display: flex; justify-content: center; align-items: center;"">
                <img src=""images/other/blank.jpg"" style=""width: 300px; height: 300px;"" />
              </div>","null",""
"","","","","","html-keyboard-response","107","803172","0.0-73.0","2AF2189557FA4B6B84219ACB97445918","99c1f157-3b6e-4ab1-9ef0-950fec0935bc","23db58b9-63b0-4bce-8714-07ce439e665e","","null","<div style=""display: flex; justify-content: center; align-items: center;"">
                <img src=""images/causal/causal_series_11/causal_series_11_a.jpg"" style=""width: 300px; height: 300px;"" />
              </div>","null",""
"","","","","","html-button-response","108","825697","0.0-74.0","2AF2189557FA4B6B84219ACB97445918","99c1f157-3b6e-4ab1-9ef0-950fec0935bc","23db58b9-63b0-4bce-8714-07ce439e665e","","22525","
    <div style=""display: flex; justify-content: center; align-items: center;"">
      <img src=""images/red_deck_2.png"" style=""width: 300px; height: 300px; margin-right: 10px;"" />
      <img src=""images/blue_deck_1.png"" style=""width: 300px; height: 300px;"" />
    </div>","0","0"
"","","","","","html-keyboard-response","109","828713","0.0-75.0-0.0-0.0","2AF2189557FA4B6B84219ACB97445918","99c1f157-3b6e-4ab1-9ef0-950fec0935bc","23db58b9-63b0-4bce-8714-07ce439e665e","","null","<div style=""display: flex; justify-content: center; align-items: center;"">
                <img src=""images/causal/causal_series_11/causal_series_11_b.jpg"" style=""width: 300px; height: 300px;"" />
              </div>","null",""
"","","","","","html-keyboard-response","110","831715","0.0-75.0-0.0-1.0","2AF2189557FA4B6B84219ACB97445918","99c1f157-3b6e-4ab1-9ef0-950fec0935bc","23db58b9-63b0-4bce-8714-07ce439e665e","","null","<div style=""display: flex; justify-content: center; align-items: center;"">
                <img src=""images/causal/causal_series_11/causal_series_11_c.jpg"" style=""width: 300px; height: 300px;"" />
              </div>","null",""
"","","","","","html-keyboard-response","111","834730","0.0-75.0-0.0-2.0","2AF2189557FA4B6B84219ACB97445918","99c1f157-3b6e-4ab1-9ef0-950fec0935bc","23db58b9-63b0-4bce-8714-07ce439e665e","","null","<div style=""display: flex; justify-content: center; align-items: center;"">
                <img src=""images/causal/causal_series_11/causal_series_11_d.jpg"" style=""width: 300px; height: 300px;"" />
              </div>","null",""
"","","","","","html-keyboard-response","112","837742","0.0-76.0","2AF2189557FA4B6B84219ACB97445918","99c1f157-3b6e-4ab1-9ef0-950fec0935bc","23db58b9-63b0-4bce-8714-07ce439e665e","","null","<div style=""display: flex; justify-content: center; align-items: center;"">
                <img src=""images/other/blank.jpg"" style=""width: 300px; height: 300px;"" />
              </div>","null",""
"","","","","","survey-text","113","881649","0.0-77.0","2AF2189557FA4B6B84219ACB97445918","99c1f157-3b6e-4ab1-9ef0-950fec0935bc","23db58b9-63b0-4bce-8714-07ce439e665e","","43895","","{""Q0"":""""}",""
"","","","","","survey-text","114","897230","0.0-78.0","2AF2189557FA4B6B84219ACB97445918","99c1f157-3b6e-4ab1-9ef0-950fec0935bc","23db58b9-63b0-4bce-8714-07ce439e665e","","15576","","{""Q0"":""Deck 1""}",""
"","","","","","html-button-response","115","924732","0.0-79.0","2AF2189557FA4B6B84219ACB97445918","99c1f157-3b6e-4ab1-9ef0-950fec0935bc","23db58b9-63b0-4bce-8714-07ce439e665e","","27501","Which color deck does the fourth image continue the story from the series?","0",""
"","","","","","html-button-response","116","928459","0.0-80.0","2AF2189557FA4B6B84219ACB97445918","99c1f157-3b6e-4ab1-9ef0-950fec0935bc","23db58b9-63b0-4bce-8714-07ce439e665e","","3726","Which color deck does the fourth image not follow the story from the series?","1",""
"","","","","","survey-text","117","936337","0.0-81.0","2AF2189557FA4B6B84219ACB97445918","99c1f157-3b6e-4ab1-9ef0-950fec0935bc","23db58b9-63b0-4bce-8714-07ce439e665e","","7872","","{""Q0"":""male"",""Q1"":""28""}",""
"","","","","","instructions","118","940295","0.0-82.0","2AF2189557FA4B6B84219ACB97445918","99c1f157-3b6e-4ab1-9ef0-950fec0935bc","23db58b9-63b0-4bce-8714-07ce439e665e","[{""page_index"":0,""viewing_time"":3958}]","3958","","",""
