"success","timeout","failed_images","failed_audio","failed_video","trial_type","trial_index","time_elapsed","internal_node_id","subject_id","study_id","session_id","offered_color","wait_time","view_history","rt","stimulus","response","phase","decision"
"true","false","[]","[]","[]","preload","0","2307","0.0-0.0","AE5BB3054A9A46FABF7249C579A08B44","019a71b8-5fa0-752e-a863-8ac456136a67","019a719d-eb47-7867-b440-fd981f2acb8b","red","12000","","","","","",""
"","","","","","instructions","1","13370","0.0-1.0","AE5BB3054A9A46FABF7249C579A08B44","019a71b8-5fa0-752e-a863-8ac456136a67","019a719d-eb47-7867-b440-fd981f2acb8b","red","12000","[{""page_index"":0,""viewing_time"":11062}]","11063","","","",""
"","","","","","instructions","2","17726","0.0-2.0","AE5BB3054A9A46FABF7249C579A08B44","019a71b8-5fa0-752e-a863-8ac456136a67","019a719d-eb47-7867-b440-fd981f2acb8b","red","12000","[{""page_index"":0,""viewing_time"":4355}]","4355","","","",""
"true","","","","","fullscreen","3","136272","0.0-3.0","AE5BB3054A9A46FABF7249C579A08B44","019a71b8-5fa0-752e-a863-8ac456136a67","019a719d-eb47-7867-b440-fd981f2acb8b","red","12000","","117542","","","",""
"","","","","","instructions","4","142855","0.0-4.0","AE5BB3054A9A46FABF7249C579A08B44","019a71b8-5fa0-752e-a863-8ac456136a67","019a719d-eb47-7867-b440-fd981f2acb8b","red","12000","[{""page_index"":0,""viewing_time"":6581}]","6582","","","",""
"","","","","","instructions","5","212291","0.0-5.0","AE5BB3054A9A46FABF7249C579A08B44","019a71b8-5fa0-752e-a863-8ac456136a67","019a719d-eb47-7867-b440-fd981f2acb8b","red","12000","[{""page_index"":0,""viewing_time"":69435}]","69436","","","",""
"","","","","","html-keyboard-response","6","218294","0.0-6.0-0.0-0.0","AE5BB3054A9A46FABF7249C579A08B44","019a71b8-5fa0-752e-a863-8ac456136a67","019a719d-eb47-7867-b440-fd981f2acb8b","red","12000","","null","<div style=""display:flex;justify-content:center;align-items:center;"">
                     <img src=""images/causal/causal_series_6/causal_series_6_a.png"" style=""width:300px;height:300px;"">
                   </div>","null","start",""
"","","","","","html-button-response","7","229332","0.0-6.0-0.0-1.0","AE5BB3054A9A46FABF7249C579A08B44","019a71b8-5fa0-752e-a863-8ac456136a67","019a719d-eb47-7867-b440-fd981f2acb8b","red","12000","","11032","<p style=""font-size:22px;"">The next series offered is 
                        <span style=""color:blue; font-weight:bold;"">BLUE</span>.</p>
                      <p>The blue series shows a sequence of events with a cause-and-effect relationship.</p>
                      <p>If you choose to view, you will need to wait <b>6 seconds</b> before seeing the next images.</p>
                      <p>Would you like to view or skip?</p>","0","offer_choice","view"
"","","","","","html-keyboard-response","8","235336","0.0-6.0-0.0-2.0-0.0","AE5BB3054A9A46FABF7249C579A08B44","019a71b8-5fa0-752e-a863-8ac456136a67","019a719d-eb47-7867-b440-fd981f2acb8b","red","12000","","null","<p style=""font-size:22px;"">Please wait <b>6</b> seconds...</p>","null","waiting_screen",""
"","","","","","html-keyboard-response","9","241340","0.0-6.0-1.0-0.0","AE5BB3054A9A46FABF7249C579A08B44","019a71b8-5fa0-752e-a863-8ac456136a67","019a719d-eb47-7867-b440-fd981f2acb8b","red","12000","","null","<div style=""display:flex;justify-content:center;align-items:center;"">
                     <img src=""images/causal/causal_series_9/causal_series_9_a.png"" style=""width:300px;height:300px;"">
                   </div>","null","start",""
"","","","","","html-button-response","10","246854","0.0-6.0-1.0-1.0","AE5BB3054A9A46FABF7249C579A08B44","019a71b8-5fa0-752e-a863-8ac456136a67","019a719d-eb47-7867-b440-fd981f2acb8b","red","12000","","5512","<p style=""font-size:22px;"">The next series offered is 
                        <span style=""color:blue; font-weight:bold;"">BLUE</span>.</p>
                      <p>The blue series shows a sequence of events with a cause-and-effect relationship.</p>
                      <p>If you choose to view, you will need to wait <b>12 seconds</b> before seeing the next images.</p>
                      <p>Would you like to view or skip?</p>","1","offer_choice","skip"
"","","","","","html-keyboard-response","11","248856","0.0-6.0-1.0-5.0-0.0","AE5BB3054A9A46FABF7249C579A08B44","019a71b8-5fa0-752e-a863-8ac456136a67","019a719d-eb47-7867-b440-fd981f2acb8b","red","12000","","null","<p style=""font-size:22px;"">Skipping to the next round...</p>","null","skip_screen",""
"","","","","","html-keyboard-response","12","254859","0.0-6.0-2.0-0.0","AE5BB3054A9A46FABF7249C579A08B44","019a71b8-5fa0-752e-a863-8ac456136a67","019a719d-eb47-7867-b440-fd981f2acb8b","red","12000","","null","<div style=""display:flex;justify-content:center;align-items:center;"">
                     <img src=""images/causal/causal_series_1/causal_series_1_a.png"" style=""width:300px;height:300px;"">
                   </div>","null","start",""
"","","","","","html-button-response","13","257822","0.0-6.0-2.0-1.0","AE5BB3054A9A46FABF7249C579A08B44","019a71b8-5fa0-752e-a863-8ac456136a67","019a719d-eb47-7867-b440-fd981f2acb8b","red","12000","","2962","<p style=""font-size:22px;"">The next series offered is 
                        <span style=""color:blue; font-weight:bold;"">BLUE</span>.</p>
                      <p>The blue series shows a sequence of events with a cause-and-effect relationship.</p>
                      <p>If you choose to view, you will need to wait <b>6 seconds</b> before seeing the next images.</p>
                      <p>Would you like to view or skip?</p>","1","offer_choice","skip"
"","","","","","html-keyboard-response","14","259824","0.0-6.0-2.0-5.0-0.0","AE5BB3054A9A46FABF7249C579A08B44","019a71b8-5fa0-752e-a863-8ac456136a67","019a719d-eb47-7867-b440-fd981f2acb8b","red","12000","","null","<p style=""font-size:22px;"">Skipping to the next round...</p>","null","skip_screen",""
"","","","","","html-keyboard-response","15","265828","0.0-6.0-3.0-0.0","AE5BB3054A9A46FABF7249C579A08B44","019a71b8-5fa0-752e-a863-8ac456136a67","019a719d-eb47-7867-b440-fd981f2acb8b","red","12000","","null","<div style=""display:flex;justify-content:center;align-items:center;"">
                     <img src=""images/causal/causal_series_5/causal_series_5_a.png"" style=""width:300px;height:300px;"">
                   </div>","null","start",""
"","","","","","html-button-response","16","267375","0.0-6.0-3.0-1.0","AE5BB3054A9A46FABF7249C579A08B44","019a71b8-5fa0-752e-a863-8ac456136a67","019a719d-eb47-7867-b440-fd981f2acb8b","red","12000","","1545","<p style=""font-size:22px;"">The next series offered is 
                        <span style=""color:red; font-weight:bold;"">RED</span>.</p>
                      <p>The red series shows a sequence of unrelated events with no causal link.</p>
                      <p>If you choose to view, you will need to wait <b>12 seconds</b> before seeing the next images.</p>
                      <p>Would you like to view or skip?</p>","1","offer_choice","skip"
"","","","","","html-keyboard-response","17","269377","0.0-6.0-3.0-5.0-0.0","AE5BB3054A9A46FABF7249C579A08B44","019a71b8-5fa0-752e-a863-8ac456136a67","019a719d-eb47-7867-b440-fd981f2acb8b","red","12000","","null","<p style=""font-size:22px;"">Skipping to the next round...</p>","null","skip_screen",""
"","","","","","html-keyboard-response","18","275380","0.0-6.0-4.0-0.0","AE5BB3054A9A46FABF7249C579A08B44","019a71b8-5fa0-752e-a863-8ac456136a67","019a719d-eb47-7867-b440-fd981f2acb8b","red","12000","","null","<div style=""display:flex;justify-content:center;align-items:center;"">
                     <img src=""images/causal/causal_series_2/causal_series_2_a.png"" style=""width:300px;height:300px;"">
                   </div>","null","start",""
"","","","","","html-button-response","19","278378","0.0-6.0-4.0-1.0","AE5BB3054A9A46FABF7249C579A08B44","019a71b8-5fa0-752e-a863-8ac456136a67","019a719d-eb47-7867-b440-fd981f2acb8b","red","12000","","2996","<p style=""font-size:22px;"">The next series offered is 
                        <span style=""color:blue; font-weight:bold;"">BLUE</span>.</p>
                      <p>The blue series shows a sequence of events with a cause-and-effect relationship.</p>
                      <p>If you choose to view, you will need to wait <b>6 seconds</b> before seeing the next images.</p>
                      <p>Would you like to view or skip?</p>","1","offer_choice","skip"
"","","","","","html-keyboard-response","20","280379","0.0-6.0-4.0-5.0-0.0","AE5BB3054A9A46FABF7249C579A08B44","019a71b8-5fa0-752e-a863-8ac456136a67","019a719d-eb47-7867-b440-fd981f2acb8b","red","12000","","null","<p style=""font-size:22px;"">Skipping to the next round...</p>","null","skip_screen",""
"","","","","","html-keyboard-response","21","286383","0.0-6.0-5.0-0.0","AE5BB3054A9A46FABF7249C579A08B44","019a71b8-5fa0-752e-a863-8ac456136a67","019a719d-eb47-7867-b440-fd981f2acb8b","red","12000","","null","<div style=""display:flex;justify-content:center;align-items:center;"">
                     <img src=""images/causal/causal_series_7/causal_series_7_a.png"" style=""width:300px;height:300px;"">
                   </div>","null","start",""
"","","","","","html-button-response","22","289513","0.0-6.0-5.0-1.0","AE5BB3054A9A46FABF7249C579A08B44","019a71b8-5fa0-752e-a863-8ac456136a67","019a719d-eb47-7867-b440-fd981f2acb8b","red","12000","","3129","<p style=""font-size:22px;"">The next series offered is 
                        <span style=""color:red; font-weight:bold;"">RED</span>.</p>
                      <p>The red series shows a sequence of unrelated events with no causal link.</p>
                      <p>If you choose to view, you will need to wait <b>6 seconds</b> before seeing the next images.</p>
                      <p>Would you like to view or skip?</p>","1","offer_choice","skip"
"","","","","","html-keyboard-response","23","291515","0.0-6.0-5.0-5.0-0.0","AE5BB3054A9A46FABF7249C579A08B44","019a71b8-5fa0-752e-a863-8ac456136a67","019a719d-eb47-7867-b440-fd981f2acb8b","red","12000","","null","<p style=""font-size:22px;"">Skipping to the next round...</p>","null","skip_screen",""
"","","","","","html-keyboard-response","24","297517","0.0-6.0-6.0-0.0","AE5BB3054A9A46FABF7249C579A08B44","019a71b8-5fa0-752e-a863-8ac456136a67","019a719d-eb47-7867-b440-fd981f2acb8b","red","12000","","null","<div style=""display:flex;justify-content:center;align-items:center;"">
                     <img src=""images/causal/causal_series_4/causal_series_4_a.png"" style=""width:300px;height:300px;"">
                   </div>","null","start",""
"","","","","","html-button-response","25","299009","0.0-6.0-6.0-1.0","AE5BB3054A9A46FABF7249C579A08B44","019a71b8-5fa0-752e-a863-8ac456136a67","019a719d-eb47-7867-b440-fd981f2acb8b","red","12000","","1490","<p style=""font-size:22px;"">The next series offered is 
                        <span style=""color:red; font-weight:bold;"">RED</span>.</p>
                      <p>The red series shows a sequence of unrelated events with no causal link.</p>
                      <p>If you choose to view, you will need to wait <b>12 seconds</b> before seeing the next images.</p>
                      <p>Would you like to view or skip?</p>","1","offer_choice","skip"
"","","","","","html-keyboard-response","26","301011","0.0-6.0-6.0-5.0-0.0","AE5BB3054A9A46FABF7249C579A08B44","019a71b8-5fa0-752e-a863-8ac456136a67","019a719d-eb47-7867-b440-fd981f2acb8b","red","12000","","null","<p style=""font-size:22px;"">Skipping to the next round...</p>","null","skip_screen",""
"","","","","","html-keyboard-response","27","307014","0.0-6.0-7.0-0.0","AE5BB3054A9A46FABF7249C579A08B44","019a71b8-5fa0-752e-a863-8ac456136a67","019a719d-eb47-7867-b440-fd981f2acb8b","red","12000","","null","<div style=""display:flex;justify-content:center;align-items:center;"">
                     <img src=""images/causal/causal_series_3/causal_series_3_a.png"" style=""width:300px;height:300px;"">
                   </div>","null","start",""
"","","","","","html-button-response","28","313316","0.0-6.0-7.0-1.0","AE5BB3054A9A46FABF7249C579A08B44","019a71b8-5fa0-752e-a863-8ac456136a67","019a719d-eb47-7867-b440-fd981f2acb8b","red","12000","","6300","<p style=""font-size:22px;"">The next series offered is 
                        <span style=""color:blue; font-weight:bold;"">BLUE</span>.</p>
                      <p>The blue series shows a sequence of events with a cause-and-effect relationship.</p>
                      <p>If you choose to view, you will need to wait <b>6 seconds</b> before seeing the next images.</p>
                      <p>Would you like to view or skip?</p>","1","offer_choice","skip"
"","","","","","html-keyboard-response","29","315319","0.0-6.0-7.0-5.0-0.0","AE5BB3054A9A46FABF7249C579A08B44","019a71b8-5fa0-752e-a863-8ac456136a67","019a719d-eb47-7867-b440-fd981f2acb8b","red","12000","","null","<p style=""font-size:22px;"">Skipping to the next round...</p>","null","skip_screen",""
"","","","","","html-keyboard-response","30","321321","0.0-6.0-8.0-0.0","AE5BB3054A9A46FABF7249C579A08B44","019a71b8-5fa0-752e-a863-8ac456136a67","019a719d-eb47-7867-b440-fd981f2acb8b","red","12000","","null","<div style=""display:flex;justify-content:center;align-items:center;"">
                     <img src=""images/causal/causal_series_8/causal_series_8_a.png"" style=""width:300px;height:300px;"">
                   </div>","null","start",""
"","","","","","html-button-response","31","322980","0.0-6.0-8.0-1.0","AE5BB3054A9A46FABF7249C579A08B44","019a71b8-5fa0-752e-a863-8ac456136a67","019a719d-eb47-7867-b440-fd981f2acb8b","red","12000","","1658","<p style=""font-size:22px;"">The next series offered is 
                        <span style=""color:blue; font-weight:bold;"">BLUE</span>.</p>
                      <p>The blue series shows a sequence of events with a cause-and-effect relationship.</p>
                      <p>If you choose to view, you will need to wait <b>12 seconds</b> before seeing the next images.</p>
                      <p>Would you like to view or skip?</p>","1","offer_choice","skip"
"","","","","","html-keyboard-response","32","324983","0.0-6.0-8.0-5.0-0.0","AE5BB3054A9A46FABF7249C579A08B44","019a71b8-5fa0-752e-a863-8ac456136a67","019a719d-eb47-7867-b440-fd981f2acb8b","red","12000","","null","<p style=""font-size:22px;"">Skipping to the next round...</p>","null","skip_screen",""
"","","","","","html-keyboard-response","33","330986","0.0-6.0-9.0-0.0","AE5BB3054A9A46FABF7249C579A08B44","019a71b8-5fa0-752e-a863-8ac456136a67","019a719d-eb47-7867-b440-fd981f2acb8b","red","12000","","null","<div style=""display:flex;justify-content:center;align-items:center;"">
                     <img src=""images/causal/causal_series_10/causal_series_10_a.png"" style=""width:300px;height:300px;"">
                   </div>","null","start",""
"","","","","","html-button-response","34","335898","0.0-6.0-9.0-1.0","AE5BB3054A9A46FABF7249C579A08B44","019a71b8-5fa0-752e-a863-8ac456136a67","019a719d-eb47-7867-b440-fd981f2acb8b","red","12000","","4911","<p style=""font-size:22px;"">The next series offered is 
                        <span style=""color:red; font-weight:bold;"">RED</span>.</p>
                      <p>The red series shows a sequence of unrelated events with no causal link.</p>
                      <p>If you choose to view, you will need to wait <b>6 seconds</b> before seeing the next images.</p>
                      <p>Would you like to view or skip?</p>","1","offer_choice","skip"
"","","","","","html-keyboard-response","35","337900","0.0-6.0-9.0-5.0-0.0","AE5BB3054A9A46FABF7249C579A08B44","019a71b8-5fa0-752e-a863-8ac456136a67","019a719d-eb47-7867-b440-fd981f2acb8b","red","12000","","null","<p style=""font-size:22px;"">Skipping to the next round...</p>","null","skip_screen",""
"","","","","","html-keyboard-response","36","343904","0.0-6.1-0.1-0.1","AE5BB3054A9A46FABF7249C579A08B44","019a71b8-5fa0-752e-a863-8ac456136a67","019a719d-eb47-7867-b440-fd981f2acb8b","red","12000","","null","<div style=""display:flex;justify-content:center;align-items:center;"">
                     <img src=""images/causal/causal_series_6/causal_series_6_a.png"" style=""width:300px;height:300px;"">
                   </div>","null","start",""
"","","","","","html-button-response","37","345555","0.0-6.1-0.1-1.1","AE5BB3054A9A46FABF7249C579A08B44","019a71b8-5fa0-752e-a863-8ac456136a67","019a719d-eb47-7867-b440-fd981f2acb8b","red","12000","","1650","<p style=""font-size:22px;"">The next series offered is 
                        <span style=""color:blue; font-weight:bold;"">BLUE</span>.</p>
                      <p>The blue series shows a sequence of events with a cause-and-effect relationship.</p>
                      <p>If you choose to view, you will need to wait <b>12 seconds</b> before seeing the next images.</p>
                      <p>Would you like to view or skip?</p>","1","offer_choice","skip"
"","","","","","html-keyboard-response","38","347558","0.0-6.1-0.1-5.1-0.1","AE5BB3054A9A46FABF7249C579A08B44","019a71b8-5fa0-752e-a863-8ac456136a67","019a719d-eb47-7867-b440-fd981f2acb8b","red","12000","","null","<p style=""font-size:22px;"">Skipping to the next round...</p>","null","skip_screen",""
"","","","","","html-keyboard-response","39","353561","0.0-6.1-1.1-0.1","AE5BB3054A9A46FABF7249C579A08B44","019a71b8-5fa0-752e-a863-8ac456136a67","019a719d-eb47-7867-b440-fd981f2acb8b","red","12000","","null","<div style=""display:flex;justify-content:center;align-items:center;"">
                     <img src=""images/causal/causal_series_9/causal_series_9_a.png"" style=""width:300px;height:300px;"">
                   </div>","null","start",""
"","","","","","html-button-response","40","356399","0.0-6.1-1.1-1.1","AE5BB3054A9A46FABF7249C579A08B44","019a71b8-5fa0-752e-a863-8ac456136a67","019a719d-eb47-7867-b440-fd981f2acb8b","red","12000","","2838","<p style=""font-size:22px;"">The next series offered is 
                        <span style=""color:red; font-weight:bold;"">RED</span>.</p>
                      <p>The red series shows a sequence of unrelated events with no causal link.</p>
                      <p>If you choose to view, you will need to wait <b>8 seconds</b> before seeing the next images.</p>
                      <p>Would you like to view or skip?</p>","1","offer_choice","skip"
"","","","","","html-keyboard-response","41","358401","0.0-6.1-1.1-5.1-0.1","AE5BB3054A9A46FABF7249C579A08B44","019a71b8-5fa0-752e-a863-8ac456136a67","019a719d-eb47-7867-b440-fd981f2acb8b","red","12000","","null","<p style=""font-size:22px;"">Skipping to the next round...</p>","null","skip_screen",""
"","","","","","html-keyboard-response","42","364404","0.0-6.1-2.1-0.1","AE5BB3054A9A46FABF7249C579A08B44","019a71b8-5fa0-752e-a863-8ac456136a67","019a719d-eb47-7867-b440-fd981f2acb8b","red","12000","","null","<div style=""display:flex;justify-content:center;align-items:center;"">
                     <img src=""images/causal/causal_series_1/causal_series_1_a.png"" style=""width:300px;height:300px;"">
                   </div>","null","start",""
"","","","","","html-button-response","43","365254","0.0-6.1-2.1-1.1","AE5BB3054A9A46FABF7249C579A08B44","019a71b8-5fa0-752e-a863-8ac456136a67","019a719d-eb47-7867-b440-fd981f2acb8b","red","12000","","847","<p style=""font-size:22px;"">The next series offered is 
                        <span style=""color:blue; font-weight:bold;"">BLUE</span>.</p>
                      <p>The blue series shows a sequence of events with a cause-and-effect relationship.</p>
                      <p>If you choose to view, you will need to wait <b>8 seconds</b> before seeing the next images.</p>
                      <p>Would you like to view or skip?</p>","1","offer_choice","skip"
"","","","","","html-keyboard-response","44","367256","0.0-6.1-2.1-5.1-0.1","AE5BB3054A9A46FABF7249C579A08B44","019a71b8-5fa0-752e-a863-8ac456136a67","019a719d-eb47-7867-b440-fd981f2acb8b","red","12000","","null","<p style=""font-size:22px;"">Skipping to the next round...</p>","null","skip_screen",""
"","","","","","html-keyboard-response","45","373259","0.0-6.1-3.1-0.1","AE5BB3054A9A46FABF7249C579A08B44","019a71b8-5fa0-752e-a863-8ac456136a67","019a719d-eb47-7867-b440-fd981f2acb8b","red","12000","","null","<div style=""display:flex;justify-content:center;align-items:center;"">
                     <img src=""images/causal/causal_series_5/causal_series_5_a.png"" style=""width:300px;height:300px;"">
                   </div>","null","start",""
"","","","","","html-button-response","46","379768","0.0-6.1-3.1-1.1","AE5BB3054A9A46FABF7249C579A08B44","019a71b8-5fa0-752e-a863-8ac456136a67","019a719d-eb47-7867-b440-fd981f2acb8b","red","12000","","6508","<p style=""font-size:22px;"">The next series offered is 
                        <span style=""color:blue; font-weight:bold;"">BLUE</span>.</p>
                      <p>The blue series shows a sequence of events with a cause-and-effect relationship.</p>
                      <p>If you choose to view, you will need to wait <b>12 seconds</b> before seeing the next images.</p>
                      <p>Would you like to view or skip?</p>","1","offer_choice","skip"
"","","","","","html-keyboard-response","47","381770","0.0-6.1-3.1-5.1-0.1","AE5BB3054A9A46FABF7249C579A08B44","019a71b8-5fa0-752e-a863-8ac456136a67","019a719d-eb47-7867-b440-fd981f2acb8b","red","12000","","null","<p style=""font-size:22px;"">Skipping to the next round...</p>","null","skip_screen",""
"","","","","","html-keyboard-response","48","387772","0.0-6.1-4.1-0.1","AE5BB3054A9A46FABF7249C579A08B44","019a71b8-5fa0-752e-a863-8ac456136a67","019a719d-eb47-7867-b440-fd981f2acb8b","red","12000","","null","<div style=""display:flex;justify-content:center;align-items:center;"">
                     <img src=""images/causal/causal_series_2/causal_series_2_a.png"" style=""width:300px;height:300px;"">
                   </div>","null","start",""
"","","","","","html-button-response","49","390056","0.0-6.1-4.1-1.1","AE5BB3054A9A46FABF7249C579A08B44","019a71b8-5fa0-752e-a863-8ac456136a67","019a719d-eb47-7867-b440-fd981f2acb8b","red","12000","","2282","<p style=""font-size:22px;"">The next series offered is 
                        <span style=""color:red; font-weight:bold;"">RED</span>.</p>
                      <p>The red series shows a sequence of unrelated events with no causal link.</p>
                      <p>If you choose to view, you will need to wait <b>6 seconds</b> before seeing the next images.</p>
                      <p>Would you like to view or skip?</p>","1","offer_choice","skip"
"","","","","","html-keyboard-response","50","392057","0.0-6.1-4.1-5.1-0.1","AE5BB3054A9A46FABF7249C579A08B44","019a71b8-5fa0-752e-a863-8ac456136a67","019a719d-eb47-7867-b440-fd981f2acb8b","red","12000","","null","<p style=""font-size:22px;"">Skipping to the next round...</p>","null","skip_screen",""
"","","","","","html-keyboard-response","51","398060","0.0-6.1-5.1-0.1","AE5BB3054A9A46FABF7249C579A08B44","019a71b8-5fa0-752e-a863-8ac456136a67","019a719d-eb47-7867-b440-fd981f2acb8b","red","12000","","null","<div style=""display:flex;justify-content:center;align-items:center;"">
                     <img src=""images/causal/causal_series_7/causal_series_7_a.png"" style=""width:300px;height:300px;"">
                   </div>","null","start",""
"","","","","","html-button-response","52","399413","0.0-6.1-5.1-1.1","AE5BB3054A9A46FABF7249C579A08B44","019a71b8-5fa0-752e-a863-8ac456136a67","019a719d-eb47-7867-b440-fd981f2acb8b","red","12000","","1352","<p style=""font-size:22px;"">The next series offered is 
                        <span style=""color:red; font-weight:bold;"">RED</span>.</p>
                      <p>The red series shows a sequence of unrelated events with no causal link.</p>
                      <p>If you choose to view, you will need to wait <b>6 seconds</b> before seeing the next images.</p>
                      <p>Would you like to view or skip?</p>","1","offer_choice","skip"
"","","","","","html-keyboard-response","53","401416","0.0-6.1-5.1-5.1-0.1","AE5BB3054A9A46FABF7249C579A08B44","019a71b8-5fa0-752e-a863-8ac456136a67","019a719d-eb47-7867-b440-fd981f2acb8b","red","12000","","null","<p style=""font-size:22px;"">Skipping to the next round...</p>","null","skip_screen",""
"","","","","","html-keyboard-response","54","407420","0.0-6.1-6.1-0.1","AE5BB3054A9A46FABF7249C579A08B44","019a71b8-5fa0-752e-a863-8ac456136a67","019a719d-eb47-7867-b440-fd981f2acb8b","red","12000","","null","<div style=""display:flex;justify-content:center;align-items:center;"">
                     <img src=""images/causal/causal_series_4/causal_series_4_a.png"" style=""width:300px;height:300px;"">
                   </div>","null","start",""
"","","","","","html-button-response","55","408539","0.0-6.1-6.1-1.1","AE5BB3054A9A46FABF7249C579A08B44","019a71b8-5fa0-752e-a863-8ac456136a67","019a719d-eb47-7867-b440-fd981f2acb8b","red","12000","","1118","<p style=""font-size:22px;"">The next series offered is 
                        <span style=""color:blue; font-weight:bold;"">BLUE</span>.</p>
                      <p>The blue series shows a sequence of events with a cause-and-effect relationship.</p>
                      <p>If you choose to view, you will need to wait <b>12 seconds</b> before seeing the next images.</p>
                      <p>Would you like to view or skip?</p>","1","offer_choice","skip"
"","","","","","html-keyboard-response","56","410540","0.0-6.1-6.1-5.1-0.1","AE5BB3054A9A46FABF7249C579A08B44","019a71b8-5fa0-752e-a863-8ac456136a67","019a719d-eb47-7867-b440-fd981f2acb8b","red","12000","","null","<p style=""font-size:22px;"">Skipping to the next round...</p>","null","skip_screen",""
"","","","","","html-keyboard-response","57","416543","0.0-6.1-7.1-0.1","AE5BB3054A9A46FABF7249C579A08B44","019a71b8-5fa0-752e-a863-8ac456136a67","019a719d-eb47-7867-b440-fd981f2acb8b","red","12000","","null","<div style=""display:flex;justify-content:center;align-items:center;"">
                     <img src=""images/causal/causal_series_3/causal_series_3_a.png"" style=""width:300px;height:300px;"">
                   </div>","null","start",""
"","","","","","html-button-response","58","417991","0.0-6.1-7.1-1.1","AE5BB3054A9A46FABF7249C579A08B44","019a71b8-5fa0-752e-a863-8ac456136a67","019a719d-eb47-7867-b440-fd981f2acb8b","red","12000","","1446","<p style=""font-size:22px;"">The next series offered is 
                        <span style=""color:blue; font-weight:bold;"">BLUE</span>.</p>
                      <p>The blue series shows a sequence of events with a cause-and-effect relationship.</p>
                      <p>If you choose to view, you will need to wait <b>8 seconds</b> before seeing the next images.</p>
                      <p>Would you like to view or skip?</p>","1","offer_choice","skip"
"","","","","","html-keyboard-response","59","419993","0.0-6.1-7.1-5.1-0.1","AE5BB3054A9A46FABF7249C579A08B44","019a71b8-5fa0-752e-a863-8ac456136a67","019a719d-eb47-7867-b440-fd981f2acb8b","red","12000","","null","<p style=""font-size:22px;"">Skipping to the next round...</p>","null","skip_screen",""
"","","","","","html-keyboard-response","60","425996","0.0-6.1-8.1-0.1","AE5BB3054A9A46FABF7249C579A08B44","019a71b8-5fa0-752e-a863-8ac456136a67","019a719d-eb47-7867-b440-fd981f2acb8b","red","12000","","null","<div style=""display:flex;justify-content:center;align-items:center;"">
                     <img src=""images/causal/causal_series_8/causal_series_8_a.png"" style=""width:300px;height:300px;"">
                   </div>","null","start",""
"","","","","","html-button-response","61","427184","0.0-6.1-8.1-1.1","AE5BB3054A9A46FABF7249C579A08B44","019a71b8-5fa0-752e-a863-8ac456136a67","019a719d-eb47-7867-b440-fd981f2acb8b","red","12000","","1186","<p style=""font-size:22px;"">The next series offered is 
                        <span style=""color:blue; font-weight:bold;"">BLUE</span>.</p>
                      <p>The blue series shows a sequence of events with a cause-and-effect relationship.</p>
                      <p>If you choose to view, you will need to wait <b>12 seconds</b> before seeing the next images.</p>
                      <p>Would you like to view or skip?</p>","1","offer_choice","skip"
"","","","","","html-keyboard-response","62","429186","0.0-6.1-8.1-5.1-0.1","AE5BB3054A9A46FABF7249C579A08B44","019a71b8-5fa0-752e-a863-8ac456136a67","019a719d-eb47-7867-b440-fd981f2acb8b","red","12000","","null","<p style=""font-size:22px;"">Skipping to the next round...</p>","null","skip_screen",""
"","","","","","html-keyboard-response","63","435189","0.0-6.1-9.1-0.1","AE5BB3054A9A46FABF7249C579A08B44","019a71b8-5fa0-752e-a863-8ac456136a67","019a719d-eb47-7867-b440-fd981f2acb8b","red","12000","","null","<div style=""display:flex;justify-content:center;align-items:center;"">
                     <img src=""images/causal/causal_series_10/causal_series_10_a.png"" style=""width:300px;height:300px;"">
                   </div>","null","start",""
"","","","","","html-button-response","64","436716","0.0-6.1-9.1-1.1","AE5BB3054A9A46FABF7249C579A08B44","019a71b8-5fa0-752e-a863-8ac456136a67","019a719d-eb47-7867-b440-fd981f2acb8b","red","12000","","1526","<p style=""font-size:22px;"">The next series offered is 
                        <span style=""color:red; font-weight:bold;"">RED</span>.</p>
                      <p>The red series shows a sequence of unrelated events with no causal link.</p>
                      <p>If you choose to view, you will need to wait <b>12 seconds</b> before seeing the next images.</p>
                      <p>Would you like to view or skip?</p>","1","offer_choice","skip"
"","","","","","html-keyboard-response","65","438720","0.0-6.1-9.1-5.1-0.1","AE5BB3054A9A46FABF7249C579A08B44","019a71b8-5fa0-752e-a863-8ac456136a67","019a719d-eb47-7867-b440-fd981f2acb8b","red","12000","","null","<p style=""font-size:22px;"">Skipping to the next round...</p>","null","skip_screen",""
"","","","","","survey-text","66","449270","0.0-7.0","AE5BB3054A9A46FABF7249C579A08B44","019a71b8-5fa0-752e-a863-8ac456136a67","019a719d-eb47-7867-b440-fd981f2acb8b","red","12000","","10542","","{""Q0"":""No, I do not see the difference.""}","",""
"","","","","","html-button-response","67","456499","0.0-8.0","AE5BB3054A9A46FABF7249C579A08B44","019a71b8-5fa0-752e-a863-8ac456136a67","019a719d-eb47-7867-b440-fd981f2acb8b","red","12000","","7228","Which color deck showed facts that built on each other?","0","",""
"","","","","","html-button-response","68","458160","0.0-9.0","AE5BB3054A9A46FABF7249C579A08B44","019a71b8-5fa0-752e-a863-8ac456136a67","019a719d-eb47-7867-b440-fd981f2acb8b","red","12000","","1660","Which color deck showed unrelated facts?","1","",""
"","","","","","html-button-response","69","459806","0.0-10.0","AE5BB3054A9A46FABF7249C579A08B44","019a71b8-5fa0-752e-a863-8ac456136a67","019a719d-eb47-7867-b440-fd981f2acb8b","red","12000","","1645","Which type of deck did you prefer overall?","1","",""
"","","","","","survey-text","70","469875","0.0-11.0","AE5BB3054A9A46FABF7249C579A08B44","019a71b8-5fa0-752e-a863-8ac456136a67","019a719d-eb47-7867-b440-fd981f2acb8b","red","12000","","10066","","{""Q0"":""The facts seemed more interesting""}","",""
"","","","","","survey-text","71","479993","0.0-12.0","AE5BB3054A9A46FABF7249C579A08B44","019a71b8-5fa0-752e-a863-8ac456136a67","019a719d-eb47-7867-b440-fd981f2acb8b","red","12000","","10116","","{""Q0"":""female"",""Q1"":""34""}","",""
"","","","","","instructions","72","497138","0.0-13.0","AE5BB3054A9A46FABF7249C579A08B44","019a71b8-5fa0-752e-a863-8ac456136a67","019a719d-eb47-7867-b440-fd981f2acb8b","red","12000","[{""page_index"":0,""viewing_time"":17218}]","17218","","","",""
