"success","timeout","failed_images","failed_audio","failed_video","trial_type","trial_index","time_elapsed","internal_node_id","subject_id","study_id","session_id","view_history","rt","stimulus","response","series","repetition","phase","choice","question_order"
"true","false","[]","[]","[]","preload","0","292","0.0-0.0","52F4EFBE07044752B2167485042CD7EC","0199d603-dc67-78ec-bca2-4bdddfd134ba","0199d5ef-c7d4-7cab-a194-b2c3afbaf8e8","","","","","","","","",""
"","","","","","instructions","1","4122","0.0-1.0","52F4EFBE07044752B2167485042CD7EC","0199d603-dc67-78ec-bca2-4bdddfd134ba","0199d5ef-c7d4-7cab-a194-b2c3afbaf8e8","[{""page_index"":0,""viewing_time"":3830}]","3830","","","","","","",""
"","","","","","instructions","2","20088","0.0-2.0","52F4EFBE07044752B2167485042CD7EC","0199d603-dc67-78ec-bca2-4bdddfd134ba","0199d5ef-c7d4-7cab-a194-b2c3afbaf8e8","[{""page_index"":0,""viewing_time"":15966}]","15966","","","","","","",""
"true","","","","","fullscreen","3","25800","0.0-3.0","52F4EFBE07044752B2167485042CD7EC","0199d603-dc67-78ec-bca2-4bdddfd134ba","0199d5ef-c7d4-7cab-a194-b2c3afbaf8e8","","4704","","","","","","",""
"","","","","","instructions","4","37996","0.0-4.0","52F4EFBE07044752B2167485042CD7EC","0199d603-dc67-78ec-bca2-4bdddfd134ba","0199d5ef-c7d4-7cab-a194-b2c3afbaf8e8","[{""page_index"":0,""viewing_time"":12196}]","12196","","","","","","",""
"","","","","","html-keyboard-response","5","44008","0.0-5.0","52F4EFBE07044752B2167485042CD7EC","0199d603-dc67-78ec-bca2-4bdddfd134ba","0199d5ef-c7d4-7cab-a194-b2c3afbaf8e8","","null","<div style=""display: flex; justify-content: center; align-items: center;"">
                     <img src=""images/causal/causal_series_6/causal_series_6_a.png"" style=""width: 300px; height: 300px;"" />
                   </div>","null","6","1","A","",""
"","","","","","html-keyboard-response","6","50013","0.0-6.0","52F4EFBE07044752B2167485042CD7EC","0199d603-dc67-78ec-bca2-4bdddfd134ba","0199d5ef-c7d4-7cab-a194-b2c3afbaf8e8","","null","<div style=""display: flex; justify-content: center; align-items: center;"">
                     <img src=""images/causal/causal_series_6/causal_series_6_b.png"" style=""width: 300px; height: 300px;"" />
                   </div>","null","6","1","B","",""
"","","","","","html-keyboard-response","7","56024","0.0-7.0","52F4EFBE07044752B2167485042CD7EC","0199d603-dc67-78ec-bca2-4bdddfd134ba","0199d5ef-c7d4-7cab-a194-b2c3afbaf8e8","","null","<div style=""display: flex; justify-content: center; align-items: center;"">
                     <img src=""images/causal/causal_series_6/causal_series_6_c.png"" style=""width: 300px; height: 300px;"" />
                   </div>","null","6","1","C","",""
"","","","","","html-button-response","8","60477","0.0-8.0","52F4EFBE07044752B2167485042CD7EC","0199d603-dc67-78ec-bca2-4bdddfd134ba","0199d5ef-c7d4-7cab-a194-b2c3afbaf8e8","","4453","
        <div style=""display: flex; justify-content: center; align-items: center;"">
          <img src=""images/red_deck_2.png"" style=""width: 300px; height: 300px; margin-right: 10px;"" />
          <img src=""images/blue_deck_1.png"" style=""width: 300px; height: 300px;"" />
        </div>","0","6","1","choice","0",""
"","","","","","html-keyboard-response","9","66490","0.0-9.0-0.0-0.0","52F4EFBE07044752B2167485042CD7EC","0199d603-dc67-78ec-bca2-4bdddfd134ba","0199d5ef-c7d4-7cab-a194-b2c3afbaf8e8","","null","<div style=""display: flex; justify-content: center; align-items: center;"">
                     <img src=""images/causal/causal_series_6/causal_series_6_d.png"" style=""width: 300px; height: 300px;"" />
                   </div>","null","6","1","D","",""
"","","","","","html-keyboard-response","10","72494","0.0-9.0-0.0-1.0","52F4EFBE07044752B2167485042CD7EC","0199d603-dc67-78ec-bca2-4bdddfd134ba","0199d5ef-c7d4-7cab-a194-b2c3afbaf8e8","","null","<div style=""display: flex; justify-content: center; align-items: center;"">
                     <img src=""images/causal/causal_series_6/causal_series_6_e.png"" style=""width: 300px; height: 300px;"" />
                   </div>","null","6","1","E","",""
"","","","","","html-keyboard-response","11","78509","0.0-9.0-0.0-2.0","52F4EFBE07044752B2167485042CD7EC","0199d603-dc67-78ec-bca2-4bdddfd134ba","0199d5ef-c7d4-7cab-a194-b2c3afbaf8e8","","null","<div style=""display: flex; justify-content: center; align-items: center;"">
                     <img src=""images/causal/causal_series_6/causal_series_6_f.png"" style=""width: 300px; height: 300px;"" />
                   </div>","null","6","1","F","",""
"","","","","","survey-likert","12","83039","0.0-10.0","52F4EFBE07044752B2167485042CD7EC","0199d603-dc67-78ec-bca2-4bdddfd134ba","0199d5ef-c7d4-7cab-a194-b2c3afbaf8e8","","4530","","{""Q0"":3}","6","1","surprise_rating","","[0]"
"","","","","","survey-likert","13","85645","0.0-11.0","52F4EFBE07044752B2167485042CD7EC","0199d603-dc67-78ec-bca2-4bdddfd134ba","0199d5ef-c7d4-7cab-a194-b2c3afbaf8e8","","2606","","{""Q0"":4}","6","1","enjoyment_rating","","[0]"
"","","","","","html-keyboard-response","14","91647","0.0-12.0","52F4EFBE07044752B2167485042CD7EC","0199d603-dc67-78ec-bca2-4bdddfd134ba","0199d5ef-c7d4-7cab-a194-b2c3afbaf8e8","","null","<div style=""display: flex; justify-content: center; align-items: center;"">
                     <img src=""images/other/blank.png"" style=""width: 300px; height: 300px;"" />
                   </div>","null","0","0","blank","",""
"","","","","","html-keyboard-response","15","97653","0.0-13.0","52F4EFBE07044752B2167485042CD7EC","0199d603-dc67-78ec-bca2-4bdddfd134ba","0199d5ef-c7d4-7cab-a194-b2c3afbaf8e8","","null","<div style=""display: flex; justify-content: center; align-items: center;"">
                     <img src=""images/causal/causal_series_7/causal_series_7_a.png"" style=""width: 300px; height: 300px;"" />
                   </div>","null","7","2","A","",""
"","","","","","html-keyboard-response","16","103667","0.0-14.0","52F4EFBE07044752B2167485042CD7EC","0199d603-dc67-78ec-bca2-4bdddfd134ba","0199d5ef-c7d4-7cab-a194-b2c3afbaf8e8","","null","<div style=""display: flex; justify-content: center; align-items: center;"">
                     <img src=""images/causal/causal_series_7/causal_series_7_b.png"" style=""width: 300px; height: 300px;"" />
                   </div>","null","7","2","B","",""
"","","","","","html-keyboard-response","17","109682","0.0-15.0","52F4EFBE07044752B2167485042CD7EC","0199d603-dc67-78ec-bca2-4bdddfd134ba","0199d5ef-c7d4-7cab-a194-b2c3afbaf8e8","","null","<div style=""display: flex; justify-content: center; align-items: center;"">
                     <img src=""images/causal/causal_series_7/causal_series_7_c.png"" style=""width: 300px; height: 300px;"" />
                   </div>","null","7","2","C","",""
"","","","","","html-button-response","18","111776","0.0-16.0","52F4EFBE07044752B2167485042CD7EC","0199d603-dc67-78ec-bca2-4bdddfd134ba","0199d5ef-c7d4-7cab-a194-b2c3afbaf8e8","","2094","
        <div style=""display: flex; justify-content: center; align-items: center;"">
          <img src=""images/red_deck_2.png"" style=""width: 300px; height: 300px; margin-right: 10px;"" />
          <img src=""images/blue_deck_1.png"" style=""width: 300px; height: 300px;"" />
        </div>","1","7","2","choice","1",""
"","","","","","html-keyboard-response","19","117782","0.0-17.0-1.0-0.0","52F4EFBE07044752B2167485042CD7EC","0199d603-dc67-78ec-bca2-4bdddfd134ba","0199d5ef-c7d4-7cab-a194-b2c3afbaf8e8","","null","<div style=""display: flex; justify-content: center; align-items: center;"">
                     <img src=""images/semantic/semantic_series_7/semantic_series_7_d.png"" style=""width: 300px; height: 300px;"" />
                   </div>","null","7","2","D","",""
"","","","","","html-keyboard-response","20","123783","0.0-17.0-1.0-1.0","52F4EFBE07044752B2167485042CD7EC","0199d603-dc67-78ec-bca2-4bdddfd134ba","0199d5ef-c7d4-7cab-a194-b2c3afbaf8e8","","null","<div style=""display: flex; justify-content: center; align-items: center;"">
                     <img src=""images/semantic/semantic_series_7/semantic_series_7_e.png"" style=""width: 300px; height: 300px;"" />
                   </div>","null","7","2","E","",""
"","","","","","html-keyboard-response","21","129797","0.0-17.0-1.0-2.0","52F4EFBE07044752B2167485042CD7EC","0199d603-dc67-78ec-bca2-4bdddfd134ba","0199d5ef-c7d4-7cab-a194-b2c3afbaf8e8","","null","<div style=""display: flex; justify-content: center; align-items: center;"">
                     <img src=""images/semantic/semantic_series_7/semantic_series_7_f.png"" style=""width: 300px; height: 300px;"" />
                   </div>","null","7","2","F","",""
"","","","","","survey-likert","22","132354","0.0-18.0","52F4EFBE07044752B2167485042CD7EC","0199d603-dc67-78ec-bca2-4bdddfd134ba","0199d5ef-c7d4-7cab-a194-b2c3afbaf8e8","","2557","","{""Q0"":4}","7","2","surprise_rating","","[0]"
"","","","","","survey-likert","23","133821","0.0-19.0","52F4EFBE07044752B2167485042CD7EC","0199d603-dc67-78ec-bca2-4bdddfd134ba","0199d5ef-c7d4-7cab-a194-b2c3afbaf8e8","","1466","","{""Q0"":1}","7","2","enjoyment_rating","","[0]"
"","","","","","html-keyboard-response","24","139835","0.0-20.0","52F4EFBE07044752B2167485042CD7EC","0199d603-dc67-78ec-bca2-4bdddfd134ba","0199d5ef-c7d4-7cab-a194-b2c3afbaf8e8","","null","<div style=""display: flex; justify-content: center; align-items: center;"">
                     <img src=""images/other/blank.png"" style=""width: 300px; height: 300px;"" />
                   </div>","null","0","0","blank","",""
"","","","","","html-keyboard-response","25","145841","0.0-21.0","52F4EFBE07044752B2167485042CD7EC","0199d603-dc67-78ec-bca2-4bdddfd134ba","0199d5ef-c7d4-7cab-a194-b2c3afbaf8e8","","null","<div style=""display: flex; justify-content: center; align-items: center;"">
                     <img src=""images/causal/causal_series_2/causal_series_2_a.png"" style=""width: 300px; height: 300px;"" />
                   </div>","null","2","1","A","",""
"","","","","","html-keyboard-response","26","151845","0.0-22.0","52F4EFBE07044752B2167485042CD7EC","0199d603-dc67-78ec-bca2-4bdddfd134ba","0199d5ef-c7d4-7cab-a194-b2c3afbaf8e8","","null","<div style=""display: flex; justify-content: center; align-items: center;"">
                     <img src=""images/causal/causal_series_2/causal_series_2_b.png"" style=""width: 300px; height: 300px;"" />
                   </div>","null","2","1","B","",""
"","","","","","html-keyboard-response","27","157855","0.0-23.0","52F4EFBE07044752B2167485042CD7EC","0199d603-dc67-78ec-bca2-4bdddfd134ba","0199d5ef-c7d4-7cab-a194-b2c3afbaf8e8","","null","<div style=""display: flex; justify-content: center; align-items: center;"">
                     <img src=""images/causal/causal_series_2/causal_series_2_c.png"" style=""width: 300px; height: 300px;"" />
                   </div>","null","2","1","C","",""
"","","","","","html-button-response","28","161020","0.0-24.0","52F4EFBE07044752B2167485042CD7EC","0199d603-dc67-78ec-bca2-4bdddfd134ba","0199d5ef-c7d4-7cab-a194-b2c3afbaf8e8","","3164","
        <div style=""display: flex; justify-content: center; align-items: center;"">
          <img src=""images/red_deck_2.png"" style=""width: 300px; height: 300px; margin-right: 10px;"" />
          <img src=""images/blue_deck_1.png"" style=""width: 300px; height: 300px;"" />
        </div>","0","2","1","choice","0",""
"","","","","","html-keyboard-response","29","167026","0.0-25.0-0.0-0.0","52F4EFBE07044752B2167485042CD7EC","0199d603-dc67-78ec-bca2-4bdddfd134ba","0199d5ef-c7d4-7cab-a194-b2c3afbaf8e8","","null","<div style=""display: flex; justify-content: center; align-items: center;"">
                     <img src=""images/causal/causal_series_2/causal_series_2_d.png"" style=""width: 300px; height: 300px;"" />
                   </div>","null","2","1","D","",""
"","","","","","html-keyboard-response","30","173042","0.0-25.0-0.0-1.0","52F4EFBE07044752B2167485042CD7EC","0199d603-dc67-78ec-bca2-4bdddfd134ba","0199d5ef-c7d4-7cab-a194-b2c3afbaf8e8","","null","<div style=""display: flex; justify-content: center; align-items: center;"">
                     <img src=""images/causal/causal_series_2/causal_series_2_e.png"" style=""width: 300px; height: 300px;"" />
                   </div>","null","2","1","E","",""
"","","","","","html-keyboard-response","31","179054","0.0-25.0-0.0-2.0","52F4EFBE07044752B2167485042CD7EC","0199d603-dc67-78ec-bca2-4bdddfd134ba","0199d5ef-c7d4-7cab-a194-b2c3afbaf8e8","","null","<div style=""display: flex; justify-content: center; align-items: center;"">
                     <img src=""images/causal/causal_series_2/causal_series_2_f.png"" style=""width: 300px; height: 300px;"" />
                   </div>","null","2","1","F","",""
"","","","","","survey-likert","32","181121","0.0-26.0","52F4EFBE07044752B2167485042CD7EC","0199d603-dc67-78ec-bca2-4bdddfd134ba","0199d5ef-c7d4-7cab-a194-b2c3afbaf8e8","","2067","","{""Q0"":4}","2","1","surprise_rating","","[0]"
"","","","","","survey-likert","33","182602","0.0-27.0","52F4EFBE07044752B2167485042CD7EC","0199d603-dc67-78ec-bca2-4bdddfd134ba","0199d5ef-c7d4-7cab-a194-b2c3afbaf8e8","","1481","","{""Q0"":4}","2","1","enjoyment_rating","","[0]"
"","","","","","html-keyboard-response","34","188617","0.0-28.0","52F4EFBE07044752B2167485042CD7EC","0199d603-dc67-78ec-bca2-4bdddfd134ba","0199d5ef-c7d4-7cab-a194-b2c3afbaf8e8","","null","<div style=""display: flex; justify-content: center; align-items: center;"">
                     <img src=""images/other/blank.png"" style=""width: 300px; height: 300px;"" />
                   </div>","null","0","0","blank","",""
"","","","","","html-keyboard-response","35","194622","0.0-29.0","52F4EFBE07044752B2167485042CD7EC","0199d603-dc67-78ec-bca2-4bdddfd134ba","0199d5ef-c7d4-7cab-a194-b2c3afbaf8e8","","null","<div style=""display: flex; justify-content: center; align-items: center;"">
                     <img src=""images/causal/causal_series_10/causal_series_10_a.png"" style=""width: 300px; height: 300px;"" />
                   </div>","null","10","2","A","",""
"","","","","","html-keyboard-response","36","200634","0.0-30.0","52F4EFBE07044752B2167485042CD7EC","0199d603-dc67-78ec-bca2-4bdddfd134ba","0199d5ef-c7d4-7cab-a194-b2c3afbaf8e8","","null","<div style=""display: flex; justify-content: center; align-items: center;"">
                     <img src=""images/causal/causal_series_10/causal_series_10_b.png"" style=""width: 300px; height: 300px;"" />
                   </div>","null","10","2","B","",""
"","","","","","html-keyboard-response","37","206644","0.0-31.0","52F4EFBE07044752B2167485042CD7EC","0199d603-dc67-78ec-bca2-4bdddfd134ba","0199d5ef-c7d4-7cab-a194-b2c3afbaf8e8","","null","<div style=""display: flex; justify-content: center; align-items: center;"">
                     <img src=""images/causal/causal_series_10/causal_series_10_c.png"" style=""width: 300px; height: 300px;"" />
                   </div>","null","10","2","C","",""
"","","","","","html-button-response","38","288619","0.0-32.0","52F4EFBE07044752B2167485042CD7EC","0199d603-dc67-78ec-bca2-4bdddfd134ba","0199d5ef-c7d4-7cab-a194-b2c3afbaf8e8","","81974","
        <div style=""display: flex; justify-content: center; align-items: center;"">
          <img src=""images/red_deck_2.png"" style=""width: 300px; height: 300px; margin-right: 10px;"" />
          <img src=""images/blue_deck_1.png"" style=""width: 300px; height: 300px;"" />
        </div>","1","10","2","choice","1",""
"","","","","","html-keyboard-response","39","294621","0.0-33.0-1.0-0.0","52F4EFBE07044752B2167485042CD7EC","0199d603-dc67-78ec-bca2-4bdddfd134ba","0199d5ef-c7d4-7cab-a194-b2c3afbaf8e8","","null","<div style=""display: flex; justify-content: center; align-items: center;"">
                     <img src=""images/semantic/semantic_series_10/semantic_series_10_d.png"" style=""width: 300px; height: 300px;"" />
                   </div>","null","10","2","D","",""
"","","","","","html-keyboard-response","40","300623","0.0-33.0-1.0-1.0","52F4EFBE07044752B2167485042CD7EC","0199d603-dc67-78ec-bca2-4bdddfd134ba","0199d5ef-c7d4-7cab-a194-b2c3afbaf8e8","","null","<div style=""display: flex; justify-content: center; align-items: center;"">
                     <img src=""images/semantic/semantic_series_10/semantic_series_10_e.png"" style=""width: 300px; height: 300px;"" />
                   </div>","null","10","2","E","",""
"","","","","","html-keyboard-response","41","306624","0.0-33.0-1.0-2.0","52F4EFBE07044752B2167485042CD7EC","0199d603-dc67-78ec-bca2-4bdddfd134ba","0199d5ef-c7d4-7cab-a194-b2c3afbaf8e8","","null","<div style=""display: flex; justify-content: center; align-items: center;"">
                     <img src=""images/semantic/semantic_series_10/semantic_series_10_f.png"" style=""width: 300px; height: 300px;"" />
                   </div>","null","10","2","F","",""
"","","","","","survey-likert","42","308450","0.0-34.0","52F4EFBE07044752B2167485042CD7EC","0199d603-dc67-78ec-bca2-4bdddfd134ba","0199d5ef-c7d4-7cab-a194-b2c3afbaf8e8","","1826","","{""Q0"":3}","10","2","surprise_rating","","[0]"
"","","","","","survey-likert","43","309353","0.0-35.0","52F4EFBE07044752B2167485042CD7EC","0199d603-dc67-78ec-bca2-4bdddfd134ba","0199d5ef-c7d4-7cab-a194-b2c3afbaf8e8","","903","","{""Q0"":2}","10","2","enjoyment_rating","","[0]"
"","","","","","html-keyboard-response","44","315362","0.0-36.0","52F4EFBE07044752B2167485042CD7EC","0199d603-dc67-78ec-bca2-4bdddfd134ba","0199d5ef-c7d4-7cab-a194-b2c3afbaf8e8","","null","<div style=""display: flex; justify-content: center; align-items: center;"">
                     <img src=""images/other/blank.png"" style=""width: 300px; height: 300px;"" />
                   </div>","null","0","0","blank","",""
"","","","","","html-keyboard-response","45","321374","0.0-37.0","52F4EFBE07044752B2167485042CD7EC","0199d603-dc67-78ec-bca2-4bdddfd134ba","0199d5ef-c7d4-7cab-a194-b2c3afbaf8e8","","null","<div style=""display: flex; justify-content: center; align-items: center;"">
                     <img src=""images/causal/causal_series_5/causal_series_5_a.png"" style=""width: 300px; height: 300px;"" />
                   </div>","null","5","2","A","",""
"","","","","","html-keyboard-response","46","327390","0.0-38.0","52F4EFBE07044752B2167485042CD7EC","0199d603-dc67-78ec-bca2-4bdddfd134ba","0199d5ef-c7d4-7cab-a194-b2c3afbaf8e8","","null","<div style=""display: flex; justify-content: center; align-items: center;"">
                     <img src=""images/causal/causal_series_5/causal_series_5_b.png"" style=""width: 300px; height: 300px;"" />
                   </div>","null","5","2","B","",""
"","","","","","html-keyboard-response","47","333393","0.0-39.0","52F4EFBE07044752B2167485042CD7EC","0199d603-dc67-78ec-bca2-4bdddfd134ba","0199d5ef-c7d4-7cab-a194-b2c3afbaf8e8","","null","<div style=""display: flex; justify-content: center; align-items: center;"">
                     <img src=""images/causal/causal_series_5/causal_series_5_c.png"" style=""width: 300px; height: 300px;"" />
                   </div>","null","5","2","C","",""
"","","","","","html-button-response","48","335631","0.0-40.0","52F4EFBE07044752B2167485042CD7EC","0199d603-dc67-78ec-bca2-4bdddfd134ba","0199d5ef-c7d4-7cab-a194-b2c3afbaf8e8","","2238","
        <div style=""display: flex; justify-content: center; align-items: center;"">
          <img src=""images/red_deck_2.png"" style=""width: 300px; height: 300px; margin-right: 10px;"" />
          <img src=""images/blue_deck_1.png"" style=""width: 300px; height: 300px;"" />
        </div>","0","5","2","choice","0",""
"","","","","","html-keyboard-response","49","341637","0.0-41.0-0.0-0.0","52F4EFBE07044752B2167485042CD7EC","0199d603-dc67-78ec-bca2-4bdddfd134ba","0199d5ef-c7d4-7cab-a194-b2c3afbaf8e8","","null","<div style=""display: flex; justify-content: center; align-items: center;"">
                     <img src=""images/causal/causal_series_5/causal_series_5_d.png"" style=""width: 300px; height: 300px;"" />
                   </div>","null","5","2","D","",""
"","","","","","html-keyboard-response","50","347640","0.0-41.0-0.0-1.0","52F4EFBE07044752B2167485042CD7EC","0199d603-dc67-78ec-bca2-4bdddfd134ba","0199d5ef-c7d4-7cab-a194-b2c3afbaf8e8","","null","<div style=""display: flex; justify-content: center; align-items: center;"">
                     <img src=""images/causal/causal_series_5/causal_series_5_e.png"" style=""width: 300px; height: 300px;"" />
                   </div>","null","5","2","E","",""
"","","","","","html-keyboard-response","51","353646","0.0-41.0-0.0-2.0","52F4EFBE07044752B2167485042CD7EC","0199d603-dc67-78ec-bca2-4bdddfd134ba","0199d5ef-c7d4-7cab-a194-b2c3afbaf8e8","","null","<div style=""display: flex; justify-content: center; align-items: center;"">
                     <img src=""images/causal/causal_series_5/causal_series_5_f.png"" style=""width: 300px; height: 300px;"" />
                   </div>","null","5","2","F","",""
"","","","","","survey-likert","52","355795","0.0-42.0","52F4EFBE07044752B2167485042CD7EC","0199d603-dc67-78ec-bca2-4bdddfd134ba","0199d5ef-c7d4-7cab-a194-b2c3afbaf8e8","","2149","","{""Q0"":4}","5","2","surprise_rating","","[0]"
"","","","","","survey-likert","53","358243","0.0-43.0","52F4EFBE07044752B2167485042CD7EC","0199d603-dc67-78ec-bca2-4bdddfd134ba","0199d5ef-c7d4-7cab-a194-b2c3afbaf8e8","","2447","","{""Q0"":4}","5","2","enjoyment_rating","","[0]"
"","","","","","html-keyboard-response","54","364254","0.0-44.0","52F4EFBE07044752B2167485042CD7EC","0199d603-dc67-78ec-bca2-4bdddfd134ba","0199d5ef-c7d4-7cab-a194-b2c3afbaf8e8","","null","<div style=""display: flex; justify-content: center; align-items: center;"">
                     <img src=""images/other/blank.png"" style=""width: 300px; height: 300px;"" />
                   </div>","null","0","0","blank","",""
"","","","","","html-keyboard-response","55","370268","0.0-45.0","52F4EFBE07044752B2167485042CD7EC","0199d603-dc67-78ec-bca2-4bdddfd134ba","0199d5ef-c7d4-7cab-a194-b2c3afbaf8e8","","null","<div style=""display: flex; justify-content: center; align-items: center;"">
                     <img src=""images/causal/causal_series_9/causal_series_9_a.png"" style=""width: 300px; height: 300px;"" />
                   </div>","null","9","1","A","",""
"","","","","","html-keyboard-response","56","376271","0.0-46.0","52F4EFBE07044752B2167485042CD7EC","0199d603-dc67-78ec-bca2-4bdddfd134ba","0199d5ef-c7d4-7cab-a194-b2c3afbaf8e8","","null","<div style=""display: flex; justify-content: center; align-items: center;"">
                     <img src=""images/causal/causal_series_9/causal_series_9_b.png"" style=""width: 300px; height: 300px;"" />
                   </div>","null","9","1","B","",""
"","","","","","html-keyboard-response","57","382276","0.0-47.0","52F4EFBE07044752B2167485042CD7EC","0199d603-dc67-78ec-bca2-4bdddfd134ba","0199d5ef-c7d4-7cab-a194-b2c3afbaf8e8","","null","<div style=""display: flex; justify-content: center; align-items: center;"">
                     <img src=""images/causal/causal_series_9/causal_series_9_c.png"" style=""width: 300px; height: 300px;"" />
                   </div>","null","9","1","C","",""
"","","","","","html-button-response","58","383814","0.0-48.0","52F4EFBE07044752B2167485042CD7EC","0199d603-dc67-78ec-bca2-4bdddfd134ba","0199d5ef-c7d4-7cab-a194-b2c3afbaf8e8","","1537","
        <div style=""display: flex; justify-content: center; align-items: center;"">
          <img src=""images/red_deck_2.png"" style=""width: 300px; height: 300px; margin-right: 10px;"" />
          <img src=""images/blue_deck_1.png"" style=""width: 300px; height: 300px;"" />
        </div>","0","9","1","choice","0",""
"","","","","","html-keyboard-response","59","389826","0.0-49.0-0.0-0.0","52F4EFBE07044752B2167485042CD7EC","0199d603-dc67-78ec-bca2-4bdddfd134ba","0199d5ef-c7d4-7cab-a194-b2c3afbaf8e8","","null","<div style=""display: flex; justify-content: center; align-items: center;"">
                     <img src=""images/causal/causal_series_9/causal_series_9_d.png"" style=""width: 300px; height: 300px;"" />
                   </div>","null","9","1","D","",""
"","","","","","html-keyboard-response","60","395832","0.0-49.0-0.0-1.0","52F4EFBE07044752B2167485042CD7EC","0199d603-dc67-78ec-bca2-4bdddfd134ba","0199d5ef-c7d4-7cab-a194-b2c3afbaf8e8","","null","<div style=""display: flex; justify-content: center; align-items: center;"">
                     <img src=""images/causal/causal_series_9/causal_series_9_e.png"" style=""width: 300px; height: 300px;"" />
                   </div>","null","9","1","E","",""
"","","","","","html-keyboard-response","61","401838","0.0-49.0-0.0-2.0","52F4EFBE07044752B2167485042CD7EC","0199d603-dc67-78ec-bca2-4bdddfd134ba","0199d5ef-c7d4-7cab-a194-b2c3afbaf8e8","","null","<div style=""display: flex; justify-content: center; align-items: center;"">
                     <img src=""images/causal/causal_series_9/causal_series_9_f.png"" style=""width: 300px; height: 300px;"" />
                   </div>","null","9","1","F","",""
"","","","","","survey-likert","62","403476","0.0-50.0","52F4EFBE07044752B2167485042CD7EC","0199d603-dc67-78ec-bca2-4bdddfd134ba","0199d5ef-c7d4-7cab-a194-b2c3afbaf8e8","","1638","","{""Q0"":3}","9","1","surprise_rating","","[0]"
"","","","","","survey-likert","63","404887","0.0-51.0","52F4EFBE07044752B2167485042CD7EC","0199d603-dc67-78ec-bca2-4bdddfd134ba","0199d5ef-c7d4-7cab-a194-b2c3afbaf8e8","","1410","","{""Q0"":2}","9","1","enjoyment_rating","","[0]"
"","","","","","html-keyboard-response","64","410897","0.0-52.0","52F4EFBE07044752B2167485042CD7EC","0199d603-dc67-78ec-bca2-4bdddfd134ba","0199d5ef-c7d4-7cab-a194-b2c3afbaf8e8","","null","<div style=""display: flex; justify-content: center; align-items: center;"">
                     <img src=""images/other/blank.png"" style=""width: 300px; height: 300px;"" />
                   </div>","null","0","0","blank","",""
"","","","","","html-keyboard-response","65","416901","0.0-53.0","52F4EFBE07044752B2167485042CD7EC","0199d603-dc67-78ec-bca2-4bdddfd134ba","0199d5ef-c7d4-7cab-a194-b2c3afbaf8e8","","null","<div style=""display: flex; justify-content: center; align-items: center;"">
                     <img src=""images/causal/causal_series_3/causal_series_3_a.png"" style=""width: 300px; height: 300px;"" />
                   </div>","null","3","1","A","",""
"","","","","","html-keyboard-response","66","422912","0.0-54.0","52F4EFBE07044752B2167485042CD7EC","0199d603-dc67-78ec-bca2-4bdddfd134ba","0199d5ef-c7d4-7cab-a194-b2c3afbaf8e8","","null","<div style=""display: flex; justify-content: center; align-items: center;"">
                     <img src=""images/causal/causal_series_3/causal_series_3_b.png"" style=""width: 300px; height: 300px;"" />
                   </div>","null","3","1","B","",""
"","","","","","html-keyboard-response","67","428916","0.0-55.0","52F4EFBE07044752B2167485042CD7EC","0199d603-dc67-78ec-bca2-4bdddfd134ba","0199d5ef-c7d4-7cab-a194-b2c3afbaf8e8","","null","<div style=""display: flex; justify-content: center; align-items: center;"">
                     <img src=""images/causal/causal_series_3/causal_series_3_c.png"" style=""width: 300px; height: 300px;"" />
                   </div>","null","3","1","C","",""
"","","","","","html-button-response","68","559971","0.0-56.0","52F4EFBE07044752B2167485042CD7EC","0199d603-dc67-78ec-bca2-4bdddfd134ba","0199d5ef-c7d4-7cab-a194-b2c3afbaf8e8","","131054","
        <div style=""display: flex; justify-content: center; align-items: center;"">
          <img src=""images/red_deck_2.png"" style=""width: 300px; height: 300px; margin-right: 10px;"" />
          <img src=""images/blue_deck_1.png"" style=""width: 300px; height: 300px;"" />
        </div>","1","3","1","choice","1",""
"","","","","","html-keyboard-response","69","565982","0.0-57.0-1.0-0.0","52F4EFBE07044752B2167485042CD7EC","0199d603-dc67-78ec-bca2-4bdddfd134ba","0199d5ef-c7d4-7cab-a194-b2c3afbaf8e8","","null","<div style=""display: flex; justify-content: center; align-items: center;"">
                     <img src=""images/semantic/semantic_series_3/semantic_series_3_d.png"" style=""width: 300px; height: 300px;"" />
                   </div>","null","3","1","D","",""
"","","","","","html-keyboard-response","70","571990","0.0-57.0-1.0-1.0","52F4EFBE07044752B2167485042CD7EC","0199d603-dc67-78ec-bca2-4bdddfd134ba","0199d5ef-c7d4-7cab-a194-b2c3afbaf8e8","","null","<div style=""display: flex; justify-content: center; align-items: center;"">
                     <img src=""images/semantic/semantic_series_3/semantic_series_3_e.png"" style=""width: 300px; height: 300px;"" />
                   </div>","null","3","1","E","",""
"","","","","","html-keyboard-response","71","577994","0.0-57.0-1.0-2.0","52F4EFBE07044752B2167485042CD7EC","0199d603-dc67-78ec-bca2-4bdddfd134ba","0199d5ef-c7d4-7cab-a194-b2c3afbaf8e8","","null","<div style=""display: flex; justify-content: center; align-items: center;"">
                     <img src=""images/semantic/semantic_series_3/semantic_series_3_f.png"" style=""width: 300px; height: 300px;"" />
                   </div>","null","3","1","F","",""
"","","","","","survey-likert","72","579207","0.0-58.0","52F4EFBE07044752B2167485042CD7EC","0199d603-dc67-78ec-bca2-4bdddfd134ba","0199d5ef-c7d4-7cab-a194-b2c3afbaf8e8","","1213","","{""Q0"":3}","3","1","surprise_rating","","[0]"
"","","","","","survey-likert","73","580207","0.0-59.0","52F4EFBE07044752B2167485042CD7EC","0199d603-dc67-78ec-bca2-4bdddfd134ba","0199d5ef-c7d4-7cab-a194-b2c3afbaf8e8","","999","","{""Q0"":2}","3","1","enjoyment_rating","","[0]"
"","","","","","html-keyboard-response","74","586211","0.0-60.0","52F4EFBE07044752B2167485042CD7EC","0199d603-dc67-78ec-bca2-4bdddfd134ba","0199d5ef-c7d4-7cab-a194-b2c3afbaf8e8","","null","<div style=""display: flex; justify-content: center; align-items: center;"">
                     <img src=""images/other/blank.png"" style=""width: 300px; height: 300px;"" />
                   </div>","null","0","0","blank","",""
"","","","","","html-keyboard-response","75","592223","0.0-61.0","52F4EFBE07044752B2167485042CD7EC","0199d603-dc67-78ec-bca2-4bdddfd134ba","0199d5ef-c7d4-7cab-a194-b2c3afbaf8e8","","null","<div style=""display: flex; justify-content: center; align-items: center;"">
                     <img src=""images/causal/causal_series_2/causal_series_2_a.png"" style=""width: 300px; height: 300px;"" />
                   </div>","null","2","2","A","",""
"","","","","","html-keyboard-response","76","598225","0.0-62.0","52F4EFBE07044752B2167485042CD7EC","0199d603-dc67-78ec-bca2-4bdddfd134ba","0199d5ef-c7d4-7cab-a194-b2c3afbaf8e8","","null","<div style=""display: flex; justify-content: center; align-items: center;"">
                     <img src=""images/causal/causal_series_2/causal_series_2_b.png"" style=""width: 300px; height: 300px;"" />
                   </div>","null","2","2","B","",""
"","","","","","html-keyboard-response","77","604232","0.0-63.0","52F4EFBE07044752B2167485042CD7EC","0199d603-dc67-78ec-bca2-4bdddfd134ba","0199d5ef-c7d4-7cab-a194-b2c3afbaf8e8","","null","<div style=""display: flex; justify-content: center; align-items: center;"">
                     <img src=""images/causal/causal_series_2/causal_series_2_c.png"" style=""width: 300px; height: 300px;"" />
                   </div>","null","2","2","C","",""
"","","","","","html-button-response","78","606104","0.0-64.0","52F4EFBE07044752B2167485042CD7EC","0199d603-dc67-78ec-bca2-4bdddfd134ba","0199d5ef-c7d4-7cab-a194-b2c3afbaf8e8","","1872","
        <div style=""display: flex; justify-content: center; align-items: center;"">
          <img src=""images/red_deck_2.png"" style=""width: 300px; height: 300px; margin-right: 10px;"" />
          <img src=""images/blue_deck_1.png"" style=""width: 300px; height: 300px;"" />
        </div>","1","2","2","choice","1",""
"","","","","","html-keyboard-response","79","612107","0.0-65.0-1.0-0.0","52F4EFBE07044752B2167485042CD7EC","0199d603-dc67-78ec-bca2-4bdddfd134ba","0199d5ef-c7d4-7cab-a194-b2c3afbaf8e8","","null","<div style=""display: flex; justify-content: center; align-items: center;"">
                     <img src=""images/semantic/semantic_series_2/semantic_series_2_d.png"" style=""width: 300px; height: 300px;"" />
                   </div>","null","2","2","D","",""
"","","","","","html-keyboard-response","80","618116","0.0-65.0-1.0-1.0","52F4EFBE07044752B2167485042CD7EC","0199d603-dc67-78ec-bca2-4bdddfd134ba","0199d5ef-c7d4-7cab-a194-b2c3afbaf8e8","","null","<div style=""display: flex; justify-content: center; align-items: center;"">
                     <img src=""images/semantic/semantic_series_2/semantic_series_2_e.png"" style=""width: 300px; height: 300px;"" />
                   </div>","null","2","2","E","",""
"","","","","","html-keyboard-response","81","624128","0.0-65.0-1.0-2.0","52F4EFBE07044752B2167485042CD7EC","0199d603-dc67-78ec-bca2-4bdddfd134ba","0199d5ef-c7d4-7cab-a194-b2c3afbaf8e8","","null","<div style=""display: flex; justify-content: center; align-items: center;"">
                     <img src=""images/semantic/semantic_series_2/semantic_series_2_f.png"" style=""width: 300px; height: 300px;"" />
                   </div>","null","2","2","F","",""
"","","","","","survey-likert","82","626326","0.0-66.0","52F4EFBE07044752B2167485042CD7EC","0199d603-dc67-78ec-bca2-4bdddfd134ba","0199d5ef-c7d4-7cab-a194-b2c3afbaf8e8","","2198","","{""Q0"":0}","2","2","surprise_rating","","[0]"
"","","","","","survey-likert","83","627721","0.0-67.0","52F4EFBE07044752B2167485042CD7EC","0199d603-dc67-78ec-bca2-4bdddfd134ba","0199d5ef-c7d4-7cab-a194-b2c3afbaf8e8","","1395","","{""Q0"":3}","2","2","enjoyment_rating","","[0]"
"","","","","","html-keyboard-response","84","633722","0.0-68.0","52F4EFBE07044752B2167485042CD7EC","0199d603-dc67-78ec-bca2-4bdddfd134ba","0199d5ef-c7d4-7cab-a194-b2c3afbaf8e8","","null","<div style=""display: flex; justify-content: center; align-items: center;"">
                     <img src=""images/other/blank.png"" style=""width: 300px; height: 300px;"" />
                   </div>","null","0","0","blank","",""
"","","","","","html-keyboard-response","85","639722","0.0-69.0","52F4EFBE07044752B2167485042CD7EC","0199d603-dc67-78ec-bca2-4bdddfd134ba","0199d5ef-c7d4-7cab-a194-b2c3afbaf8e8","","null","<div style=""display: flex; justify-content: center; align-items: center;"">
                     <img src=""images/causal/causal_series_9/causal_series_9_a.png"" style=""width: 300px; height: 300px;"" />
                   </div>","null","9","2","A","",""
"","","","","","html-keyboard-response","86","645737","0.0-70.0","52F4EFBE07044752B2167485042CD7EC","0199d603-dc67-78ec-bca2-4bdddfd134ba","0199d5ef-c7d4-7cab-a194-b2c3afbaf8e8","","null","<div style=""display: flex; justify-content: center; align-items: center;"">
                     <img src=""images/causal/causal_series_9/causal_series_9_b.png"" style=""width: 300px; height: 300px;"" />
                   </div>","null","9","2","B","",""
"","","","","","html-keyboard-response","87","651738","0.0-71.0","52F4EFBE07044752B2167485042CD7EC","0199d603-dc67-78ec-bca2-4bdddfd134ba","0199d5ef-c7d4-7cab-a194-b2c3afbaf8e8","","null","<div style=""display: flex; justify-content: center; align-items: center;"">
                     <img src=""images/causal/causal_series_9/causal_series_9_c.png"" style=""width: 300px; height: 300px;"" />
                   </div>","null","9","2","C","",""
"","","","","","html-button-response","88","652420","0.0-72.0","52F4EFBE07044752B2167485042CD7EC","0199d603-dc67-78ec-bca2-4bdddfd134ba","0199d5ef-c7d4-7cab-a194-b2c3afbaf8e8","","681","
        <div style=""display: flex; justify-content: center; align-items: center;"">
          <img src=""images/red_deck_2.png"" style=""width: 300px; height: 300px; margin-right: 10px;"" />
          <img src=""images/blue_deck_1.png"" style=""width: 300px; height: 300px;"" />
        </div>","1","9","2","choice","1",""
"","","","","","html-keyboard-response","89","658429","0.0-73.0-1.0-0.0","52F4EFBE07044752B2167485042CD7EC","0199d603-dc67-78ec-bca2-4bdddfd134ba","0199d5ef-c7d4-7cab-a194-b2c3afbaf8e8","","null","<div style=""display: flex; justify-content: center; align-items: center;"">
                     <img src=""images/semantic/semantic_series_9/semantic_series_9_d.png"" style=""width: 300px; height: 300px;"" />
                   </div>","null","9","2","D","",""
"","","","","","html-keyboard-response","90","664435","0.0-73.0-1.0-1.0","52F4EFBE07044752B2167485042CD7EC","0199d603-dc67-78ec-bca2-4bdddfd134ba","0199d5ef-c7d4-7cab-a194-b2c3afbaf8e8","","null","<div style=""display: flex; justify-content: center; align-items: center;"">
                     <img src=""images/semantic/semantic_series_9/semantic_series_9_e.png"" style=""width: 300px; height: 300px;"" />
                   </div>","null","9","2","E","",""
"","","","","","html-keyboard-response","91","670438","0.0-73.0-1.0-2.0","52F4EFBE07044752B2167485042CD7EC","0199d603-dc67-78ec-bca2-4bdddfd134ba","0199d5ef-c7d4-7cab-a194-b2c3afbaf8e8","","null","<div style=""display: flex; justify-content: center; align-items: center;"">
                     <img src=""images/semantic/semantic_series_9/semantic_series_9_f.png"" style=""width: 300px; height: 300px;"" />
                   </div>","null","9","2","F","",""
"","","","","","survey-likert","92","671217","0.0-74.0","52F4EFBE07044752B2167485042CD7EC","0199d603-dc67-78ec-bca2-4bdddfd134ba","0199d5ef-c7d4-7cab-a194-b2c3afbaf8e8","","779","","{""Q0"":2}","9","2","surprise_rating","","[0]"
"","","","","","survey-likert","93","672473","0.0-75.0","52F4EFBE07044752B2167485042CD7EC","0199d603-dc67-78ec-bca2-4bdddfd134ba","0199d5ef-c7d4-7cab-a194-b2c3afbaf8e8","","1255","","{""Q0"":2}","9","2","enjoyment_rating","","[0]"
"","","","","","html-keyboard-response","94","678484","0.0-76.0","52F4EFBE07044752B2167485042CD7EC","0199d603-dc67-78ec-bca2-4bdddfd134ba","0199d5ef-c7d4-7cab-a194-b2c3afbaf8e8","","null","<div style=""display: flex; justify-content: center; align-items: center;"">
                     <img src=""images/other/blank.png"" style=""width: 300px; height: 300px;"" />
                   </div>","null","0","0","blank","",""
"","","","","","html-keyboard-response","95","684484","0.0-77.0","52F4EFBE07044752B2167485042CD7EC","0199d603-dc67-78ec-bca2-4bdddfd134ba","0199d5ef-c7d4-7cab-a194-b2c3afbaf8e8","","null","<div style=""display: flex; justify-content: center; align-items: center;"">
                     <img src=""images/causal/causal_series_1/causal_series_1_a.png"" style=""width: 300px; height: 300px;"" />
                   </div>","null","1","1","A","",""
"","","","","","html-keyboard-response","96","690491","0.0-78.0","52F4EFBE07044752B2167485042CD7EC","0199d603-dc67-78ec-bca2-4bdddfd134ba","0199d5ef-c7d4-7cab-a194-b2c3afbaf8e8","","null","<div style=""display: flex; justify-content: center; align-items: center;"">
                     <img src=""images/causal/causal_series_1/causal_series_1_b.png"" style=""width: 300px; height: 300px;"" />
                   </div>","null","1","1","B","",""
"","","","","","html-keyboard-response","97","696492","0.0-79.0","52F4EFBE07044752B2167485042CD7EC","0199d603-dc67-78ec-bca2-4bdddfd134ba","0199d5ef-c7d4-7cab-a194-b2c3afbaf8e8","","null","<div style=""display: flex; justify-content: center; align-items: center;"">
                     <img src=""images/causal/causal_series_1/causal_series_1_c.png"" style=""width: 300px; height: 300px;"" />
                   </div>","null","1","1","C","",""
"","","","","","html-button-response","98","697290","0.0-80.0","52F4EFBE07044752B2167485042CD7EC","0199d603-dc67-78ec-bca2-4bdddfd134ba","0199d5ef-c7d4-7cab-a194-b2c3afbaf8e8","","797","
        <div style=""display: flex; justify-content: center; align-items: center;"">
          <img src=""images/red_deck_2.png"" style=""width: 300px; height: 300px; margin-right: 10px;"" />
          <img src=""images/blue_deck_1.png"" style=""width: 300px; height: 300px;"" />
        </div>","0","1","1","choice","0",""
"","","","","","html-keyboard-response","99","703300","0.0-81.0-0.0-0.0","52F4EFBE07044752B2167485042CD7EC","0199d603-dc67-78ec-bca2-4bdddfd134ba","0199d5ef-c7d4-7cab-a194-b2c3afbaf8e8","","null","<div style=""display: flex; justify-content: center; align-items: center;"">
                     <img src=""images/causal/causal_series_1/causal_series_1_d.png"" style=""width: 300px; height: 300px;"" />
                   </div>","null","1","1","D","",""
"","","","","","html-keyboard-response","100","709308","0.0-81.0-0.0-1.0","52F4EFBE07044752B2167485042CD7EC","0199d603-dc67-78ec-bca2-4bdddfd134ba","0199d5ef-c7d4-7cab-a194-b2c3afbaf8e8","","null","<div style=""display: flex; justify-content: center; align-items: center;"">
                     <img src=""images/causal/causal_series_1/causal_series_1_e.png"" style=""width: 300px; height: 300px;"" />
                   </div>","null","1","1","E","",""
"","","","","","html-keyboard-response","101","715312","0.0-81.0-0.0-2.0","52F4EFBE07044752B2167485042CD7EC","0199d603-dc67-78ec-bca2-4bdddfd134ba","0199d5ef-c7d4-7cab-a194-b2c3afbaf8e8","","null","<div style=""display: flex; justify-content: center; align-items: center;"">
                     <img src=""images/causal/causal_series_1/causal_series_1_f.png"" style=""width: 300px; height: 300px;"" />
                   </div>","null","1","1","F","",""
"","","","","","survey-likert","102","716260","0.0-82.0","52F4EFBE07044752B2167485042CD7EC","0199d603-dc67-78ec-bca2-4bdddfd134ba","0199d5ef-c7d4-7cab-a194-b2c3afbaf8e8","","948","","{""Q0"":3}","1","1","surprise_rating","","[0]"
"","","","","","survey-likert","103","717276","0.0-83.0","52F4EFBE07044752B2167485042CD7EC","0199d603-dc67-78ec-bca2-4bdddfd134ba","0199d5ef-c7d4-7cab-a194-b2c3afbaf8e8","","1016","","{""Q0"":4}","1","1","enjoyment_rating","","[0]"
"","","","","","html-keyboard-response","104","723287","0.0-84.0","52F4EFBE07044752B2167485042CD7EC","0199d603-dc67-78ec-bca2-4bdddfd134ba","0199d5ef-c7d4-7cab-a194-b2c3afbaf8e8","","null","<div style=""display: flex; justify-content: center; align-items: center;"">
                     <img src=""images/other/blank.png"" style=""width: 300px; height: 300px;"" />
                   </div>","null","0","0","blank","",""
"","","","","","html-keyboard-response","105","729292","0.0-85.0","52F4EFBE07044752B2167485042CD7EC","0199d603-dc67-78ec-bca2-4bdddfd134ba","0199d5ef-c7d4-7cab-a194-b2c3afbaf8e8","","null","<div style=""display: flex; justify-content: center; align-items: center;"">
                     <img src=""images/causal/causal_series_7/causal_series_7_a.png"" style=""width: 300px; height: 300px;"" />
                   </div>","null","7","1","A","",""
"","","","","","html-keyboard-response","106","735295","0.0-86.0","52F4EFBE07044752B2167485042CD7EC","0199d603-dc67-78ec-bca2-4bdddfd134ba","0199d5ef-c7d4-7cab-a194-b2c3afbaf8e8","","null","<div style=""display: flex; justify-content: center; align-items: center;"">
                     <img src=""images/causal/causal_series_7/causal_series_7_b.png"" style=""width: 300px; height: 300px;"" />
                   </div>","null","7","1","B","",""
"","","","","","html-keyboard-response","107","741307","0.0-87.0","52F4EFBE07044752B2167485042CD7EC","0199d603-dc67-78ec-bca2-4bdddfd134ba","0199d5ef-c7d4-7cab-a194-b2c3afbaf8e8","","null","<div style=""display: flex; justify-content: center; align-items: center;"">
                     <img src=""images/causal/causal_series_7/causal_series_7_c.png"" style=""width: 300px; height: 300px;"" />
                   </div>","null","7","1","C","",""
"","","","","","html-button-response","108","743018","0.0-88.0","52F4EFBE07044752B2167485042CD7EC","0199d603-dc67-78ec-bca2-4bdddfd134ba","0199d5ef-c7d4-7cab-a194-b2c3afbaf8e8","","1711","
        <div style=""display: flex; justify-content: center; align-items: center;"">
          <img src=""images/red_deck_2.png"" style=""width: 300px; height: 300px; margin-right: 10px;"" />
          <img src=""images/blue_deck_1.png"" style=""width: 300px; height: 300px;"" />
        </div>","1","7","1","choice","1",""
"","","","","","html-keyboard-response","109","749018","0.0-89.0-1.0-0.0","52F4EFBE07044752B2167485042CD7EC","0199d603-dc67-78ec-bca2-4bdddfd134ba","0199d5ef-c7d4-7cab-a194-b2c3afbaf8e8","","null","<div style=""display: flex; justify-content: center; align-items: center;"">
                     <img src=""images/semantic/semantic_series_7/semantic_series_7_d.png"" style=""width: 300px; height: 300px;"" />
                   </div>","null","7","1","D","",""
"","","","","","html-keyboard-response","110","755022","0.0-89.0-1.0-1.0","52F4EFBE07044752B2167485042CD7EC","0199d603-dc67-78ec-bca2-4bdddfd134ba","0199d5ef-c7d4-7cab-a194-b2c3afbaf8e8","","null","<div style=""display: flex; justify-content: center; align-items: center;"">
                     <img src=""images/semantic/semantic_series_7/semantic_series_7_e.png"" style=""width: 300px; height: 300px;"" />
                   </div>","null","7","1","E","",""
"","","","","","html-keyboard-response","111","761028","0.0-89.0-1.0-2.0","52F4EFBE07044752B2167485042CD7EC","0199d603-dc67-78ec-bca2-4bdddfd134ba","0199d5ef-c7d4-7cab-a194-b2c3afbaf8e8","","null","<div style=""display: flex; justify-content: center; align-items: center;"">
                     <img src=""images/semantic/semantic_series_7/semantic_series_7_f.png"" style=""width: 300px; height: 300px;"" />
                   </div>","null","7","1","F","",""
"","","","","","survey-likert","112","763519","0.0-90.0","52F4EFBE07044752B2167485042CD7EC","0199d603-dc67-78ec-bca2-4bdddfd134ba","0199d5ef-c7d4-7cab-a194-b2c3afbaf8e8","","2490","","{""Q0"":3}","7","1","surprise_rating","","[0]"
"","","","","","survey-likert","113","765025","0.0-91.0","52F4EFBE07044752B2167485042CD7EC","0199d603-dc67-78ec-bca2-4bdddfd134ba","0199d5ef-c7d4-7cab-a194-b2c3afbaf8e8","","1506","","{""Q0"":2}","7","1","enjoyment_rating","","[0]"
"","","","","","html-keyboard-response","114","771040","0.0-92.0","52F4EFBE07044752B2167485042CD7EC","0199d603-dc67-78ec-bca2-4bdddfd134ba","0199d5ef-c7d4-7cab-a194-b2c3afbaf8e8","","null","<div style=""display: flex; justify-content: center; align-items: center;"">
                     <img src=""images/other/blank.png"" style=""width: 300px; height: 300px;"" />
                   </div>","null","0","0","blank","",""
"","","","","","html-keyboard-response","115","777051","0.0-93.0","52F4EFBE07044752B2167485042CD7EC","0199d603-dc67-78ec-bca2-4bdddfd134ba","0199d5ef-c7d4-7cab-a194-b2c3afbaf8e8","","null","<div style=""display: flex; justify-content: center; align-items: center;"">
                     <img src=""images/causal/causal_series_5/causal_series_5_a.png"" style=""width: 300px; height: 300px;"" />
                   </div>","null","5","1","A","",""
"","","","","","html-keyboard-response","116","783057","0.0-94.0","52F4EFBE07044752B2167485042CD7EC","0199d603-dc67-78ec-bca2-4bdddfd134ba","0199d5ef-c7d4-7cab-a194-b2c3afbaf8e8","","null","<div style=""display: flex; justify-content: center; align-items: center;"">
                     <img src=""images/causal/causal_series_5/causal_series_5_b.png"" style=""width: 300px; height: 300px;"" />
                   </div>","null","5","1","B","",""
"","","","","","html-keyboard-response","117","789571","0.0-95.0","52F4EFBE07044752B2167485042CD7EC","0199d603-dc67-78ec-bca2-4bdddfd134ba","0199d5ef-c7d4-7cab-a194-b2c3afbaf8e8","","null","<div style=""display: flex; justify-content: center; align-items: center;"">
                     <img src=""images/causal/causal_series_5/causal_series_5_c.png"" style=""width: 300px; height: 300px;"" />
                   </div>","null","5","1","C","",""
"","","","","","html-button-response","118","848382","0.0-96.0","52F4EFBE07044752B2167485042CD7EC","0199d603-dc67-78ec-bca2-4bdddfd134ba","0199d5ef-c7d4-7cab-a194-b2c3afbaf8e8","","58810","
        <div style=""display: flex; justify-content: center; align-items: center;"">
          <img src=""images/red_deck_2.png"" style=""width: 300px; height: 300px; margin-right: 10px;"" />
          <img src=""images/blue_deck_1.png"" style=""width: 300px; height: 300px;"" />
        </div>","1","5","1","choice","1",""
"","","","","","html-keyboard-response","119","854582","0.0-97.0-1.0-0.0","52F4EFBE07044752B2167485042CD7EC","0199d603-dc67-78ec-bca2-4bdddfd134ba","0199d5ef-c7d4-7cab-a194-b2c3afbaf8e8","","null","<div style=""display: flex; justify-content: center; align-items: center;"">
                     <img src=""images/semantic/semantic_series_5/semantic_series_5_d.png"" style=""width: 300px; height: 300px;"" />
                   </div>","null","5","1","D","",""
"","","","","","html-keyboard-response","120","861570","0.0-97.0-1.0-1.0","52F4EFBE07044752B2167485042CD7EC","0199d603-dc67-78ec-bca2-4bdddfd134ba","0199d5ef-c7d4-7cab-a194-b2c3afbaf8e8","","null","<div style=""display: flex; justify-content: center; align-items: center;"">
                     <img src=""images/semantic/semantic_series_5/semantic_series_5_e.png"" style=""width: 300px; height: 300px;"" />
                   </div>","null","5","1","E","",""
"","","","","","html-keyboard-response","121","868580","0.0-97.0-1.0-2.0","52F4EFBE07044752B2167485042CD7EC","0199d603-dc67-78ec-bca2-4bdddfd134ba","0199d5ef-c7d4-7cab-a194-b2c3afbaf8e8","","null","<div style=""display: flex; justify-content: center; align-items: center;"">
                     <img src=""images/semantic/semantic_series_5/semantic_series_5_f.png"" style=""width: 300px; height: 300px;"" />
                   </div>","null","5","1","F","",""
"","","","","","survey-likert","122","887200","0.0-98.0","52F4EFBE07044752B2167485042CD7EC","0199d603-dc67-78ec-bca2-4bdddfd134ba","0199d5ef-c7d4-7cab-a194-b2c3afbaf8e8","","18620","","{""Q0"":3}","5","1","surprise_rating","","[0]"
"","","","","","survey-likert","123","888584","0.0-99.0","52F4EFBE07044752B2167485042CD7EC","0199d603-dc67-78ec-bca2-4bdddfd134ba","0199d5ef-c7d4-7cab-a194-b2c3afbaf8e8","","1384","","{""Q0"":3}","5","1","enjoyment_rating","","[0]"
"","","","","","html-keyboard-response","124","894586","0.0-100.0","52F4EFBE07044752B2167485042CD7EC","0199d603-dc67-78ec-bca2-4bdddfd134ba","0199d5ef-c7d4-7cab-a194-b2c3afbaf8e8","","null","<div style=""display: flex; justify-content: center; align-items: center;"">
                     <img src=""images/other/blank.png"" style=""width: 300px; height: 300px;"" />
                   </div>","null","0","0","blank","",""
"","","","","","html-keyboard-response","125","901568","0.0-101.0","52F4EFBE07044752B2167485042CD7EC","0199d603-dc67-78ec-bca2-4bdddfd134ba","0199d5ef-c7d4-7cab-a194-b2c3afbaf8e8","","null","<div style=""display: flex; justify-content: center; align-items: center;"">
                     <img src=""images/causal/causal_series_6/causal_series_6_a.png"" style=""width: 300px; height: 300px;"" />
                   </div>","null","6","2","A","",""
"","","","","","html-keyboard-response","126","908581","0.0-102.0","52F4EFBE07044752B2167485042CD7EC","0199d603-dc67-78ec-bca2-4bdddfd134ba","0199d5ef-c7d4-7cab-a194-b2c3afbaf8e8","","null","<div style=""display: flex; justify-content: center; align-items: center;"">
                     <img src=""images/causal/causal_series_6/causal_series_6_b.png"" style=""width: 300px; height: 300px;"" />
                   </div>","null","6","2","B","",""
"","","","","","html-keyboard-response","127","915568","0.0-103.0","52F4EFBE07044752B2167485042CD7EC","0199d603-dc67-78ec-bca2-4bdddfd134ba","0199d5ef-c7d4-7cab-a194-b2c3afbaf8e8","","null","<div style=""display: flex; justify-content: center; align-items: center;"">
                     <img src=""images/causal/causal_series_6/causal_series_6_c.png"" style=""width: 300px; height: 300px;"" />
                   </div>","null","6","2","C","",""
"","","","","","html-button-response","128","992169","0.0-104.0","52F4EFBE07044752B2167485042CD7EC","0199d603-dc67-78ec-bca2-4bdddfd134ba","0199d5ef-c7d4-7cab-a194-b2c3afbaf8e8","","76600","
        <div style=""display: flex; justify-content: center; align-items: center;"">
          <img src=""images/red_deck_2.png"" style=""width: 300px; height: 300px; margin-right: 10px;"" />
          <img src=""images/blue_deck_1.png"" style=""width: 300px; height: 300px;"" />
        </div>","1","6","2","choice","1",""
"","","","","","html-keyboard-response","129","998173","0.0-105.0-1.0-0.0","52F4EFBE07044752B2167485042CD7EC","0199d603-dc67-78ec-bca2-4bdddfd134ba","0199d5ef-c7d4-7cab-a194-b2c3afbaf8e8","","null","<div style=""display: flex; justify-content: center; align-items: center;"">
                     <img src=""images/semantic/semantic_series_6/semantic_series_6_d.png"" style=""width: 300px; height: 300px;"" />
                   </div>","null","6","2","D","",""
"","","","","","html-keyboard-response","130","1004182","0.0-105.0-1.0-1.0","52F4EFBE07044752B2167485042CD7EC","0199d603-dc67-78ec-bca2-4bdddfd134ba","0199d5ef-c7d4-7cab-a194-b2c3afbaf8e8","","null","<div style=""display: flex; justify-content: center; align-items: center;"">
                     <img src=""images/semantic/semantic_series_6/semantic_series_6_e.png"" style=""width: 300px; height: 300px;"" />
                   </div>","null","6","2","E","",""
"","","","","","html-keyboard-response","131","1010190","0.0-105.0-1.0-2.0","52F4EFBE07044752B2167485042CD7EC","0199d603-dc67-78ec-bca2-4bdddfd134ba","0199d5ef-c7d4-7cab-a194-b2c3afbaf8e8","","null","<div style=""display: flex; justify-content: center; align-items: center;"">
                     <img src=""images/semantic/semantic_series_6/semantic_series_6_f.png"" style=""width: 300px; height: 300px;"" />
                   </div>","null","6","2","F","",""
"","","","","","survey-likert","132","1012182","0.0-106.0","52F4EFBE07044752B2167485042CD7EC","0199d603-dc67-78ec-bca2-4bdddfd134ba","0199d5ef-c7d4-7cab-a194-b2c3afbaf8e8","","1991","","{""Q0"":1}","6","2","surprise_rating","","[0]"
"","","","","","survey-likert","133","1014025","0.0-107.0","52F4EFBE07044752B2167485042CD7EC","0199d603-dc67-78ec-bca2-4bdddfd134ba","0199d5ef-c7d4-7cab-a194-b2c3afbaf8e8","","1843","","{""Q0"":2}","6","2","enjoyment_rating","","[0]"
"","","","","","html-keyboard-response","134","1020030","0.0-108.0","52F4EFBE07044752B2167485042CD7EC","0199d603-dc67-78ec-bca2-4bdddfd134ba","0199d5ef-c7d4-7cab-a194-b2c3afbaf8e8","","null","<div style=""display: flex; justify-content: center; align-items: center;"">
                     <img src=""images/other/blank.png"" style=""width: 300px; height: 300px;"" />
                   </div>","null","0","0","blank","",""
"","","","","","html-keyboard-response","135","1026033","0.0-109.0","52F4EFBE07044752B2167485042CD7EC","0199d603-dc67-78ec-bca2-4bdddfd134ba","0199d5ef-c7d4-7cab-a194-b2c3afbaf8e8","","null","<div style=""display: flex; justify-content: center; align-items: center;"">
                     <img src=""images/causal/causal_series_4/causal_series_4_a.png"" style=""width: 300px; height: 300px;"" />
                   </div>","null","4","1","A","",""
"","","","","","html-keyboard-response","136","1032037","0.0-110.0","52F4EFBE07044752B2167485042CD7EC","0199d603-dc67-78ec-bca2-4bdddfd134ba","0199d5ef-c7d4-7cab-a194-b2c3afbaf8e8","","null","<div style=""display: flex; justify-content: center; align-items: center;"">
                     <img src=""images/causal/causal_series_4/causal_series_4_b.png"" style=""width: 300px; height: 300px;"" />
                   </div>","null","4","1","B","",""
"","","","","","html-keyboard-response","137","1038041","0.0-111.0","52F4EFBE07044752B2167485042CD7EC","0199d603-dc67-78ec-bca2-4bdddfd134ba","0199d5ef-c7d4-7cab-a194-b2c3afbaf8e8","","null","<div style=""display: flex; justify-content: center; align-items: center;"">
                     <img src=""images/causal/causal_series_4/causal_series_4_c.png"" style=""width: 300px; height: 300px;"" />
                   </div>","null","4","1","C","",""
"","","","","","html-button-response","138","1038588","0.0-112.0","52F4EFBE07044752B2167485042CD7EC","0199d603-dc67-78ec-bca2-4bdddfd134ba","0199d5ef-c7d4-7cab-a194-b2c3afbaf8e8","","546","
        <div style=""display: flex; justify-content: center; align-items: center;"">
          <img src=""images/red_deck_2.png"" style=""width: 300px; height: 300px; margin-right: 10px;"" />
          <img src=""images/blue_deck_1.png"" style=""width: 300px; height: 300px;"" />
        </div>","0","4","1","choice","0",""
"","","","","","html-keyboard-response","139","1044602","0.0-113.0-0.0-0.0","52F4EFBE07044752B2167485042CD7EC","0199d603-dc67-78ec-bca2-4bdddfd134ba","0199d5ef-c7d4-7cab-a194-b2c3afbaf8e8","","null","<div style=""display: flex; justify-content: center; align-items: center;"">
                     <img src=""images/causal/causal_series_4/causal_series_4_d.png"" style=""width: 300px; height: 300px;"" />
                   </div>","null","4","1","D","",""
"","","","","","html-keyboard-response","140","1050617","0.0-113.0-0.0-1.0","52F4EFBE07044752B2167485042CD7EC","0199d603-dc67-78ec-bca2-4bdddfd134ba","0199d5ef-c7d4-7cab-a194-b2c3afbaf8e8","","null","<div style=""display: flex; justify-content: center; align-items: center;"">
                     <img src=""images/causal/causal_series_4/causal_series_4_e.png"" style=""width: 300px; height: 300px;"" />
                   </div>","null","4","1","E","",""
"","","","","","html-keyboard-response","141","1056618","0.0-113.0-0.0-2.0","52F4EFBE07044752B2167485042CD7EC","0199d603-dc67-78ec-bca2-4bdddfd134ba","0199d5ef-c7d4-7cab-a194-b2c3afbaf8e8","","null","<div style=""display: flex; justify-content: center; align-items: center;"">
                     <img src=""images/causal/causal_series_4/causal_series_4_f.png"" style=""width: 300px; height: 300px;"" />
                   </div>","null","4","1","F","",""
"","","","","","survey-likert","142","1057561","0.0-114.0","52F4EFBE07044752B2167485042CD7EC","0199d603-dc67-78ec-bca2-4bdddfd134ba","0199d5ef-c7d4-7cab-a194-b2c3afbaf8e8","","943","","{""Q0"":3}","4","1","surprise_rating","","[0]"
"","","","","","survey-likert","143","1058714","0.0-115.0","52F4EFBE07044752B2167485042CD7EC","0199d603-dc67-78ec-bca2-4bdddfd134ba","0199d5ef-c7d4-7cab-a194-b2c3afbaf8e8","","1153","","{""Q0"":4}","4","1","enjoyment_rating","","[0]"
"","","","","","html-keyboard-response","144","1065576","0.0-116.0","52F4EFBE07044752B2167485042CD7EC","0199d603-dc67-78ec-bca2-4bdddfd134ba","0199d5ef-c7d4-7cab-a194-b2c3afbaf8e8","","null","<div style=""display: flex; justify-content: center; align-items: center;"">
                     <img src=""images/other/blank.png"" style=""width: 300px; height: 300px;"" />
                   </div>","null","0","0","blank","",""
"","","","","","html-keyboard-response","145","1072576","0.0-117.0","52F4EFBE07044752B2167485042CD7EC","0199d603-dc67-78ec-bca2-4bdddfd134ba","0199d5ef-c7d4-7cab-a194-b2c3afbaf8e8","","null","<div style=""display: flex; justify-content: center; align-items: center;"">
                     <img src=""images/causal/causal_series_8/causal_series_8_a.png"" style=""width: 300px; height: 300px;"" />
                   </div>","null","8","1","A","",""
"","","","","","html-keyboard-response","146","1079582","0.0-118.0","52F4EFBE07044752B2167485042CD7EC","0199d603-dc67-78ec-bca2-4bdddfd134ba","0199d5ef-c7d4-7cab-a194-b2c3afbaf8e8","","null","<div style=""display: flex; justify-content: center; align-items: center;"">
                     <img src=""images/causal/causal_series_8/causal_series_8_b.png"" style=""width: 300px; height: 300px;"" />
                   </div>","null","8","1","B","",""
"","","","","","html-keyboard-response","147","1086081","0.0-119.0","52F4EFBE07044752B2167485042CD7EC","0199d603-dc67-78ec-bca2-4bdddfd134ba","0199d5ef-c7d4-7cab-a194-b2c3afbaf8e8","","null","<div style=""display: flex; justify-content: center; align-items: center;"">
                     <img src=""images/causal/causal_series_8/causal_series_8_c.png"" style=""width: 300px; height: 300px;"" />
                   </div>","null","8","1","C","",""
"","","","","","html-button-response","148","1087064","0.0-120.0","52F4EFBE07044752B2167485042CD7EC","0199d603-dc67-78ec-bca2-4bdddfd134ba","0199d5ef-c7d4-7cab-a194-b2c3afbaf8e8","","982","
        <div style=""display: flex; justify-content: center; align-items: center;"">
          <img src=""images/red_deck_2.png"" style=""width: 300px; height: 300px; margin-right: 10px;"" />
          <img src=""images/blue_deck_1.png"" style=""width: 300px; height: 300px;"" />
        </div>","0","8","1","choice","0",""
"","","","","","html-keyboard-response","149","1093067","0.0-121.0-0.0-0.0","52F4EFBE07044752B2167485042CD7EC","0199d603-dc67-78ec-bca2-4bdddfd134ba","0199d5ef-c7d4-7cab-a194-b2c3afbaf8e8","","null","<div style=""display: flex; justify-content: center; align-items: center;"">
                     <img src=""images/causal/causal_series_8/causal_series_8_d.png"" style=""width: 300px; height: 300px;"" />
                   </div>","null","8","1","D","",""
"","","","","","html-keyboard-response","150","1099082","0.0-121.0-0.0-1.0","52F4EFBE07044752B2167485042CD7EC","0199d603-dc67-78ec-bca2-4bdddfd134ba","0199d5ef-c7d4-7cab-a194-b2c3afbaf8e8","","null","<div style=""display: flex; justify-content: center; align-items: center;"">
                     <img src=""images/causal/causal_series_8/causal_series_8_e.png"" style=""width: 300px; height: 300px;"" />
                   </div>","null","8","1","E","",""
"","","","","","html-keyboard-response","151","1105094","0.0-121.0-0.0-2.0","52F4EFBE07044752B2167485042CD7EC","0199d603-dc67-78ec-bca2-4bdddfd134ba","0199d5ef-c7d4-7cab-a194-b2c3afbaf8e8","","null","<div style=""display: flex; justify-content: center; align-items: center;"">
                     <img src=""images/causal/causal_series_8/causal_series_8_f.png"" style=""width: 300px; height: 300px;"" />
                   </div>","null","8","1","F","",""
"","","","","","survey-likert","152","1107821","0.0-122.0","52F4EFBE07044752B2167485042CD7EC","0199d603-dc67-78ec-bca2-4bdddfd134ba","0199d5ef-c7d4-7cab-a194-b2c3afbaf8e8","","2726","","{""Q0"":3}","8","1","surprise_rating","","[0]"
"","","","","","survey-likert","153","1108719","0.0-123.0","52F4EFBE07044752B2167485042CD7EC","0199d603-dc67-78ec-bca2-4bdddfd134ba","0199d5ef-c7d4-7cab-a194-b2c3afbaf8e8","","898","","{""Q0"":2}","8","1","enjoyment_rating","","[0]"
"","","","","","html-keyboard-response","154","1114732","0.0-124.0","52F4EFBE07044752B2167485042CD7EC","0199d603-dc67-78ec-bca2-4bdddfd134ba","0199d5ef-c7d4-7cab-a194-b2c3afbaf8e8","","null","<div style=""display: flex; justify-content: center; align-items: center;"">
                     <img src=""images/other/blank.png"" style=""width: 300px; height: 300px;"" />
                   </div>","null","0","0","blank","",""
"","","","","","html-keyboard-response","155","1120735","0.0-125.0","52F4EFBE07044752B2167485042CD7EC","0199d603-dc67-78ec-bca2-4bdddfd134ba","0199d5ef-c7d4-7cab-a194-b2c3afbaf8e8","","null","<div style=""display: flex; justify-content: center; align-items: center;"">
                     <img src=""images/causal/causal_series_3/causal_series_3_a.png"" style=""width: 300px; height: 300px;"" />
                   </div>","null","3","2","A","",""
"","","","","","html-keyboard-response","156","1126738","0.0-126.0","52F4EFBE07044752B2167485042CD7EC","0199d603-dc67-78ec-bca2-4bdddfd134ba","0199d5ef-c7d4-7cab-a194-b2c3afbaf8e8","","null","<div style=""display: flex; justify-content: center; align-items: center;"">
                     <img src=""images/causal/causal_series_3/causal_series_3_b.png"" style=""width: 300px; height: 300px;"" />
                   </div>","null","3","2","B","",""
"","","","","","html-keyboard-response","157","1132741","0.0-127.0","52F4EFBE07044752B2167485042CD7EC","0199d603-dc67-78ec-bca2-4bdddfd134ba","0199d5ef-c7d4-7cab-a194-b2c3afbaf8e8","","null","<div style=""display: flex; justify-content: center; align-items: center;"">
                     <img src=""images/causal/causal_series_3/causal_series_3_c.png"" style=""width: 300px; height: 300px;"" />
                   </div>","null","3","2","C","",""
"","","","","","html-button-response","158","1135431","0.0-128.0","52F4EFBE07044752B2167485042CD7EC","0199d603-dc67-78ec-bca2-4bdddfd134ba","0199d5ef-c7d4-7cab-a194-b2c3afbaf8e8","","2689","
        <div style=""display: flex; justify-content: center; align-items: center;"">
          <img src=""images/red_deck_2.png"" style=""width: 300px; height: 300px; margin-right: 10px;"" />
          <img src=""images/blue_deck_1.png"" style=""width: 300px; height: 300px;"" />
        </div>","0","3","2","choice","0",""
"","","","","","html-keyboard-response","159","1141432","0.0-129.0-0.0-0.0","52F4EFBE07044752B2167485042CD7EC","0199d603-dc67-78ec-bca2-4bdddfd134ba","0199d5ef-c7d4-7cab-a194-b2c3afbaf8e8","","null","<div style=""display: flex; justify-content: center; align-items: center;"">
                     <img src=""images/causal/causal_series_3/causal_series_3_d.png"" style=""width: 300px; height: 300px;"" />
                   </div>","null","3","2","D","",""
"","","","","","html-keyboard-response","160","1147446","0.0-129.0-0.0-1.0","52F4EFBE07044752B2167485042CD7EC","0199d603-dc67-78ec-bca2-4bdddfd134ba","0199d5ef-c7d4-7cab-a194-b2c3afbaf8e8","","null","<div style=""display: flex; justify-content: center; align-items: center;"">
                     <img src=""images/causal/causal_series_3/causal_series_3_e.png"" style=""width: 300px; height: 300px;"" />
                   </div>","null","3","2","E","",""
"","","","","","html-keyboard-response","161","1153461","0.0-129.0-0.0-2.0","52F4EFBE07044752B2167485042CD7EC","0199d603-dc67-78ec-bca2-4bdddfd134ba","0199d5ef-c7d4-7cab-a194-b2c3afbaf8e8","","null","<div style=""display: flex; justify-content: center; align-items: center;"">
                     <img src=""images/causal/causal_series_3/causal_series_3_f.png"" style=""width: 300px; height: 300px;"" />
                   </div>","null","3","2","F","",""
"","","","","","survey-likert","162","1154665","0.0-130.0","52F4EFBE07044752B2167485042CD7EC","0199d603-dc67-78ec-bca2-4bdddfd134ba","0199d5ef-c7d4-7cab-a194-b2c3afbaf8e8","","1204","","{""Q0"":4}","3","2","surprise_rating","","[0]"
"","","","","","survey-likert","163","1156171","0.0-131.0","52F4EFBE07044752B2167485042CD7EC","0199d603-dc67-78ec-bca2-4bdddfd134ba","0199d5ef-c7d4-7cab-a194-b2c3afbaf8e8","","1506","","{""Q0"":3}","3","2","enjoyment_rating","","[0]"
"","","","","","html-keyboard-response","164","1162175","0.0-132.0","52F4EFBE07044752B2167485042CD7EC","0199d603-dc67-78ec-bca2-4bdddfd134ba","0199d5ef-c7d4-7cab-a194-b2c3afbaf8e8","","null","<div style=""display: flex; justify-content: center; align-items: center;"">
                     <img src=""images/other/blank.png"" style=""width: 300px; height: 300px;"" />
                   </div>","null","0","0","blank","",""
"","","","","","html-keyboard-response","165","1168186","0.0-133.0","52F4EFBE07044752B2167485042CD7EC","0199d603-dc67-78ec-bca2-4bdddfd134ba","0199d5ef-c7d4-7cab-a194-b2c3afbaf8e8","","null","<div style=""display: flex; justify-content: center; align-items: center;"">
                     <img src=""images/causal/causal_series_8/causal_series_8_a.png"" style=""width: 300px; height: 300px;"" />
                   </div>","null","8","2","A","",""
"","","","","","html-keyboard-response","166","1174576","0.0-134.0","52F4EFBE07044752B2167485042CD7EC","0199d603-dc67-78ec-bca2-4bdddfd134ba","0199d5ef-c7d4-7cab-a194-b2c3afbaf8e8","","null","<div style=""display: flex; justify-content: center; align-items: center;"">
                     <img src=""images/causal/causal_series_8/causal_series_8_b.png"" style=""width: 300px; height: 300px;"" />
                   </div>","null","8","2","B","",""
"","","","","","html-keyboard-response","167","1180589","0.0-135.0","52F4EFBE07044752B2167485042CD7EC","0199d603-dc67-78ec-bca2-4bdddfd134ba","0199d5ef-c7d4-7cab-a194-b2c3afbaf8e8","","null","<div style=""display: flex; justify-content: center; align-items: center;"">
                     <img src=""images/causal/causal_series_8/causal_series_8_c.png"" style=""width: 300px; height: 300px;"" />
                   </div>","null","8","2","C","",""
"","","","","","html-button-response","168","1182358","0.0-136.0","52F4EFBE07044752B2167485042CD7EC","0199d603-dc67-78ec-bca2-4bdddfd134ba","0199d5ef-c7d4-7cab-a194-b2c3afbaf8e8","","1769","
        <div style=""display: flex; justify-content: center; align-items: center;"">
          <img src=""images/red_deck_2.png"" style=""width: 300px; height: 300px; margin-right: 10px;"" />
          <img src=""images/blue_deck_1.png"" style=""width: 300px; height: 300px;"" />
        </div>","0","8","2","choice","0",""
"","","","","","html-keyboard-response","169","1188359","0.0-137.0-0.0-0.0","52F4EFBE07044752B2167485042CD7EC","0199d603-dc67-78ec-bca2-4bdddfd134ba","0199d5ef-c7d4-7cab-a194-b2c3afbaf8e8","","null","<div style=""display: flex; justify-content: center; align-items: center;"">
                     <img src=""images/causal/causal_series_8/causal_series_8_d.png"" style=""width: 300px; height: 300px;"" />
                   </div>","null","8","2","D","",""
"","","","","","html-keyboard-response","170","1194360","0.0-137.0-0.0-1.0","52F4EFBE07044752B2167485042CD7EC","0199d603-dc67-78ec-bca2-4bdddfd134ba","0199d5ef-c7d4-7cab-a194-b2c3afbaf8e8","","null","<div style=""display: flex; justify-content: center; align-items: center;"">
                     <img src=""images/causal/causal_series_8/causal_series_8_e.png"" style=""width: 300px; height: 300px;"" />
                   </div>","null","8","2","E","",""
"","","","","","html-keyboard-response","171","1200362","0.0-137.0-0.0-2.0","52F4EFBE07044752B2167485042CD7EC","0199d603-dc67-78ec-bca2-4bdddfd134ba","0199d5ef-c7d4-7cab-a194-b2c3afbaf8e8","","null","<div style=""display: flex; justify-content: center; align-items: center;"">
                     <img src=""images/causal/causal_series_8/causal_series_8_f.png"" style=""width: 300px; height: 300px;"" />
                   </div>","null","8","2","F","",""
"","","","","","survey-likert","172","1201392","0.0-138.0","52F4EFBE07044752B2167485042CD7EC","0199d603-dc67-78ec-bca2-4bdddfd134ba","0199d5ef-c7d4-7cab-a194-b2c3afbaf8e8","","1029","","{""Q0"":3}","8","2","surprise_rating","","[0]"
"","","","","","survey-likert","173","1202414","0.0-139.0","52F4EFBE07044752B2167485042CD7EC","0199d603-dc67-78ec-bca2-4bdddfd134ba","0199d5ef-c7d4-7cab-a194-b2c3afbaf8e8","","1021","","{""Q0"":3}","8","2","enjoyment_rating","","[0]"
"","","","","","html-keyboard-response","174","1208416","0.0-140.0","52F4EFBE07044752B2167485042CD7EC","0199d603-dc67-78ec-bca2-4bdddfd134ba","0199d5ef-c7d4-7cab-a194-b2c3afbaf8e8","","null","<div style=""display: flex; justify-content: center; align-items: center;"">
                     <img src=""images/other/blank.png"" style=""width: 300px; height: 300px;"" />
                   </div>","null","0","0","blank","",""
"","","","","","html-keyboard-response","175","1214424","0.0-141.0","52F4EFBE07044752B2167485042CD7EC","0199d603-dc67-78ec-bca2-4bdddfd134ba","0199d5ef-c7d4-7cab-a194-b2c3afbaf8e8","","null","<div style=""display: flex; justify-content: center; align-items: center;"">
                     <img src=""images/causal/causal_series_1/causal_series_1_a.png"" style=""width: 300px; height: 300px;"" />
                   </div>","null","1","2","A","",""
"","","","","","html-keyboard-response","176","1220434","0.0-142.0","52F4EFBE07044752B2167485042CD7EC","0199d603-dc67-78ec-bca2-4bdddfd134ba","0199d5ef-c7d4-7cab-a194-b2c3afbaf8e8","","null","<div style=""display: flex; justify-content: center; align-items: center;"">
                     <img src=""images/causal/causal_series_1/causal_series_1_b.png"" style=""width: 300px; height: 300px;"" />
                   </div>","null","1","2","B","",""
"","","","","","html-keyboard-response","177","1226449","0.0-143.0","52F4EFBE07044752B2167485042CD7EC","0199d603-dc67-78ec-bca2-4bdddfd134ba","0199d5ef-c7d4-7cab-a194-b2c3afbaf8e8","","null","<div style=""display: flex; justify-content: center; align-items: center;"">
                     <img src=""images/causal/causal_series_1/causal_series_1_c.png"" style=""width: 300px; height: 300px;"" />
                   </div>","null","1","2","C","",""
"","","","","","html-button-response","178","1228872","0.0-144.0","52F4EFBE07044752B2167485042CD7EC","0199d603-dc67-78ec-bca2-4bdddfd134ba","0199d5ef-c7d4-7cab-a194-b2c3afbaf8e8","","2422","
        <div style=""display: flex; justify-content: center; align-items: center;"">
          <img src=""images/red_deck_2.png"" style=""width: 300px; height: 300px; margin-right: 10px;"" />
          <img src=""images/blue_deck_1.png"" style=""width: 300px; height: 300px;"" />
        </div>","1","1","2","choice","1",""
"","","","","","html-keyboard-response","179","1234887","0.0-145.0-1.0-0.0","52F4EFBE07044752B2167485042CD7EC","0199d603-dc67-78ec-bca2-4bdddfd134ba","0199d5ef-c7d4-7cab-a194-b2c3afbaf8e8","","null","<div style=""display: flex; justify-content: center; align-items: center;"">
                     <img src=""images/semantic/semantic_series_1/semantic_series_1_d.png"" style=""width: 300px; height: 300px;"" />
                   </div>","null","1","2","D","",""
"","","","","","html-keyboard-response","180","1240894","0.0-145.0-1.0-1.0","52F4EFBE07044752B2167485042CD7EC","0199d603-dc67-78ec-bca2-4bdddfd134ba","0199d5ef-c7d4-7cab-a194-b2c3afbaf8e8","","null","<div style=""display: flex; justify-content: center; align-items: center;"">
                     <img src=""images/semantic/semantic_series_1/semantic_series_1_e.png"" style=""width: 300px; height: 300px;"" />
                   </div>","null","1","2","E","",""
"","","","","","html-keyboard-response","181","1246907","0.0-145.0-1.0-2.0","52F4EFBE07044752B2167485042CD7EC","0199d603-dc67-78ec-bca2-4bdddfd134ba","0199d5ef-c7d4-7cab-a194-b2c3afbaf8e8","","null","<div style=""display: flex; justify-content: center; align-items: center;"">
                     <img src=""images/semantic/semantic_series_1/semantic_series_1_f.png"" style=""width: 300px; height: 300px;"" />
                   </div>","null","1","2","F","",""
"","","","","","survey-likert","182","1248504","0.0-146.0","52F4EFBE07044752B2167485042CD7EC","0199d603-dc67-78ec-bca2-4bdddfd134ba","0199d5ef-c7d4-7cab-a194-b2c3afbaf8e8","","1597","","{""Q0"":2}","1","2","surprise_rating","","[0]"
"","","","","","survey-likert","183","1249494","0.0-147.0","52F4EFBE07044752B2167485042CD7EC","0199d603-dc67-78ec-bca2-4bdddfd134ba","0199d5ef-c7d4-7cab-a194-b2c3afbaf8e8","","989","","{""Q0"":2}","1","2","enjoyment_rating","","[0]"
"","","","","","html-keyboard-response","184","1255509","0.0-148.0","52F4EFBE07044752B2167485042CD7EC","0199d603-dc67-78ec-bca2-4bdddfd134ba","0199d5ef-c7d4-7cab-a194-b2c3afbaf8e8","","null","<div style=""display: flex; justify-content: center; align-items: center;"">
                     <img src=""images/other/blank.png"" style=""width: 300px; height: 300px;"" />
                   </div>","null","0","0","blank","",""
"","","","","","html-keyboard-response","185","1261516","0.0-149.0","52F4EFBE07044752B2167485042CD7EC","0199d603-dc67-78ec-bca2-4bdddfd134ba","0199d5ef-c7d4-7cab-a194-b2c3afbaf8e8","","null","<div style=""display: flex; justify-content: center; align-items: center;"">
                     <img src=""images/causal/causal_series_4/causal_series_4_a.png"" style=""width: 300px; height: 300px;"" />
                   </div>","null","4","2","A","",""
"","","","","","html-keyboard-response","186","1267522","0.0-150.0","52F4EFBE07044752B2167485042CD7EC","0199d603-dc67-78ec-bca2-4bdddfd134ba","0199d5ef-c7d4-7cab-a194-b2c3afbaf8e8","","null","<div style=""display: flex; justify-content: center; align-items: center;"">
                     <img src=""images/causal/causal_series_4/causal_series_4_b.png"" style=""width: 300px; height: 300px;"" />
                   </div>","null","4","2","B","",""
"","","","","","html-keyboard-response","187","1273523","0.0-151.0","52F4EFBE07044752B2167485042CD7EC","0199d603-dc67-78ec-bca2-4bdddfd134ba","0199d5ef-c7d4-7cab-a194-b2c3afbaf8e8","","null","<div style=""display: flex; justify-content: center; align-items: center;"">
                     <img src=""images/causal/causal_series_4/causal_series_4_c.png"" style=""width: 300px; height: 300px;"" />
                   </div>","null","4","2","C","",""
"","","","","","html-button-response","188","1273937","0.0-152.0","52F4EFBE07044752B2167485042CD7EC","0199d603-dc67-78ec-bca2-4bdddfd134ba","0199d5ef-c7d4-7cab-a194-b2c3afbaf8e8","","413","
        <div style=""display: flex; justify-content: center; align-items: center;"">
          <img src=""images/red_deck_2.png"" style=""width: 300px; height: 300px; margin-right: 10px;"" />
          <img src=""images/blue_deck_1.png"" style=""width: 300px; height: 300px;"" />
        </div>","0","4","2","choice","0",""
"","","","","","html-keyboard-response","189","1279938","0.0-153.0-0.0-0.0","52F4EFBE07044752B2167485042CD7EC","0199d603-dc67-78ec-bca2-4bdddfd134ba","0199d5ef-c7d4-7cab-a194-b2c3afbaf8e8","","null","<div style=""display: flex; justify-content: center; align-items: center;"">
                     <img src=""images/causal/causal_series_4/causal_series_4_d.png"" style=""width: 300px; height: 300px;"" />
                   </div>","null","4","2","D","",""
"","","","","","html-keyboard-response","190","1285942","0.0-153.0-0.0-1.0","52F4EFBE07044752B2167485042CD7EC","0199d603-dc67-78ec-bca2-4bdddfd134ba","0199d5ef-c7d4-7cab-a194-b2c3afbaf8e8","","null","<div style=""display: flex; justify-content: center; align-items: center;"">
                     <img src=""images/causal/causal_series_4/causal_series_4_e.png"" style=""width: 300px; height: 300px;"" />
                   </div>","null","4","2","E","",""
"","","","","","html-keyboard-response","191","1291944","0.0-153.0-0.0-2.0","52F4EFBE07044752B2167485042CD7EC","0199d603-dc67-78ec-bca2-4bdddfd134ba","0199d5ef-c7d4-7cab-a194-b2c3afbaf8e8","","null","<div style=""display: flex; justify-content: center; align-items: center;"">
                     <img src=""images/causal/causal_series_4/causal_series_4_f.png"" style=""width: 300px; height: 300px;"" />
                   </div>","null","4","2","F","",""
"","","","","","survey-likert","192","1292640","0.0-154.0","52F4EFBE07044752B2167485042CD7EC","0199d603-dc67-78ec-bca2-4bdddfd134ba","0199d5ef-c7d4-7cab-a194-b2c3afbaf8e8","","695","","{""Q0"":2}","4","2","surprise_rating","","[0]"
"","","","","","survey-likert","193","1293270","0.0-155.0","52F4EFBE07044752B2167485042CD7EC","0199d603-dc67-78ec-bca2-4bdddfd134ba","0199d5ef-c7d4-7cab-a194-b2c3afbaf8e8","","630","","{""Q0"":2}","4","2","enjoyment_rating","","[0]"
"","","","","","html-keyboard-response","194","1299583","0.0-156.0","52F4EFBE07044752B2167485042CD7EC","0199d603-dc67-78ec-bca2-4bdddfd134ba","0199d5ef-c7d4-7cab-a194-b2c3afbaf8e8","","null","<div style=""display: flex; justify-content: center; align-items: center;"">
                     <img src=""images/other/blank.png"" style=""width: 300px; height: 300px;"" />
                   </div>","null","0","0","blank","",""
"","","","","","html-keyboard-response","195","1306574","0.0-157.0","52F4EFBE07044752B2167485042CD7EC","0199d603-dc67-78ec-bca2-4bdddfd134ba","0199d5ef-c7d4-7cab-a194-b2c3afbaf8e8","","null","<div style=""display: flex; justify-content: center; align-items: center;"">
                     <img src=""images/causal/causal_series_10/causal_series_10_a.png"" style=""width: 300px; height: 300px;"" />
                   </div>","null","10","1","A","",""
"","","","","","html-keyboard-response","196","1313568","0.0-158.0","52F4EFBE07044752B2167485042CD7EC","0199d603-dc67-78ec-bca2-4bdddfd134ba","0199d5ef-c7d4-7cab-a194-b2c3afbaf8e8","","null","<div style=""display: flex; justify-content: center; align-items: center;"">
                     <img src=""images/causal/causal_series_10/causal_series_10_b.png"" style=""width: 300px; height: 300px;"" />
                   </div>","null","10","1","B","",""
"","","","","","html-keyboard-response","197","1320575","0.0-159.0","52F4EFBE07044752B2167485042CD7EC","0199d603-dc67-78ec-bca2-4bdddfd134ba","0199d5ef-c7d4-7cab-a194-b2c3afbaf8e8","","null","<div style=""display: flex; justify-content: center; align-items: center;"">
                     <img src=""images/causal/causal_series_10/causal_series_10_c.png"" style=""width: 300px; height: 300px;"" />
                   </div>","null","10","1","C","",""
"","","","","","html-button-response","198","1491320","0.0-160.0","52F4EFBE07044752B2167485042CD7EC","0199d603-dc67-78ec-bca2-4bdddfd134ba","0199d5ef-c7d4-7cab-a194-b2c3afbaf8e8","","170744","
        <div style=""display: flex; justify-content: center; align-items: center;"">
          <img src=""images/red_deck_2.png"" style=""width: 300px; height: 300px; margin-right: 10px;"" />
          <img src=""images/blue_deck_1.png"" style=""width: 300px; height: 300px;"" />
        </div>","0","10","1","choice","0",""
"","","","","","html-keyboard-response","199","1497326","0.0-161.0-0.0-0.0","52F4EFBE07044752B2167485042CD7EC","0199d603-dc67-78ec-bca2-4bdddfd134ba","0199d5ef-c7d4-7cab-a194-b2c3afbaf8e8","","null","<div style=""display: flex; justify-content: center; align-items: center;"">
                     <img src=""images/causal/causal_series_10/causal_series_10_d.png"" style=""width: 300px; height: 300px;"" />
                   </div>","null","10","1","D","",""
"","","","","","html-keyboard-response","200","1503338","0.0-161.0-0.0-1.0","52F4EFBE07044752B2167485042CD7EC","0199d603-dc67-78ec-bca2-4bdddfd134ba","0199d5ef-c7d4-7cab-a194-b2c3afbaf8e8","","null","<div style=""display: flex; justify-content: center; align-items: center;"">
                     <img src=""images/causal/causal_series_10/causal_series_10_e.png"" style=""width: 300px; height: 300px;"" />
                   </div>","null","10","1","E","",""
"","","","","","html-keyboard-response","201","1509339","0.0-161.0-0.0-2.0","52F4EFBE07044752B2167485042CD7EC","0199d603-dc67-78ec-bca2-4bdddfd134ba","0199d5ef-c7d4-7cab-a194-b2c3afbaf8e8","","null","<div style=""display: flex; justify-content: center; align-items: center;"">
                     <img src=""images/causal/causal_series_10/causal_series_10_f.png"" style=""width: 300px; height: 300px;"" />
                   </div>","null","10","1","F","",""
"","","","","","survey-likert","202","1510495","0.0-162.0","52F4EFBE07044752B2167485042CD7EC","0199d603-dc67-78ec-bca2-4bdddfd134ba","0199d5ef-c7d4-7cab-a194-b2c3afbaf8e8","","1155","","{""Q0"":3}","10","1","surprise_rating","","[0]"
"","","","","","survey-likert","203","1511787","0.0-163.0","52F4EFBE07044752B2167485042CD7EC","0199d603-dc67-78ec-bca2-4bdddfd134ba","0199d5ef-c7d4-7cab-a194-b2c3afbaf8e8","","1292","","{""Q0"":4}","10","1","enjoyment_rating","","[0]"
"","","","","","html-keyboard-response","204","1517794","0.0-164.0","52F4EFBE07044752B2167485042CD7EC","0199d603-dc67-78ec-bca2-4bdddfd134ba","0199d5ef-c7d4-7cab-a194-b2c3afbaf8e8","","null","<div style=""display: flex; justify-content: center; align-items: center;"">
                     <img src=""images/other/blank.png"" style=""width: 300px; height: 300px;"" />
                   </div>","null","0","0","blank","",""
"","","","","","survey-text","205","1528105","0.0-165.0","52F4EFBE07044752B2167485042CD7EC","0199d603-dc67-78ec-bca2-4bdddfd134ba","0199d5ef-c7d4-7cab-a194-b2c3afbaf8e8","","10309","","{""Q0"":""One is more in line with the scenario and one is more random""}","","","","",""
"","","","","","html-button-response","206","1533288","0.0-166.0","52F4EFBE07044752B2167485042CD7EC","0199d603-dc67-78ec-bca2-4bdddfd134ba","0199d5ef-c7d4-7cab-a194-b2c3afbaf8e8","","5183","Which color deck do the following sentences continue the story from?","0","","","","",""
"","","","","","html-button-response","207","1534244","0.0-167.0","52F4EFBE07044752B2167485042CD7EC","0199d603-dc67-78ec-bca2-4bdddfd134ba","0199d5ef-c7d4-7cab-a194-b2c3afbaf8e8","","956","Which color deck do the following sentences NOT follow the story from?","1","","","","",""
"","","","","","html-button-response","208","1539509","0.0-168.0","52F4EFBE07044752B2167485042CD7EC","0199d603-dc67-78ec-bca2-4bdddfd134ba","0199d5ef-c7d4-7cab-a194-b2c3afbaf8e8","","5265","Which type of deck did you prefer overall?","0","","","","",""
"","","","","","survey-text","209","1546840","0.0-169.0","52F4EFBE07044752B2167485042CD7EC","0199d603-dc67-78ec-bca2-4bdddfd134ba","0199d5ef-c7d4-7cab-a194-b2c3afbaf8e8","","7329","","{""Q0"":""MALE"",""Q1"":""22""}","","","","",""
"","","","","","instructions","210","1560077","0.0-170.0","52F4EFBE07044752B2167485042CD7EC","0199d603-dc67-78ec-bca2-4bdddfd134ba","0199d5ef-c7d4-7cab-a194-b2c3afbaf8e8","[{""page_index"":0,""viewing_time"":13236}]","13236","","","","","","",""
