"success","timeout","failed_images","failed_audio","failed_video","trial_type","trial_index","time_elapsed","internal_node_id","subject_id","study_id","session_id","view_history","rt","stimulus","response","choice"
"true","false","[]","[]","[]","preload","0","11337","0.0-0.0","354ABD0E612443A39863AACB1A90A111","e6e9dac8-4f6a-4514-893a-c83fa21a3f8a","61e1ec61-13c7-4a8f-bf47-a91ec9909364","","","","",""
"","","","","","instructions","1","14233","0.0-1.0","354ABD0E612443A39863AACB1A90A111","e6e9dac8-4f6a-4514-893a-c83fa21a3f8a","61e1ec61-13c7-4a8f-bf47-a91ec9909364","[{""page_index"":0,""viewing_time"":2895}]","2895","","",""
"","","","","","instructions","2","45184","0.0-2.0","354ABD0E612443A39863AACB1A90A111","e6e9dac8-4f6a-4514-893a-c83fa21a3f8a","61e1ec61-13c7-4a8f-bf47-a91ec9909364","[{""page_index"":0,""viewing_time"":30950}]","30950","","",""
"true","","","","","fullscreen","3","49185","0.0-3.0","354ABD0E612443A39863AACB1A90A111","e6e9dac8-4f6a-4514-893a-c83fa21a3f8a","61e1ec61-13c7-4a8f-bf47-a91ec9909364","","2993","","",""
"","","","","","instructions","4","70335","0.0-4.0","354ABD0E612443A39863AACB1A90A111","e6e9dac8-4f6a-4514-893a-c83fa21a3f8a","61e1ec61-13c7-4a8f-bf47-a91ec9909364","[{""page_index"":0,""viewing_time"":21150}]","21150","","",""
"","","","","","html-keyboard-response","5","73338","0.0-5.0","354ABD0E612443A39863AACB1A90A111","e6e9dac8-4f6a-4514-893a-c83fa21a3f8a","61e1ec61-13c7-4a8f-bf47-a91ec9909364","","null","<div style=""display: flex; justify-content: center; align-items: center;"">
                <img src=""images/causal/causal_series_11/causal_series_11_a.jpg"" style=""width: 300px; height: 300px;"" />
              </div>","null",""
"","","","","","html-keyboard-response","6","76340","0.0-6.0","354ABD0E612443A39863AACB1A90A111","e6e9dac8-4f6a-4514-893a-c83fa21a3f8a","61e1ec61-13c7-4a8f-bf47-a91ec9909364","","null","<div style=""display: flex; justify-content: center; align-items: center;"">
                <img src=""images/causal/causal_series_11/causal_series_11_b.jpg"" style=""width: 300px; height: 300px;"" />
              </div>","null",""
"","","","","","html-keyboard-response","7","79343","0.0-7.0","354ABD0E612443A39863AACB1A90A111","e6e9dac8-4f6a-4514-893a-c83fa21a3f8a","61e1ec61-13c7-4a8f-bf47-a91ec9909364","","null","<div style=""display: flex; justify-content: center; align-items: center;"">
                <img src=""images/causal/causal_series_11/causal_series_11_c.jpg"" style=""width: 300px; height: 300px;"" />
              </div>","null",""
"","","","","","html-button-response","8","83521","0.0-8.0","354ABD0E612443A39863AACB1A90A111","e6e9dac8-4f6a-4514-893a-c83fa21a3f8a","61e1ec61-13c7-4a8f-bf47-a91ec9909364","","4177","
    <div style=""display: flex; justify-content: center; align-items: center;"">
      <img src=""images/red_deck_2.png"" style=""width: 300px; height: 300px; margin-right: 10px;"" />
      <img src=""images/blue_deck_1.png"" style=""width: 300px; height: 300px;"" />
    </div>","0","0"
"","","","","","html-keyboard-response","9","86523","0.0-9.0-0.0-0.0","354ABD0E612443A39863AACB1A90A111","e6e9dac8-4f6a-4514-893a-c83fa21a3f8a","61e1ec61-13c7-4a8f-bf47-a91ec9909364","","null","<div style=""display: flex; justify-content: center; align-items: center;"">
                <img src=""images/causal/causal_series_11/causal_series_11_d.jpg"" style=""width: 300px; height: 300px;"" />
              </div>","null",""
"","","","","","html-keyboard-response","10","89525","0.0-10.0","354ABD0E612443A39863AACB1A90A111","e6e9dac8-4f6a-4514-893a-c83fa21a3f8a","61e1ec61-13c7-4a8f-bf47-a91ec9909364","","null","<div style=""display: flex; justify-content: center; align-items: center;"">
                <img src=""images/other/blank.jpg"" style=""width: 300px; height: 300px;"" />
              </div>","null",""
"","","","","","html-keyboard-response","11","92527","0.0-11.0","354ABD0E612443A39863AACB1A90A111","e6e9dac8-4f6a-4514-893a-c83fa21a3f8a","61e1ec61-13c7-4a8f-bf47-a91ec9909364","","null","<div style=""display: flex; justify-content: center; align-items: center;"">
                <img src=""images/causal/causal_series_16/causal_series_16_a.jpg"" style=""width: 300px; height: 300px;"" />
              </div>","null",""
"","","","","","html-keyboard-response","12","95529","0.0-12.0","354ABD0E612443A39863AACB1A90A111","e6e9dac8-4f6a-4514-893a-c83fa21a3f8a","61e1ec61-13c7-4a8f-bf47-a91ec9909364","","null","<div style=""display: flex; justify-content: center; align-items: center;"">
                <img src=""images/causal/causal_series_16/causal_series_16_b.jpg"" style=""width: 300px; height: 300px;"" />
              </div>","null",""
"","","","","","html-keyboard-response","13","98531","0.0-13.0","354ABD0E612443A39863AACB1A90A111","e6e9dac8-4f6a-4514-893a-c83fa21a3f8a","61e1ec61-13c7-4a8f-bf47-a91ec9909364","","null","<div style=""display: flex; justify-content: center; align-items: center;"">
                <img src=""images/causal/causal_series_16/causal_series_16_c.jpg"" style=""width: 300px; height: 300px;"" />
              </div>","null",""
"","","","","","html-button-response","14","99802","0.0-14.0","354ABD0E612443A39863AACB1A90A111","e6e9dac8-4f6a-4514-893a-c83fa21a3f8a","61e1ec61-13c7-4a8f-bf47-a91ec9909364","","1269","
    <div style=""display: flex; justify-content: center; align-items: center;"">
      <img src=""images/red_deck_2.png"" style=""width: 300px; height: 300px; margin-right: 10px;"" />
      <img src=""images/blue_deck_1.png"" style=""width: 300px; height: 300px;"" />
    </div>","1","1"
"","","","","","html-keyboard-response","15","102804","0.0-15.0-1.0-0.0","354ABD0E612443A39863AACB1A90A111","e6e9dac8-4f6a-4514-893a-c83fa21a3f8a","61e1ec61-13c7-4a8f-bf47-a91ec9909364","","null","<div style=""display: flex; justify-content: center; align-items: center;"">
                <img src=""images/semantic/semantic_series_15/semantic_series_15_d.jpg"" style=""width: 300px; height: 300px;"" />
              </div>","null",""
"","","","","","html-keyboard-response","16","105805","0.0-16.0","354ABD0E612443A39863AACB1A90A111","e6e9dac8-4f6a-4514-893a-c83fa21a3f8a","61e1ec61-13c7-4a8f-bf47-a91ec9909364","","null","<div style=""display: flex; justify-content: center; align-items: center;"">
                <img src=""images/other/blank.jpg"" style=""width: 300px; height: 300px;"" />
              </div>","null",""
"","","","","","html-keyboard-response","17","108807","0.0-17.0","354ABD0E612443A39863AACB1A90A111","e6e9dac8-4f6a-4514-893a-c83fa21a3f8a","61e1ec61-13c7-4a8f-bf47-a91ec9909364","","null","<div style=""display: flex; justify-content: center; align-items: center;"">
                <img src=""images/causal/causal_series_17/causal_series_17_a.jpg"" style=""width: 300px; height: 300px;"" />
              </div>","null",""
"","","","","","html-keyboard-response","18","111809","0.0-18.0","354ABD0E612443A39863AACB1A90A111","e6e9dac8-4f6a-4514-893a-c83fa21a3f8a","61e1ec61-13c7-4a8f-bf47-a91ec9909364","","null","<div style=""display: flex; justify-content: center; align-items: center;"">
                <img src=""images/causal/causal_series_17/causal_series_17_b.jpg"" style=""width: 300px; height: 300px;"" />
              </div>","null",""
"","","","","","html-keyboard-response","19","114811","0.0-19.0","354ABD0E612443A39863AACB1A90A111","e6e9dac8-4f6a-4514-893a-c83fa21a3f8a","61e1ec61-13c7-4a8f-bf47-a91ec9909364","","null","<div style=""display: flex; justify-content: center; align-items: center;"">
                <img src=""images/causal/causal_series_17/causal_series_17_c.jpg"" style=""width: 300px; height: 300px;"" />
              </div>","null",""
"","","","","","html-button-response","20","115774","0.0-20.0","354ABD0E612443A39863AACB1A90A111","e6e9dac8-4f6a-4514-893a-c83fa21a3f8a","61e1ec61-13c7-4a8f-bf47-a91ec9909364","","962","
    <div style=""display: flex; justify-content: center; align-items: center;"">
      <img src=""images/red_deck_2.png"" style=""width: 300px; height: 300px; margin-right: 10px;"" />
      <img src=""images/blue_deck_1.png"" style=""width: 300px; height: 300px;"" />
    </div>","1","1"
"","","","","","html-keyboard-response","21","118776","0.0-21.0-1.0-0.0","354ABD0E612443A39863AACB1A90A111","e6e9dac8-4f6a-4514-893a-c83fa21a3f8a","61e1ec61-13c7-4a8f-bf47-a91ec9909364","","null","<div style=""display: flex; justify-content: center; align-items: center;"">
                <img src=""images/semantic/semantic_series_16/semantic_series_16_d.jpg"" style=""width: 300px; height: 300px;"" />
              </div>","null",""
"","","","","","html-keyboard-response","22","121779","0.0-22.0","354ABD0E612443A39863AACB1A90A111","e6e9dac8-4f6a-4514-893a-c83fa21a3f8a","61e1ec61-13c7-4a8f-bf47-a91ec9909364","","null","<div style=""display: flex; justify-content: center; align-items: center;"">
                <img src=""images/other/blank.jpg"" style=""width: 300px; height: 300px;"" />
              </div>","null",""
"","","","","","html-keyboard-response","23","124781","0.0-23.0","354ABD0E612443A39863AACB1A90A111","e6e9dac8-4f6a-4514-893a-c83fa21a3f8a","61e1ec61-13c7-4a8f-bf47-a91ec9909364","","null","<div style=""display: flex; justify-content: center; align-items: center;"">
                <img src=""images/causal/causal_series_5/causal_series_5_a.jpg"" style=""width: 300px; height: 300px;"" />
              </div>","null",""
"","","","","","html-keyboard-response","24","127783","0.0-24.0","354ABD0E612443A39863AACB1A90A111","e6e9dac8-4f6a-4514-893a-c83fa21a3f8a","61e1ec61-13c7-4a8f-bf47-a91ec9909364","","null","<div style=""display: flex; justify-content: center; align-items: center;"">
                <img src=""images/causal/causal_series_5/causal_series_5_b.jpg"" style=""width: 300px; height: 300px;"" />
              </div>","null",""
"","","","","","html-keyboard-response","25","130785","0.0-25.0","354ABD0E612443A39863AACB1A90A111","e6e9dac8-4f6a-4514-893a-c83fa21a3f8a","61e1ec61-13c7-4a8f-bf47-a91ec9909364","","null","<div style=""display: flex; justify-content: center; align-items: center;"">
                <img src=""images/causal/causal_series_5/causal_series_5_c.jpg"" style=""width: 300px; height: 300px;"" />
              </div>","null",""
"","","","","","html-button-response","26","132227","0.0-26.0","354ABD0E612443A39863AACB1A90A111","e6e9dac8-4f6a-4514-893a-c83fa21a3f8a","61e1ec61-13c7-4a8f-bf47-a91ec9909364","","1441","
    <div style=""display: flex; justify-content: center; align-items: center;"">
      <img src=""images/red_deck_2.png"" style=""width: 300px; height: 300px; margin-right: 10px;"" />
      <img src=""images/blue_deck_1.png"" style=""width: 300px; height: 300px;"" />
    </div>","0","0"
"","","","","","html-keyboard-response","27","135230","0.0-27.0-0.0-0.0","354ABD0E612443A39863AACB1A90A111","e6e9dac8-4f6a-4514-893a-c83fa21a3f8a","61e1ec61-13c7-4a8f-bf47-a91ec9909364","","null","<div style=""display: flex; justify-content: center; align-items: center;"">
                <img src=""images/causal/causal_series_5/causal_series_5_d.jpg"" style=""width: 300px; height: 300px;"" />
              </div>","null",""
"","","","","","html-keyboard-response","28","138232","0.0-28.0","354ABD0E612443A39863AACB1A90A111","e6e9dac8-4f6a-4514-893a-c83fa21a3f8a","61e1ec61-13c7-4a8f-bf47-a91ec9909364","","null","<div style=""display: flex; justify-content: center; align-items: center;"">
                <img src=""images/other/blank.jpg"" style=""width: 300px; height: 300px;"" />
              </div>","null",""
"","","","","","html-keyboard-response","29","141234","0.0-29.0","354ABD0E612443A39863AACB1A90A111","e6e9dac8-4f6a-4514-893a-c83fa21a3f8a","61e1ec61-13c7-4a8f-bf47-a91ec9909364","","null","<div style=""display: flex; justify-content: center; align-items: center;"">
                <img src=""images/causal/causal_series_8/causal_series_8_a.jpg"" style=""width: 300px; height: 300px;"" />
              </div>","null",""
"","","","","","html-keyboard-response","30","144236","0.0-30.0","354ABD0E612443A39863AACB1A90A111","e6e9dac8-4f6a-4514-893a-c83fa21a3f8a","61e1ec61-13c7-4a8f-bf47-a91ec9909364","","null","<div style=""display: flex; justify-content: center; align-items: center;"">
                <img src=""images/causal/causal_series_8/causal_series_8_b.jpg"" style=""width: 300px; height: 300px;"" />
              </div>","null",""
"","","","","","html-keyboard-response","31","147238","0.0-31.0","354ABD0E612443A39863AACB1A90A111","e6e9dac8-4f6a-4514-893a-c83fa21a3f8a","61e1ec61-13c7-4a8f-bf47-a91ec9909364","","null","<div style=""display: flex; justify-content: center; align-items: center;"">
                <img src=""images/causal/causal_series_8/causal_series_8_c.jpg"" style=""width: 300px; height: 300px;"" />
              </div>","null",""
"","","","","","html-button-response","32","149639","0.0-32.0","354ABD0E612443A39863AACB1A90A111","e6e9dac8-4f6a-4514-893a-c83fa21a3f8a","61e1ec61-13c7-4a8f-bf47-a91ec9909364","","2400","
    <div style=""display: flex; justify-content: center; align-items: center;"">
      <img src=""images/red_deck_2.png"" style=""width: 300px; height: 300px; margin-right: 10px;"" />
      <img src=""images/blue_deck_1.png"" style=""width: 300px; height: 300px;"" />
    </div>","1","1"
"","","","","","html-keyboard-response","33","152641","0.0-33.0-1.0-0.0","354ABD0E612443A39863AACB1A90A111","e6e9dac8-4f6a-4514-893a-c83fa21a3f8a","61e1ec61-13c7-4a8f-bf47-a91ec9909364","","null","<div style=""display: flex; justify-content: center; align-items: center;"">
                <img src=""images/semantic/semantic_series_7/semantic_series_7_d.jpg"" style=""width: 300px; height: 300px;"" />
              </div>","null",""
"","","","","","html-keyboard-response","34","155644","0.0-34.0","354ABD0E612443A39863AACB1A90A111","e6e9dac8-4f6a-4514-893a-c83fa21a3f8a","61e1ec61-13c7-4a8f-bf47-a91ec9909364","","null","<div style=""display: flex; justify-content: center; align-items: center;"">
                <img src=""images/other/blank.jpg"" style=""width: 300px; height: 300px;"" />
              </div>","null",""
"","","","","","html-keyboard-response","35","158646","0.0-35.0","354ABD0E612443A39863AACB1A90A111","e6e9dac8-4f6a-4514-893a-c83fa21a3f8a","61e1ec61-13c7-4a8f-bf47-a91ec9909364","","null","<div style=""display: flex; justify-content: center; align-items: center;"">
                <img src=""images/causal/causal_series_15/causal_series_15_a.jpg"" style=""width: 300px; height: 300px;"" />
              </div>","null",""
"","","","","","html-keyboard-response","36","161648","0.0-36.0","354ABD0E612443A39863AACB1A90A111","e6e9dac8-4f6a-4514-893a-c83fa21a3f8a","61e1ec61-13c7-4a8f-bf47-a91ec9909364","","null","<div style=""display: flex; justify-content: center; align-items: center;"">
                <img src=""images/causal/causal_series_15/causal_series_15_b.jpg"" style=""width: 300px; height: 300px;"" />
              </div>","null",""
"","","","","","html-keyboard-response","37","164650","0.0-37.0","354ABD0E612443A39863AACB1A90A111","e6e9dac8-4f6a-4514-893a-c83fa21a3f8a","61e1ec61-13c7-4a8f-bf47-a91ec9909364","","null","<div style=""display: flex; justify-content: center; align-items: center;"">
                <img src=""images/causal/causal_series_15/causal_series_15_c.jpg"" style=""width: 300px; height: 300px;"" />
              </div>","null",""
"","","","","","html-button-response","38","165654","0.0-38.0","354ABD0E612443A39863AACB1A90A111","e6e9dac8-4f6a-4514-893a-c83fa21a3f8a","61e1ec61-13c7-4a8f-bf47-a91ec9909364","","1003","
    <div style=""display: flex; justify-content: center; align-items: center;"">
      <img src=""images/red_deck_2.png"" style=""width: 300px; height: 300px; margin-right: 10px;"" />
      <img src=""images/blue_deck_1.png"" style=""width: 300px; height: 300px;"" />
    </div>","1","1"
"","","","","","html-keyboard-response","39","168656","0.0-39.0-1.0-0.0","354ABD0E612443A39863AACB1A90A111","e6e9dac8-4f6a-4514-893a-c83fa21a3f8a","61e1ec61-13c7-4a8f-bf47-a91ec9909364","","null","<div style=""display: flex; justify-content: center; align-items: center;"">
                <img src=""images/semantic/semantic_series_14/semantic_series_14_d.jpg"" style=""width: 300px; height: 300px;"" />
              </div>","null",""
"","","","","","html-keyboard-response","40","171658","0.0-40.0","354ABD0E612443A39863AACB1A90A111","e6e9dac8-4f6a-4514-893a-c83fa21a3f8a","61e1ec61-13c7-4a8f-bf47-a91ec9909364","","null","<div style=""display: flex; justify-content: center; align-items: center;"">
                <img src=""images/other/blank.jpg"" style=""width: 300px; height: 300px;"" />
              </div>","null",""
"","","","","","html-keyboard-response","41","174660","0.0-41.0","354ABD0E612443A39863AACB1A90A111","e6e9dac8-4f6a-4514-893a-c83fa21a3f8a","61e1ec61-13c7-4a8f-bf47-a91ec9909364","","null","<div style=""display: flex; justify-content: center; align-items: center;"">
                <img src=""images/causal/causal_series_9/causal_series_9_a.jpg"" style=""width: 300px; height: 300px;"" />
              </div>","null",""
"","","","","","html-keyboard-response","42","177662","0.0-42.0","354ABD0E612443A39863AACB1A90A111","e6e9dac8-4f6a-4514-893a-c83fa21a3f8a","61e1ec61-13c7-4a8f-bf47-a91ec9909364","","null","<div style=""display: flex; justify-content: center; align-items: center;"">
                <img src=""images/causal/causal_series_9/causal_series_9_b.jpg"" style=""width: 300px; height: 300px;"" />
              </div>","null",""
"","","","","","html-keyboard-response","43","180663","0.0-43.0","354ABD0E612443A39863AACB1A90A111","e6e9dac8-4f6a-4514-893a-c83fa21a3f8a","61e1ec61-13c7-4a8f-bf47-a91ec9909364","","null","<div style=""display: flex; justify-content: center; align-items: center;"">
                <img src=""images/causal/causal_series_9/causal_series_9_c.jpg"" style=""width: 300px; height: 300px;"" />
              </div>","null",""
"","","","","","html-button-response","44","182324","0.0-44.0","354ABD0E612443A39863AACB1A90A111","e6e9dac8-4f6a-4514-893a-c83fa21a3f8a","61e1ec61-13c7-4a8f-bf47-a91ec9909364","","1660","
    <div style=""display: flex; justify-content: center; align-items: center;"">
      <img src=""images/red_deck_2.png"" style=""width: 300px; height: 300px; margin-right: 10px;"" />
      <img src=""images/blue_deck_1.png"" style=""width: 300px; height: 300px;"" />
    </div>","1","1"
"","","","","","html-keyboard-response","45","185326","0.0-45.0-1.0-0.0","354ABD0E612443A39863AACB1A90A111","e6e9dac8-4f6a-4514-893a-c83fa21a3f8a","61e1ec61-13c7-4a8f-bf47-a91ec9909364","","null","<div style=""display: flex; justify-content: center; align-items: center;"">
                <img src=""images/semantic/semantic_series_8/semantic_series_8_d.jpg"" style=""width: 300px; height: 300px;"" />
              </div>","null",""
"","","","","","html-keyboard-response","46","188328","0.0-46.0","354ABD0E612443A39863AACB1A90A111","e6e9dac8-4f6a-4514-893a-c83fa21a3f8a","61e1ec61-13c7-4a8f-bf47-a91ec9909364","","null","<div style=""display: flex; justify-content: center; align-items: center;"">
                <img src=""images/other/blank.jpg"" style=""width: 300px; height: 300px;"" />
              </div>","null",""
"","","","","","html-keyboard-response","47","191330","0.0-47.0","354ABD0E612443A39863AACB1A90A111","e6e9dac8-4f6a-4514-893a-c83fa21a3f8a","61e1ec61-13c7-4a8f-bf47-a91ec9909364","","null","<div style=""display: flex; justify-content: center; align-items: center;"">
                <img src=""images/causal/causal_series_4/causal_series_4_a.jpg"" style=""width: 300px; height: 300px;"" />
              </div>","null",""
"","","","","","html-keyboard-response","48","194332","0.0-48.0","354ABD0E612443A39863AACB1A90A111","e6e9dac8-4f6a-4514-893a-c83fa21a3f8a","61e1ec61-13c7-4a8f-bf47-a91ec9909364","","null","<div style=""display: flex; justify-content: center; align-items: center;"">
                <img src=""images/causal/causal_series_4/causal_series_4_b.jpg"" style=""width: 300px; height: 300px;"" />
              </div>","null",""
"","","","","","html-keyboard-response","49","197335","0.0-49.0","354ABD0E612443A39863AACB1A90A111","e6e9dac8-4f6a-4514-893a-c83fa21a3f8a","61e1ec61-13c7-4a8f-bf47-a91ec9909364","","null","<div style=""display: flex; justify-content: center; align-items: center;"">
                <img src=""images/causal/causal_series_4/causal_series_4_c.jpg"" style=""width: 300px; height: 300px;"" />
              </div>","null",""
"","","","","","html-button-response","50","201318","0.0-50.0","354ABD0E612443A39863AACB1A90A111","e6e9dac8-4f6a-4514-893a-c83fa21a3f8a","61e1ec61-13c7-4a8f-bf47-a91ec9909364","","3983","
    <div style=""display: flex; justify-content: center; align-items: center;"">
      <img src=""images/red_deck_2.png"" style=""width: 300px; height: 300px; margin-right: 10px;"" />
      <img src=""images/blue_deck_1.png"" style=""width: 300px; height: 300px;"" />
    </div>","1","1"
"","","","","","html-keyboard-response","51","204321","0.0-51.0-1.0-0.0","354ABD0E612443A39863AACB1A90A111","e6e9dac8-4f6a-4514-893a-c83fa21a3f8a","61e1ec61-13c7-4a8f-bf47-a91ec9909364","","null","<div style=""display: flex; justify-content: center; align-items: center;"">
                <img src=""images/semantic/semantic_series_3/semantic_series_3_d.jpg"" style=""width: 300px; height: 300px;"" />
              </div>","null",""
"","","","","","html-keyboard-response","52","207322","0.0-52.0","354ABD0E612443A39863AACB1A90A111","e6e9dac8-4f6a-4514-893a-c83fa21a3f8a","61e1ec61-13c7-4a8f-bf47-a91ec9909364","","null","<div style=""display: flex; justify-content: center; align-items: center;"">
                <img src=""images/other/blank.jpg"" style=""width: 300px; height: 300px;"" />
              </div>","null",""
"","","","","","html-keyboard-response","53","210324","0.0-53.0","354ABD0E612443A39863AACB1A90A111","e6e9dac8-4f6a-4514-893a-c83fa21a3f8a","61e1ec61-13c7-4a8f-bf47-a91ec9909364","","null","<div style=""display: flex; justify-content: center; align-items: center;"">
                <img src=""images/causal/causal_series_18/causal_series_18_a.jpg"" style=""width: 300px; height: 300px;"" />
              </div>","null",""
"","","","","","html-keyboard-response","54","213327","0.0-54.0","354ABD0E612443A39863AACB1A90A111","e6e9dac8-4f6a-4514-893a-c83fa21a3f8a","61e1ec61-13c7-4a8f-bf47-a91ec9909364","","null","<div style=""display: flex; justify-content: center; align-items: center;"">
                <img src=""images/causal/causal_series_18/causal_series_18_b.jpg"" style=""width: 300px; height: 300px;"" />
              </div>","null",""
"","","","","","html-keyboard-response","55","216328","0.0-55.0","354ABD0E612443A39863AACB1A90A111","e6e9dac8-4f6a-4514-893a-c83fa21a3f8a","61e1ec61-13c7-4a8f-bf47-a91ec9909364","","null","<div style=""display: flex; justify-content: center; align-items: center;"">
                <img src=""images/causal/causal_series_18/causal_series_18_c.jpg"" style=""width: 300px; height: 300px;"" />
              </div>","null",""
"","","","","","html-button-response","56","217215","0.0-56.0","354ABD0E612443A39863AACB1A90A111","e6e9dac8-4f6a-4514-893a-c83fa21a3f8a","61e1ec61-13c7-4a8f-bf47-a91ec9909364","","886","
    <div style=""display: flex; justify-content: center; align-items: center;"">
      <img src=""images/red_deck_2.png"" style=""width: 300px; height: 300px; margin-right: 10px;"" />
      <img src=""images/blue_deck_1.png"" style=""width: 300px; height: 300px;"" />
    </div>","0","0"
"","","","","","html-keyboard-response","57","220217","0.0-57.0-0.0-0.0","354ABD0E612443A39863AACB1A90A111","e6e9dac8-4f6a-4514-893a-c83fa21a3f8a","61e1ec61-13c7-4a8f-bf47-a91ec9909364","","null","<div style=""display: flex; justify-content: center; align-items: center;"">
                <img src=""images/causal/causal_series_18/causal_series_18_d.jpg"" style=""width: 300px; height: 300px;"" />
              </div>","null",""
"","","","","","html-keyboard-response","58","223218","0.0-58.0","354ABD0E612443A39863AACB1A90A111","e6e9dac8-4f6a-4514-893a-c83fa21a3f8a","61e1ec61-13c7-4a8f-bf47-a91ec9909364","","null","<div style=""display: flex; justify-content: center; align-items: center;"">
                <img src=""images/other/blank.jpg"" style=""width: 300px; height: 300px;"" />
              </div>","null",""
"","","","","","html-keyboard-response","59","226220","0.0-59.0","354ABD0E612443A39863AACB1A90A111","e6e9dac8-4f6a-4514-893a-c83fa21a3f8a","61e1ec61-13c7-4a8f-bf47-a91ec9909364","","null","<div style=""display: flex; justify-content: center; align-items: center;"">
                <img src=""images/causal/causal_series_1/causal_series_1_a.jpg"" style=""width: 300px; height: 300px;"" />
              </div>","null",""
"","","","","","html-keyboard-response","60","229222","0.0-60.0","354ABD0E612443A39863AACB1A90A111","e6e9dac8-4f6a-4514-893a-c83fa21a3f8a","61e1ec61-13c7-4a8f-bf47-a91ec9909364","","null","<div style=""display: flex; justify-content: center; align-items: center;"">
                <img src=""images/causal/causal_series_1/causal_series_1_b.jpg"" style=""width: 300px; height: 300px;"" />
              </div>","null",""
"","","","","","html-keyboard-response","61","232223","0.0-61.0","354ABD0E612443A39863AACB1A90A111","e6e9dac8-4f6a-4514-893a-c83fa21a3f8a","61e1ec61-13c7-4a8f-bf47-a91ec9909364","","null","<div style=""display: flex; justify-content: center; align-items: center;"">
                <img src=""images/causal/causal_series_1/causal_series_1_c.jpg"" style=""width: 300px; height: 300px;"" />
              </div>","null",""
"","","","","","html-button-response","62","233634","0.0-62.0","354ABD0E612443A39863AACB1A90A111","e6e9dac8-4f6a-4514-893a-c83fa21a3f8a","61e1ec61-13c7-4a8f-bf47-a91ec9909364","","1410","
    <div style=""display: flex; justify-content: center; align-items: center;"">
      <img src=""images/red_deck_2.png"" style=""width: 300px; height: 300px; margin-right: 10px;"" />
      <img src=""images/blue_deck_1.png"" style=""width: 300px; height: 300px;"" />
    </div>","1","1"
"","","","","","html-keyboard-response","63","236636","0.0-63.0-1.0-0.0","354ABD0E612443A39863AACB1A90A111","e6e9dac8-4f6a-4514-893a-c83fa21a3f8a","61e1ec61-13c7-4a8f-bf47-a91ec9909364","","null","<div style=""display: flex; justify-content: center; align-items: center;"">
                <img src=""images/semantic/semantic_series_18/semantic_series_18_d.jpg"" style=""width: 300px; height: 300px;"" />
              </div>","null",""
"","","","","","html-keyboard-response","64","239638","0.0-64.0","354ABD0E612443A39863AACB1A90A111","e6e9dac8-4f6a-4514-893a-c83fa21a3f8a","61e1ec61-13c7-4a8f-bf47-a91ec9909364","","null","<div style=""display: flex; justify-content: center; align-items: center;"">
                <img src=""images/other/blank.jpg"" style=""width: 300px; height: 300px;"" />
              </div>","null",""
"","","","","","html-keyboard-response","65","242640","0.0-65.0","354ABD0E612443A39863AACB1A90A111","e6e9dac8-4f6a-4514-893a-c83fa21a3f8a","61e1ec61-13c7-4a8f-bf47-a91ec9909364","","null","<div style=""display: flex; justify-content: center; align-items: center;"">
                <img src=""images/causal/causal_series_3/causal_series_3_a.jpg"" style=""width: 300px; height: 300px;"" />
              </div>","null",""
"","","","","","html-keyboard-response","66","245642","0.0-66.0","354ABD0E612443A39863AACB1A90A111","e6e9dac8-4f6a-4514-893a-c83fa21a3f8a","61e1ec61-13c7-4a8f-bf47-a91ec9909364","","null","<div style=""display: flex; justify-content: center; align-items: center;"">
                <img src=""images/causal/causal_series_3/causal_series_3_b.jpg"" style=""width: 300px; height: 300px;"" />
              </div>","null",""
"","","","","","html-keyboard-response","67","248644","0.0-67.0","354ABD0E612443A39863AACB1A90A111","e6e9dac8-4f6a-4514-893a-c83fa21a3f8a","61e1ec61-13c7-4a8f-bf47-a91ec9909364","","null","<div style=""display: flex; justify-content: center; align-items: center;"">
                <img src=""images/causal/causal_series_3/causal_series_3_c.jpg"" style=""width: 300px; height: 300px;"" />
              </div>","null",""
"","","","","","html-button-response","68","258071","0.0-68.0","354ABD0E612443A39863AACB1A90A111","e6e9dac8-4f6a-4514-893a-c83fa21a3f8a","61e1ec61-13c7-4a8f-bf47-a91ec9909364","","9426","
    <div style=""display: flex; justify-content: center; align-items: center;"">
      <img src=""images/red_deck_2.png"" style=""width: 300px; height: 300px; margin-right: 10px;"" />
      <img src=""images/blue_deck_1.png"" style=""width: 300px; height: 300px;"" />
    </div>","1","1"
"","","","","","html-keyboard-response","69","261073","0.0-69.0-1.0-0.0","354ABD0E612443A39863AACB1A90A111","e6e9dac8-4f6a-4514-893a-c83fa21a3f8a","61e1ec61-13c7-4a8f-bf47-a91ec9909364","","null","<div style=""display: flex; justify-content: center; align-items: center;"">
                <img src=""images/semantic/semantic_series_2/semantic_series_2_d.jpg"" style=""width: 300px; height: 300px;"" />
              </div>","null",""
"","","","","","html-keyboard-response","70","264075","0.0-70.0","354ABD0E612443A39863AACB1A90A111","e6e9dac8-4f6a-4514-893a-c83fa21a3f8a","61e1ec61-13c7-4a8f-bf47-a91ec9909364","","null","<div style=""display: flex; justify-content: center; align-items: center;"">
                <img src=""images/other/blank.jpg"" style=""width: 300px; height: 300px;"" />
              </div>","null",""
"","","","","","html-keyboard-response","71","267077","0.0-71.0","354ABD0E612443A39863AACB1A90A111","e6e9dac8-4f6a-4514-893a-c83fa21a3f8a","61e1ec61-13c7-4a8f-bf47-a91ec9909364","","null","<div style=""display: flex; justify-content: center; align-items: center;"">
                <img src=""images/causal/causal_series_6/causal_series_6_a.jpg"" style=""width: 300px; height: 300px;"" />
              </div>","null",""
"","","","","","html-keyboard-response","72","270079","0.0-72.0","354ABD0E612443A39863AACB1A90A111","e6e9dac8-4f6a-4514-893a-c83fa21a3f8a","61e1ec61-13c7-4a8f-bf47-a91ec9909364","","null","<div style=""display: flex; justify-content: center; align-items: center;"">
                <img src=""images/causal/causal_series_6/causal_series_6_b.jpg"" style=""width: 300px; height: 300px;"" />
              </div>","null",""
"","","","","","html-keyboard-response","73","273081","0.0-73.0","354ABD0E612443A39863AACB1A90A111","e6e9dac8-4f6a-4514-893a-c83fa21a3f8a","61e1ec61-13c7-4a8f-bf47-a91ec9909364","","null","<div style=""display: flex; justify-content: center; align-items: center;"">
                <img src=""images/causal/causal_series_6/causal_series_6_c.jpg"" style=""width: 300px; height: 300px;"" />
              </div>","null",""
"","","","","","html-button-response","74","277901","0.0-74.0","354ABD0E612443A39863AACB1A90A111","e6e9dac8-4f6a-4514-893a-c83fa21a3f8a","61e1ec61-13c7-4a8f-bf47-a91ec9909364","","4819","
    <div style=""display: flex; justify-content: center; align-items: center;"">
      <img src=""images/red_deck_2.png"" style=""width: 300px; height: 300px; margin-right: 10px;"" />
      <img src=""images/blue_deck_1.png"" style=""width: 300px; height: 300px;"" />
    </div>","1","1"
"","","","","","html-keyboard-response","75","280903","0.0-75.0-1.0-0.0","354ABD0E612443A39863AACB1A90A111","e6e9dac8-4f6a-4514-893a-c83fa21a3f8a","61e1ec61-13c7-4a8f-bf47-a91ec9909364","","null","<div style=""display: flex; justify-content: center; align-items: center;"">
                <img src=""images/semantic/semantic_series_5/semantic_series_5_d.jpg"" style=""width: 300px; height: 300px;"" />
              </div>","null",""
"","","","","","html-keyboard-response","76","283904","0.0-76.0","354ABD0E612443A39863AACB1A90A111","e6e9dac8-4f6a-4514-893a-c83fa21a3f8a","61e1ec61-13c7-4a8f-bf47-a91ec9909364","","null","<div style=""display: flex; justify-content: center; align-items: center;"">
                <img src=""images/other/blank.jpg"" style=""width: 300px; height: 300px;"" />
              </div>","null",""
"","","","","","html-keyboard-response","77","286906","0.0-77.0","354ABD0E612443A39863AACB1A90A111","e6e9dac8-4f6a-4514-893a-c83fa21a3f8a","61e1ec61-13c7-4a8f-bf47-a91ec9909364","","null","<div style=""display: flex; justify-content: center; align-items: center;"">
                <img src=""images/causal/causal_series_12/causal_series_12_a.jpg"" style=""width: 300px; height: 300px;"" />
              </div>","null",""
"","","","","","html-keyboard-response","78","289907","0.0-78.0","354ABD0E612443A39863AACB1A90A111","e6e9dac8-4f6a-4514-893a-c83fa21a3f8a","61e1ec61-13c7-4a8f-bf47-a91ec9909364","","null","<div style=""display: flex; justify-content: center; align-items: center;"">
                <img src=""images/causal/causal_series_12/causal_series_12_b.jpg"" style=""width: 300px; height: 300px;"" />
              </div>","null",""
"","","","","","html-keyboard-response","79","292909","0.0-79.0","354ABD0E612443A39863AACB1A90A111","e6e9dac8-4f6a-4514-893a-c83fa21a3f8a","61e1ec61-13c7-4a8f-bf47-a91ec9909364","","null","<div style=""display: flex; justify-content: center; align-items: center;"">
                <img src=""images/causal/causal_series_12/causal_series_12_c.jpg"" style=""width: 300px; height: 300px;"" />
              </div>","null",""
"","","","","","html-button-response","80","295389","0.0-80.0","354ABD0E612443A39863AACB1A90A111","e6e9dac8-4f6a-4514-893a-c83fa21a3f8a","61e1ec61-13c7-4a8f-bf47-a91ec9909364","","2479","
    <div style=""display: flex; justify-content: center; align-items: center;"">
      <img src=""images/red_deck_2.png"" style=""width: 300px; height: 300px; margin-right: 10px;"" />
      <img src=""images/blue_deck_1.png"" style=""width: 300px; height: 300px;"" />
    </div>","1","1"
"","","","","","html-keyboard-response","81","298391","0.0-81.0-1.0-0.0","354ABD0E612443A39863AACB1A90A111","e6e9dac8-4f6a-4514-893a-c83fa21a3f8a","61e1ec61-13c7-4a8f-bf47-a91ec9909364","","null","<div style=""display: flex; justify-content: center; align-items: center;"">
                <img src=""images/semantic/semantic_series_11/semantic_series_11_d.jpg"" style=""width: 300px; height: 300px;"" />
              </div>","null",""
"","","","","","html-keyboard-response","82","301394","0.0-82.0","354ABD0E612443A39863AACB1A90A111","e6e9dac8-4f6a-4514-893a-c83fa21a3f8a","61e1ec61-13c7-4a8f-bf47-a91ec9909364","","null","<div style=""display: flex; justify-content: center; align-items: center;"">
                <img src=""images/other/blank.jpg"" style=""width: 300px; height: 300px;"" />
              </div>","null",""
"","","","","","html-keyboard-response","83","304396","0.0-83.0","354ABD0E612443A39863AACB1A90A111","e6e9dac8-4f6a-4514-893a-c83fa21a3f8a","61e1ec61-13c7-4a8f-bf47-a91ec9909364","","null","<div style=""display: flex; justify-content: center; align-items: center;"">
                <img src=""images/causal/causal_series_14/causal_series_14_a.jpg"" style=""width: 300px; height: 300px;"" />
              </div>","null",""
"","","","","","html-keyboard-response","84","307398","0.0-84.0","354ABD0E612443A39863AACB1A90A111","e6e9dac8-4f6a-4514-893a-c83fa21a3f8a","61e1ec61-13c7-4a8f-bf47-a91ec9909364","","null","<div style=""display: flex; justify-content: center; align-items: center;"">
                <img src=""images/causal/causal_series_14/causal_series_14_b.jpg"" style=""width: 300px; height: 300px;"" />
              </div>","null",""
"","","","","","html-keyboard-response","85","310400","0.0-85.0","354ABD0E612443A39863AACB1A90A111","e6e9dac8-4f6a-4514-893a-c83fa21a3f8a","61e1ec61-13c7-4a8f-bf47-a91ec9909364","","null","<div style=""display: flex; justify-content: center; align-items: center;"">
                <img src=""images/causal/causal_series_14/causal_series_14_c.jpg"" style=""width: 300px; height: 300px;"" />
              </div>","null",""
"","","","","","html-button-response","86","311483","0.0-86.0","354ABD0E612443A39863AACB1A90A111","e6e9dac8-4f6a-4514-893a-c83fa21a3f8a","61e1ec61-13c7-4a8f-bf47-a91ec9909364","","1082","
    <div style=""display: flex; justify-content: center; align-items: center;"">
      <img src=""images/red_deck_2.png"" style=""width: 300px; height: 300px; margin-right: 10px;"" />
      <img src=""images/blue_deck_1.png"" style=""width: 300px; height: 300px;"" />
    </div>","1","1"
"","","","","","html-keyboard-response","87","314485","0.0-87.0-1.0-0.0","354ABD0E612443A39863AACB1A90A111","e6e9dac8-4f6a-4514-893a-c83fa21a3f8a","61e1ec61-13c7-4a8f-bf47-a91ec9909364","","null","<div style=""display: flex; justify-content: center; align-items: center;"">
                <img src=""images/semantic/semantic_series_13/semantic_series_13_d.jpg"" style=""width: 300px; height: 300px;"" />
              </div>","null",""
"","","","","","html-keyboard-response","88","317487","0.0-88.0","354ABD0E612443A39863AACB1A90A111","e6e9dac8-4f6a-4514-893a-c83fa21a3f8a","61e1ec61-13c7-4a8f-bf47-a91ec9909364","","null","<div style=""display: flex; justify-content: center; align-items: center;"">
                <img src=""images/other/blank.jpg"" style=""width: 300px; height: 300px;"" />
              </div>","null",""
"","","","","","html-keyboard-response","89","320488","0.0-89.0","354ABD0E612443A39863AACB1A90A111","e6e9dac8-4f6a-4514-893a-c83fa21a3f8a","61e1ec61-13c7-4a8f-bf47-a91ec9909364","","null","<div style=""display: flex; justify-content: center; align-items: center;"">
                <img src=""images/causal/causal_series_10/causal_series_10_a.jpg"" style=""width: 300px; height: 300px;"" />
              </div>","null",""
"","","","","","html-keyboard-response","90","323490","0.0-90.0","354ABD0E612443A39863AACB1A90A111","e6e9dac8-4f6a-4514-893a-c83fa21a3f8a","61e1ec61-13c7-4a8f-bf47-a91ec9909364","","null","<div style=""display: flex; justify-content: center; align-items: center;"">
                <img src=""images/causal/causal_series_10/causal_series_10_b.jpg"" style=""width: 300px; height: 300px;"" />
              </div>","null",""
"","","","","","html-keyboard-response","91","326493","0.0-91.0","354ABD0E612443A39863AACB1A90A111","e6e9dac8-4f6a-4514-893a-c83fa21a3f8a","61e1ec61-13c7-4a8f-bf47-a91ec9909364","","null","<div style=""display: flex; justify-content: center; align-items: center;"">
                <img src=""images/causal/causal_series_10/causal_series_10_c.jpg"" style=""width: 300px; height: 300px;"" />
              </div>","null",""
"","","","","","html-button-response","92","328767","0.0-92.0","354ABD0E612443A39863AACB1A90A111","e6e9dac8-4f6a-4514-893a-c83fa21a3f8a","61e1ec61-13c7-4a8f-bf47-a91ec9909364","","2273","
    <div style=""display: flex; justify-content: center; align-items: center;"">
      <img src=""images/red_deck_2.png"" style=""width: 300px; height: 300px; margin-right: 10px;"" />
      <img src=""images/blue_deck_1.png"" style=""width: 300px; height: 300px;"" />
    </div>","0","0"
"","","","","","html-keyboard-response","93","331769","0.0-93.0-0.0-0.0","354ABD0E612443A39863AACB1A90A111","e6e9dac8-4f6a-4514-893a-c83fa21a3f8a","61e1ec61-13c7-4a8f-bf47-a91ec9909364","","null","<div style=""display: flex; justify-content: center; align-items: center;"">
                <img src=""images/causal/causal_series_10/causal_series_10_d.jpg"" style=""width: 300px; height: 300px;"" />
              </div>","null",""
"","","","","","html-keyboard-response","94","334771","0.0-94.0","354ABD0E612443A39863AACB1A90A111","e6e9dac8-4f6a-4514-893a-c83fa21a3f8a","61e1ec61-13c7-4a8f-bf47-a91ec9909364","","null","<div style=""display: flex; justify-content: center; align-items: center;"">
                <img src=""images/other/blank.jpg"" style=""width: 300px; height: 300px;"" />
              </div>","null",""
"","","","","","html-keyboard-response","95","337772","0.0-95.0","354ABD0E612443A39863AACB1A90A111","e6e9dac8-4f6a-4514-893a-c83fa21a3f8a","61e1ec61-13c7-4a8f-bf47-a91ec9909364","","null","<div style=""display: flex; justify-content: center; align-items: center;"">
                <img src=""images/causal/causal_series_7/causal_series_7_a.jpg"" style=""width: 300px; height: 300px;"" />
              </div>","null",""
"","","","","","html-keyboard-response","96","340774","0.0-96.0","354ABD0E612443A39863AACB1A90A111","e6e9dac8-4f6a-4514-893a-c83fa21a3f8a","61e1ec61-13c7-4a8f-bf47-a91ec9909364","","null","<div style=""display: flex; justify-content: center; align-items: center;"">
                <img src=""images/causal/causal_series_7/causal_series_7_b.jpg"" style=""width: 300px; height: 300px;"" />
              </div>","null",""
"","","","","","html-keyboard-response","97","343775","0.0-97.0","354ABD0E612443A39863AACB1A90A111","e6e9dac8-4f6a-4514-893a-c83fa21a3f8a","61e1ec61-13c7-4a8f-bf47-a91ec9909364","","null","<div style=""display: flex; justify-content: center; align-items: center;"">
                <img src=""images/causal/causal_series_7/causal_series_7_c.jpg"" style=""width: 300px; height: 300px;"" />
              </div>","null",""
"","","","","","html-button-response","98","347436","0.0-98.0","354ABD0E612443A39863AACB1A90A111","e6e9dac8-4f6a-4514-893a-c83fa21a3f8a","61e1ec61-13c7-4a8f-bf47-a91ec9909364","","3659","
    <div style=""display: flex; justify-content: center; align-items: center;"">
      <img src=""images/red_deck_2.png"" style=""width: 300px; height: 300px; margin-right: 10px;"" />
      <img src=""images/blue_deck_1.png"" style=""width: 300px; height: 300px;"" />
    </div>","1","1"
"","","","","","html-keyboard-response","99","350437","0.0-99.0-1.0-0.0","354ABD0E612443A39863AACB1A90A111","e6e9dac8-4f6a-4514-893a-c83fa21a3f8a","61e1ec61-13c7-4a8f-bf47-a91ec9909364","","null","<div style=""display: flex; justify-content: center; align-items: center;"">
                <img src=""images/semantic/semantic_series_6/semantic_series_6_d.jpg"" style=""width: 300px; height: 300px;"" />
              </div>","null",""
"","","","","","html-keyboard-response","100","353439","0.0-100.0","354ABD0E612443A39863AACB1A90A111","e6e9dac8-4f6a-4514-893a-c83fa21a3f8a","61e1ec61-13c7-4a8f-bf47-a91ec9909364","","null","<div style=""display: flex; justify-content: center; align-items: center;"">
                <img src=""images/other/blank.jpg"" style=""width: 300px; height: 300px;"" />
              </div>","null",""
"","","","","","html-keyboard-response","101","356442","0.0-101.0","354ABD0E612443A39863AACB1A90A111","e6e9dac8-4f6a-4514-893a-c83fa21a3f8a","61e1ec61-13c7-4a8f-bf47-a91ec9909364","","null","<div style=""display: flex; justify-content: center; align-items: center;"">
                <img src=""images/causal/causal_series_13/causal_series_13_a.jpg"" style=""width: 300px; height: 300px;"" />
              </div>","null",""
"","","","","","html-keyboard-response","102","359444","0.0-102.0","354ABD0E612443A39863AACB1A90A111","e6e9dac8-4f6a-4514-893a-c83fa21a3f8a","61e1ec61-13c7-4a8f-bf47-a91ec9909364","","null","<div style=""display: flex; justify-content: center; align-items: center;"">
                <img src=""images/causal/causal_series_13/causal_series_13_b.jpg"" style=""width: 300px; height: 300px;"" />
              </div>","null",""
"","","","","","html-keyboard-response","103","362446","0.0-103.0","354ABD0E612443A39863AACB1A90A111","e6e9dac8-4f6a-4514-893a-c83fa21a3f8a","61e1ec61-13c7-4a8f-bf47-a91ec9909364","","null","<div style=""display: flex; justify-content: center; align-items: center;"">
                <img src=""images/causal/causal_series_13/causal_series_13_c.jpg"" style=""width: 300px; height: 300px;"" />
              </div>","null",""
"","","","","","html-button-response","104","365574","0.0-104.0","354ABD0E612443A39863AACB1A90A111","e6e9dac8-4f6a-4514-893a-c83fa21a3f8a","61e1ec61-13c7-4a8f-bf47-a91ec9909364","","3126","
    <div style=""display: flex; justify-content: center; align-items: center;"">
      <img src=""images/red_deck_2.png"" style=""width: 300px; height: 300px; margin-right: 10px;"" />
      <img src=""images/blue_deck_1.png"" style=""width: 300px; height: 300px;"" />
    </div>","1","1"
"","","","","","html-keyboard-response","105","368576","0.0-105.0-1.0-0.0","354ABD0E612443A39863AACB1A90A111","e6e9dac8-4f6a-4514-893a-c83fa21a3f8a","61e1ec61-13c7-4a8f-bf47-a91ec9909364","","null","<div style=""display: flex; justify-content: center; align-items: center;"">
                <img src=""images/semantic/semantic_series_12/semantic_series_12_d.jpg"" style=""width: 300px; height: 300px;"" />
              </div>","null",""
"","","","","","html-keyboard-response","106","371578","0.0-106.0","354ABD0E612443A39863AACB1A90A111","e6e9dac8-4f6a-4514-893a-c83fa21a3f8a","61e1ec61-13c7-4a8f-bf47-a91ec9909364","","null","<div style=""display: flex; justify-content: center; align-items: center;"">
                <img src=""images/other/blank.jpg"" style=""width: 300px; height: 300px;"" />
              </div>","null",""
"","","","","","html-keyboard-response","107","374578","0.0-107.0","354ABD0E612443A39863AACB1A90A111","e6e9dac8-4f6a-4514-893a-c83fa21a3f8a","61e1ec61-13c7-4a8f-bf47-a91ec9909364","","null","<div style=""display: flex; justify-content: center; align-items: center;"">
                <img src=""images/causal/causal_series_2/causal_series_2_a.jpg"" style=""width: 300px; height: 300px;"" />
              </div>","null",""
"","","","","","html-keyboard-response","108","377580","0.0-108.0","354ABD0E612443A39863AACB1A90A111","e6e9dac8-4f6a-4514-893a-c83fa21a3f8a","61e1ec61-13c7-4a8f-bf47-a91ec9909364","","null","<div style=""display: flex; justify-content: center; align-items: center;"">
                <img src=""images/causal/causal_series_2/causal_series_2_b.jpg"" style=""width: 300px; height: 300px;"" />
              </div>","null",""
"","","","","","html-keyboard-response","109","380582","0.0-109.0","354ABD0E612443A39863AACB1A90A111","e6e9dac8-4f6a-4514-893a-c83fa21a3f8a","61e1ec61-13c7-4a8f-bf47-a91ec9909364","","null","<div style=""display: flex; justify-content: center; align-items: center;"">
                <img src=""images/causal/causal_series_2/causal_series_2_c.jpg"" style=""width: 300px; height: 300px;"" />
              </div>","null",""
"","","","","","html-button-response","110","382683","0.0-110.0","354ABD0E612443A39863AACB1A90A111","e6e9dac8-4f6a-4514-893a-c83fa21a3f8a","61e1ec61-13c7-4a8f-bf47-a91ec9909364","","2101","
    <div style=""display: flex; justify-content: center; align-items: center;"">
      <img src=""images/red_deck_2.png"" style=""width: 300px; height: 300px; margin-right: 10px;"" />
      <img src=""images/blue_deck_1.png"" style=""width: 300px; height: 300px;"" />
    </div>","1","1"
"","","","","","html-keyboard-response","111","385686","0.0-111.0-1.0-0.0","354ABD0E612443A39863AACB1A90A111","e6e9dac8-4f6a-4514-893a-c83fa21a3f8a","61e1ec61-13c7-4a8f-bf47-a91ec9909364","","null","<div style=""display: flex; justify-content: center; align-items: center;"">
                <img src=""images/semantic/semantic_series_1/semantic_series_1_d.jpg"" style=""width: 300px; height: 300px;"" />
              </div>","null",""
"","","","","","html-keyboard-response","112","388687","0.0-112.0","354ABD0E612443A39863AACB1A90A111","e6e9dac8-4f6a-4514-893a-c83fa21a3f8a","61e1ec61-13c7-4a8f-bf47-a91ec9909364","","null","<div style=""display: flex; justify-content: center; align-items: center;"">
                <img src=""images/other/blank.jpg"" style=""width: 300px; height: 300px;"" />
              </div>","null",""
"","","","","","survey-text","113","474462","0.0-113.0","354ABD0E612443A39863AACB1A90A111","e6e9dac8-4f6a-4514-893a-c83fa21a3f8a","61e1ec61-13c7-4a8f-bf47-a91ec9909364","","85770","","{""Q0"":""I didnt notice any difference between the 2, the storys seemed similiar or flowed with each. The only difference i noticed was one deck was red and one was blue.""}",""
"","","","","","survey-text","114","512942","0.0-114.0","354ABD0E612443A39863AACB1A90A111","e6e9dac8-4f6a-4514-893a-c83fa21a3f8a","61e1ec61-13c7-4a8f-bf47-a91ec9909364","","38478","","{""Q0"":""I didnt find either that interesting or even that different""}",""
"","","","","","html-button-response","115","536775","0.0-115.0","354ABD0E612443A39863AACB1A90A111","e6e9dac8-4f6a-4514-893a-c83fa21a3f8a","61e1ec61-13c7-4a8f-bf47-a91ec9909364","","23832","Which color deck does the fourth image continue the story from the series?","0",""
"","","","","","html-button-response","116","542907","0.0-116.0","354ABD0E612443A39863AACB1A90A111","e6e9dac8-4f6a-4514-893a-c83fa21a3f8a","61e1ec61-13c7-4a8f-bf47-a91ec9909364","","6131","Which color deck does the fourth image not follow the story from the series?","1",""
"","","","","","survey-text","117","554729","0.0-117.0","354ABD0E612443A39863AACB1A90A111","e6e9dac8-4f6a-4514-893a-c83fa21a3f8a","61e1ec61-13c7-4a8f-bf47-a91ec9909364","","11820","","{""Q0"":""Female"",""Q1"":""34""}",""
"","","","","","instructions","118","563697","0.0-118.0","354ABD0E612443A39863AACB1A90A111","e6e9dac8-4f6a-4514-893a-c83fa21a3f8a","61e1ec61-13c7-4a8f-bf47-a91ec9909364","[{""page_index"":0,""viewing_time"":8967}]","8968","","",""
