"success","timeout","failed_images","failed_audio","failed_video","trial_type","trial_index","time_elapsed","internal_node_id","subject_id","study_id","session_id","view_history","rt","stimulus","response","choice"
"true","false","[]","[]","[]","preload","0","221","0.0-0.0","5B686D7191734869B0BA7ABFB1CCC796","0199b0d1-b417-7a8b-9752-8bf76515dc2d","0199b0c2-d0d8-70ad-8364-a89a7c032361","","","","",""
"","","","","","instructions","1","50626","0.0-1.0","5B686D7191734869B0BA7ABFB1CCC796","0199b0d1-b417-7a8b-9752-8bf76515dc2d","0199b0c2-d0d8-70ad-8364-a89a7c032361","[{""page_index"":0,""viewing_time"":50403}]","50403","","",""
"","","","","","instructions","2","54757","0.0-2.0","5B686D7191734869B0BA7ABFB1CCC796","0199b0d1-b417-7a8b-9752-8bf76515dc2d","0199b0c2-d0d8-70ad-8364-a89a7c032361","[{""page_index"":0,""viewing_time"":4131}]","4131","","",""
"true","","","","","fullscreen","3","58179","0.0-3.0","5B686D7191734869B0BA7ABFB1CCC796","0199b0d1-b417-7a8b-9752-8bf76515dc2d","0199b0c2-d0d8-70ad-8364-a89a7c032361","","2407","","",""
"","","","","","instructions","4","106185","0.0-4.0","5B686D7191734869B0BA7ABFB1CCC796","0199b0d1-b417-7a8b-9752-8bf76515dc2d","0199b0c2-d0d8-70ad-8364-a89a7c032361","[{""page_index"":0,""viewing_time"":48004}]","48004","","",""
"","","","","","html-keyboard-response","5","113193","0.0-5.0","5B686D7191734869B0BA7ABFB1CCC796","0199b0d1-b417-7a8b-9752-8bf76515dc2d","0199b0c2-d0d8-70ad-8364-a89a7c032361","","null","<div style=""display: flex; justify-content: center; align-items: center;"">
                     <img src=""images/causal/causal_series_5/causal_series_5_a.png"" style=""width: 300px; height: 300px;"" />
                   </div>","null",""
"","","","","","html-button-response","6","117681","0.0-6.0","5B686D7191734869B0BA7ABFB1CCC796","0199b0d1-b417-7a8b-9752-8bf76515dc2d","0199b0c2-d0d8-70ad-8364-a89a7c032361","","4485","
        <div style=""display: flex; justify-content: center; align-items: center;"">
          <img src=""images/red_deck_2.png"" style=""width: 300px; height: 300px; margin-right: 10px;"" />
          <img src=""images/blue_deck_1.png"" style=""width: 300px; height: 300px;"" />
        </div>","0","0"
"","","","","","html-keyboard-response","7","124693","0.0-7.0-0.0-0.0","5B686D7191734869B0BA7ABFB1CCC796","0199b0d1-b417-7a8b-9752-8bf76515dc2d","0199b0c2-d0d8-70ad-8364-a89a7c032361","","null","<div style=""display: flex; justify-content: center; align-items: center;"">
                     <img src=""images/causal/causal_series_5/causal_series_5_b.png"" style=""width: 300px; height: 300px;"" />
                   </div>","null",""
"","","","","","html-keyboard-response","8","131704","0.0-7.0-0.0-1.0","5B686D7191734869B0BA7ABFB1CCC796","0199b0d1-b417-7a8b-9752-8bf76515dc2d","0199b0c2-d0d8-70ad-8364-a89a7c032361","","null","<div style=""display: flex; justify-content: center; align-items: center;"">
                     <img src=""images/causal/causal_series_5/causal_series_5_c.png"" style=""width: 300px; height: 300px;"" />
                   </div>","null",""
"","","","","","html-keyboard-response","9","138708","0.0-7.0-0.0-2.0","5B686D7191734869B0BA7ABFB1CCC796","0199b0d1-b417-7a8b-9752-8bf76515dc2d","0199b0c2-d0d8-70ad-8364-a89a7c032361","","null","<div style=""display: flex; justify-content: center; align-items: center;"">
                     <img src=""images/causal/causal_series_5/causal_series_5_d.png"" style=""width: 300px; height: 300px;"" />
                   </div>","null",""
"","","","","","html-keyboard-response","10","145713","0.0-8.0","5B686D7191734869B0BA7ABFB1CCC796","0199b0d1-b417-7a8b-9752-8bf76515dc2d","0199b0c2-d0d8-70ad-8364-a89a7c032361","","null","<div style=""display: flex; justify-content: center; align-items: center;"">
                     <img src=""images/other/blank.png"" style=""width: 300px; height: 300px;"" />
                   </div>","null",""
"","","","","","html-keyboard-response","11","152718","0.0-9.0","5B686D7191734869B0BA7ABFB1CCC796","0199b0d1-b417-7a8b-9752-8bf76515dc2d","0199b0c2-d0d8-70ad-8364-a89a7c032361","","null","<div style=""display: flex; justify-content: center; align-items: center;"">
                     <img src=""images/causal/causal_series_1/causal_series_1_a.png"" style=""width: 300px; height: 300px;"" />
                   </div>","null",""
"","","","","","html-button-response","12","155312","0.0-10.0","5B686D7191734869B0BA7ABFB1CCC796","0199b0d1-b417-7a8b-9752-8bf76515dc2d","0199b0c2-d0d8-70ad-8364-a89a7c032361","","2593","
        <div style=""display: flex; justify-content: center; align-items: center;"">
          <img src=""images/red_deck_2.png"" style=""width: 300px; height: 300px; margin-right: 10px;"" />
          <img src=""images/blue_deck_1.png"" style=""width: 300px; height: 300px;"" />
        </div>","1","1"
"","","","","","html-keyboard-response","13","162321","0.0-11.0-1.0-0.0","5B686D7191734869B0BA7ABFB1CCC796","0199b0d1-b417-7a8b-9752-8bf76515dc2d","0199b0c2-d0d8-70ad-8364-a89a7c032361","","null","<div style=""display: flex; justify-content: center; align-items: center;"">
                     <img src=""images/semantic/semantic_series_1/semantic_series_1_b.png"" style=""width: 300px; height: 300px;"" />
                   </div>","null",""
"","","","","","html-keyboard-response","14","169332","0.0-11.0-1.0-1.0","5B686D7191734869B0BA7ABFB1CCC796","0199b0d1-b417-7a8b-9752-8bf76515dc2d","0199b0c2-d0d8-70ad-8364-a89a7c032361","","null","<div style=""display: flex; justify-content: center; align-items: center;"">
                     <img src=""images/semantic/semantic_series_1/semantic_series_1_c.png"" style=""width: 300px; height: 300px;"" />
                   </div>","null",""
"","","","","","html-keyboard-response","15","176343","0.0-11.0-1.0-2.0","5B686D7191734869B0BA7ABFB1CCC796","0199b0d1-b417-7a8b-9752-8bf76515dc2d","0199b0c2-d0d8-70ad-8364-a89a7c032361","","null","<div style=""display: flex; justify-content: center; align-items: center;"">
                     <img src=""images/semantic/semantic_series_1/semantic_series_1_d.png"" style=""width: 300px; height: 300px;"" />
                   </div>","null",""
"","","","","","html-keyboard-response","16","183348","0.0-12.0","5B686D7191734869B0BA7ABFB1CCC796","0199b0d1-b417-7a8b-9752-8bf76515dc2d","0199b0c2-d0d8-70ad-8364-a89a7c032361","","null","<div style=""display: flex; justify-content: center; align-items: center;"">
                     <img src=""images/other/blank.png"" style=""width: 300px; height: 300px;"" />
                   </div>","null",""
"","","","","","html-keyboard-response","17","190364","0.0-13.0","5B686D7191734869B0BA7ABFB1CCC796","0199b0d1-b417-7a8b-9752-8bf76515dc2d","0199b0c2-d0d8-70ad-8364-a89a7c032361","","null","<div style=""display: flex; justify-content: center; align-items: center;"">
                     <img src=""images/causal/causal_series_4/causal_series_4_a.png"" style=""width: 300px; height: 300px;"" />
                   </div>","null",""
"","","","","","html-button-response","18","192488","0.0-14.0","5B686D7191734869B0BA7ABFB1CCC796","0199b0d1-b417-7a8b-9752-8bf76515dc2d","0199b0c2-d0d8-70ad-8364-a89a7c032361","","2122","
        <div style=""display: flex; justify-content: center; align-items: center;"">
          <img src=""images/red_deck_2.png"" style=""width: 300px; height: 300px; margin-right: 10px;"" />
          <img src=""images/blue_deck_1.png"" style=""width: 300px; height: 300px;"" />
        </div>","0","0"
"","","","","","html-keyboard-response","19","199494","0.0-15.0-0.0-0.0","5B686D7191734869B0BA7ABFB1CCC796","0199b0d1-b417-7a8b-9752-8bf76515dc2d","0199b0c2-d0d8-70ad-8364-a89a7c032361","","null","<div style=""display: flex; justify-content: center; align-items: center;"">
                     <img src=""images/causal/causal_series_4/causal_series_4_b.png"" style=""width: 300px; height: 300px;"" />
                   </div>","null",""
"","","","","","html-keyboard-response","20","206498","0.0-15.0-0.0-1.0","5B686D7191734869B0BA7ABFB1CCC796","0199b0d1-b417-7a8b-9752-8bf76515dc2d","0199b0c2-d0d8-70ad-8364-a89a7c032361","","null","<div style=""display: flex; justify-content: center; align-items: center;"">
                     <img src=""images/causal/causal_series_4/causal_series_4_c.png"" style=""width: 300px; height: 300px;"" />
                   </div>","null",""
"","","","","","html-keyboard-response","21","213514","0.0-15.0-0.0-2.0","5B686D7191734869B0BA7ABFB1CCC796","0199b0d1-b417-7a8b-9752-8bf76515dc2d","0199b0c2-d0d8-70ad-8364-a89a7c032361","","null","<div style=""display: flex; justify-content: center; align-items: center;"">
                     <img src=""images/causal/causal_series_4/causal_series_4_d.png"" style=""width: 300px; height: 300px;"" />
                   </div>","null",""
"","","","","","html-keyboard-response","22","220519","0.0-16.0","5B686D7191734869B0BA7ABFB1CCC796","0199b0d1-b417-7a8b-9752-8bf76515dc2d","0199b0c2-d0d8-70ad-8364-a89a7c032361","","null","<div style=""display: flex; justify-content: center; align-items: center;"">
                     <img src=""images/other/blank.png"" style=""width: 300px; height: 300px;"" />
                   </div>","null",""
"","","","","","html-keyboard-response","23","227535","0.0-17.0","5B686D7191734869B0BA7ABFB1CCC796","0199b0d1-b417-7a8b-9752-8bf76515dc2d","0199b0c2-d0d8-70ad-8364-a89a7c032361","","null","<div style=""display: flex; justify-content: center; align-items: center;"">
                     <img src=""images/causal/causal_series_10/causal_series_10_a.png"" style=""width: 300px; height: 300px;"" />
                   </div>","null",""
"","","","","","html-button-response","24","228985","0.0-18.0","5B686D7191734869B0BA7ABFB1CCC796","0199b0d1-b417-7a8b-9752-8bf76515dc2d","0199b0c2-d0d8-70ad-8364-a89a7c032361","","1449","
        <div style=""display: flex; justify-content: center; align-items: center;"">
          <img src=""images/red_deck_2.png"" style=""width: 300px; height: 300px; margin-right: 10px;"" />
          <img src=""images/blue_deck_1.png"" style=""width: 300px; height: 300px;"" />
        </div>","1","1"
"","","","","","html-keyboard-response","25","235996","0.0-19.0-1.0-0.0","5B686D7191734869B0BA7ABFB1CCC796","0199b0d1-b417-7a8b-9752-8bf76515dc2d","0199b0c2-d0d8-70ad-8364-a89a7c032361","","null","<div style=""display: flex; justify-content: center; align-items: center;"">
                     <img src=""images/semantic/semantic_series_10/semantic_series_10_b.png"" style=""width: 300px; height: 300px;"" />
                   </div>","null",""
"","","","","","html-keyboard-response","26","243008","0.0-19.0-1.0-1.0","5B686D7191734869B0BA7ABFB1CCC796","0199b0d1-b417-7a8b-9752-8bf76515dc2d","0199b0c2-d0d8-70ad-8364-a89a7c032361","","null","<div style=""display: flex; justify-content: center; align-items: center;"">
                     <img src=""images/semantic/semantic_series_10/semantic_series_10_c.png"" style=""width: 300px; height: 300px;"" />
                   </div>","null",""
"","","","","","html-keyboard-response","27","250011","0.0-19.0-1.0-2.0","5B686D7191734869B0BA7ABFB1CCC796","0199b0d1-b417-7a8b-9752-8bf76515dc2d","0199b0c2-d0d8-70ad-8364-a89a7c032361","","null","<div style=""display: flex; justify-content: center; align-items: center;"">
                     <img src=""images/semantic/semantic_series_10/semantic_series_10_d.png"" style=""width: 300px; height: 300px;"" />
                   </div>","null",""
"","","","","","html-keyboard-response","28","257027","0.0-20.0","5B686D7191734869B0BA7ABFB1CCC796","0199b0d1-b417-7a8b-9752-8bf76515dc2d","0199b0c2-d0d8-70ad-8364-a89a7c032361","","null","<div style=""display: flex; justify-content: center; align-items: center;"">
                     <img src=""images/other/blank.png"" style=""width: 300px; height: 300px;"" />
                   </div>","null",""
"","","","","","html-keyboard-response","29","264029","0.0-21.0","5B686D7191734869B0BA7ABFB1CCC796","0199b0d1-b417-7a8b-9752-8bf76515dc2d","0199b0c2-d0d8-70ad-8364-a89a7c032361","","null","<div style=""display: flex; justify-content: center; align-items: center;"">
                     <img src=""images/causal/causal_series_6/causal_series_6_a.png"" style=""width: 300px; height: 300px;"" />
                   </div>","null",""
"","","","","","html-button-response","30","265641","0.0-22.0","5B686D7191734869B0BA7ABFB1CCC796","0199b0d1-b417-7a8b-9752-8bf76515dc2d","0199b0c2-d0d8-70ad-8364-a89a7c032361","","1610","
        <div style=""display: flex; justify-content: center; align-items: center;"">
          <img src=""images/red_deck_2.png"" style=""width: 300px; height: 300px; margin-right: 10px;"" />
          <img src=""images/blue_deck_1.png"" style=""width: 300px; height: 300px;"" />
        </div>","0","0"
"","","","","","html-keyboard-response","31","272643","0.0-23.0-0.0-0.0","5B686D7191734869B0BA7ABFB1CCC796","0199b0d1-b417-7a8b-9752-8bf76515dc2d","0199b0c2-d0d8-70ad-8364-a89a7c032361","","null","<div style=""display: flex; justify-content: center; align-items: center;"">
                     <img src=""images/causal/causal_series_6/causal_series_6_b.png"" style=""width: 300px; height: 300px;"" />
                   </div>","null",""
"","","","","","html-keyboard-response","32","279646","0.0-23.0-0.0-1.0","5B686D7191734869B0BA7ABFB1CCC796","0199b0d1-b417-7a8b-9752-8bf76515dc2d","0199b0c2-d0d8-70ad-8364-a89a7c032361","","null","<div style=""display: flex; justify-content: center; align-items: center;"">
                     <img src=""images/causal/causal_series_6/causal_series_6_c.png"" style=""width: 300px; height: 300px;"" />
                   </div>","null",""
"","","","","","html-keyboard-response","33","286662","0.0-23.0-0.0-2.0","5B686D7191734869B0BA7ABFB1CCC796","0199b0d1-b417-7a8b-9752-8bf76515dc2d","0199b0c2-d0d8-70ad-8364-a89a7c032361","","null","<div style=""display: flex; justify-content: center; align-items: center;"">
                     <img src=""images/causal/causal_series_6/causal_series_6_d.png"" style=""width: 300px; height: 300px;"" />
                   </div>","null",""
"","","","","","html-keyboard-response","34","293673","0.0-24.0","5B686D7191734869B0BA7ABFB1CCC796","0199b0d1-b417-7a8b-9752-8bf76515dc2d","0199b0c2-d0d8-70ad-8364-a89a7c032361","","null","<div style=""display: flex; justify-content: center; align-items: center;"">
                     <img src=""images/other/blank.png"" style=""width: 300px; height: 300px;"" />
                   </div>","null",""
"","","","","","html-keyboard-response","35","300677","0.0-25.0","5B686D7191734869B0BA7ABFB1CCC796","0199b0d1-b417-7a8b-9752-8bf76515dc2d","0199b0c2-d0d8-70ad-8364-a89a7c032361","","null","<div style=""display: flex; justify-content: center; align-items: center;"">
                     <img src=""images/causal/causal_series_8/causal_series_8_a.png"" style=""width: 300px; height: 300px;"" />
                   </div>","null",""
"","","","","","html-button-response","36","302079","0.0-26.0","5B686D7191734869B0BA7ABFB1CCC796","0199b0d1-b417-7a8b-9752-8bf76515dc2d","0199b0c2-d0d8-70ad-8364-a89a7c032361","","1400","
        <div style=""display: flex; justify-content: center; align-items: center;"">
          <img src=""images/red_deck_2.png"" style=""width: 300px; height: 300px; margin-right: 10px;"" />
          <img src=""images/blue_deck_1.png"" style=""width: 300px; height: 300px;"" />
        </div>","0","0"
"","","","","","html-keyboard-response","37","309091","0.0-27.0-0.0-0.0","5B686D7191734869B0BA7ABFB1CCC796","0199b0d1-b417-7a8b-9752-8bf76515dc2d","0199b0c2-d0d8-70ad-8364-a89a7c032361","","null","<div style=""display: flex; justify-content: center; align-items: center;"">
                     <img src=""images/causal/causal_series_8/causal_series_8_b.png"" style=""width: 300px; height: 300px;"" />
                   </div>","null",""
"","","","","","html-keyboard-response","38","316104","0.0-27.0-0.0-1.0","5B686D7191734869B0BA7ABFB1CCC796","0199b0d1-b417-7a8b-9752-8bf76515dc2d","0199b0c2-d0d8-70ad-8364-a89a7c032361","","null","<div style=""display: flex; justify-content: center; align-items: center;"">
                     <img src=""images/causal/causal_series_8/causal_series_8_c.png"" style=""width: 300px; height: 300px;"" />
                   </div>","null",""
"","","","","","html-keyboard-response","39","323115","0.0-27.0-0.0-2.0","5B686D7191734869B0BA7ABFB1CCC796","0199b0d1-b417-7a8b-9752-8bf76515dc2d","0199b0c2-d0d8-70ad-8364-a89a7c032361","","null","<div style=""display: flex; justify-content: center; align-items: center;"">
                     <img src=""images/causal/causal_series_8/causal_series_8_d.png"" style=""width: 300px; height: 300px;"" />
                   </div>","null",""
"","","","","","html-keyboard-response","40","330122","0.0-28.0","5B686D7191734869B0BA7ABFB1CCC796","0199b0d1-b417-7a8b-9752-8bf76515dc2d","0199b0c2-d0d8-70ad-8364-a89a7c032361","","null","<div style=""display: flex; justify-content: center; align-items: center;"">
                     <img src=""images/other/blank.png"" style=""width: 300px; height: 300px;"" />
                   </div>","null",""
"","","","","","html-keyboard-response","41","337138","0.0-29.0","5B686D7191734869B0BA7ABFB1CCC796","0199b0d1-b417-7a8b-9752-8bf76515dc2d","0199b0c2-d0d8-70ad-8364-a89a7c032361","","null","<div style=""display: flex; justify-content: center; align-items: center;"">
                     <img src=""images/causal/causal_series_3/causal_series_3_a.png"" style=""width: 300px; height: 300px;"" />
                   </div>","null",""
"","","","","","html-button-response","42","338513","0.0-30.0","5B686D7191734869B0BA7ABFB1CCC796","0199b0d1-b417-7a8b-9752-8bf76515dc2d","0199b0c2-d0d8-70ad-8364-a89a7c032361","","1373","
        <div style=""display: flex; justify-content: center; align-items: center;"">
          <img src=""images/red_deck_2.png"" style=""width: 300px; height: 300px; margin-right: 10px;"" />
          <img src=""images/blue_deck_1.png"" style=""width: 300px; height: 300px;"" />
        </div>","0","0"
"","","","","","html-keyboard-response","43","345530","0.0-31.0-0.0-0.0","5B686D7191734869B0BA7ABFB1CCC796","0199b0d1-b417-7a8b-9752-8bf76515dc2d","0199b0c2-d0d8-70ad-8364-a89a7c032361","","null","<div style=""display: flex; justify-content: center; align-items: center;"">
                     <img src=""images/causal/causal_series_3/causal_series_3_b.png"" style=""width: 300px; height: 300px;"" />
                   </div>","null",""
"","","","","","html-keyboard-response","44","352535","0.0-31.0-0.0-1.0","5B686D7191734869B0BA7ABFB1CCC796","0199b0d1-b417-7a8b-9752-8bf76515dc2d","0199b0c2-d0d8-70ad-8364-a89a7c032361","","null","<div style=""display: flex; justify-content: center; align-items: center;"">
                     <img src=""images/causal/causal_series_3/causal_series_3_c.png"" style=""width: 300px; height: 300px;"" />
                   </div>","null",""
"","","","","","html-keyboard-response","45","359546","0.0-31.0-0.0-2.0","5B686D7191734869B0BA7ABFB1CCC796","0199b0d1-b417-7a8b-9752-8bf76515dc2d","0199b0c2-d0d8-70ad-8364-a89a7c032361","","null","<div style=""display: flex; justify-content: center; align-items: center;"">
                     <img src=""images/causal/causal_series_3/causal_series_3_d.png"" style=""width: 300px; height: 300px;"" />
                   </div>","null",""
"","","","","","html-keyboard-response","46","366562","0.0-32.0","5B686D7191734869B0BA7ABFB1CCC796","0199b0d1-b417-7a8b-9752-8bf76515dc2d","0199b0c2-d0d8-70ad-8364-a89a7c032361","","null","<div style=""display: flex; justify-content: center; align-items: center;"">
                     <img src=""images/other/blank.png"" style=""width: 300px; height: 300px;"" />
                   </div>","null",""
"","","","","","html-keyboard-response","47","373569","0.0-33.0","5B686D7191734869B0BA7ABFB1CCC796","0199b0d1-b417-7a8b-9752-8bf76515dc2d","0199b0c2-d0d8-70ad-8364-a89a7c032361","","null","<div style=""display: flex; justify-content: center; align-items: center;"">
                     <img src=""images/causal/causal_series_2/causal_series_2_a.png"" style=""width: 300px; height: 300px;"" />
                   </div>","null",""
"","","","","","html-button-response","48","375319","0.0-34.0","5B686D7191734869B0BA7ABFB1CCC796","0199b0d1-b417-7a8b-9752-8bf76515dc2d","0199b0c2-d0d8-70ad-8364-a89a7c032361","","1748","
        <div style=""display: flex; justify-content: center; align-items: center;"">
          <img src=""images/red_deck_2.png"" style=""width: 300px; height: 300px; margin-right: 10px;"" />
          <img src=""images/blue_deck_1.png"" style=""width: 300px; height: 300px;"" />
        </div>","0","0"
"","","","","","html-keyboard-response","49","382328","0.0-35.0-0.0-0.0","5B686D7191734869B0BA7ABFB1CCC796","0199b0d1-b417-7a8b-9752-8bf76515dc2d","0199b0c2-d0d8-70ad-8364-a89a7c032361","","null","<div style=""display: flex; justify-content: center; align-items: center;"">
                     <img src=""images/causal/causal_series_2/causal_series_2_b.png"" style=""width: 300px; height: 300px;"" />
                   </div>","null",""
"","","","","","html-keyboard-response","50","389338","0.0-35.0-0.0-1.0","5B686D7191734869B0BA7ABFB1CCC796","0199b0d1-b417-7a8b-9752-8bf76515dc2d","0199b0c2-d0d8-70ad-8364-a89a7c032361","","null","<div style=""display: flex; justify-content: center; align-items: center;"">
                     <img src=""images/causal/causal_series_2/causal_series_2_c.png"" style=""width: 300px; height: 300px;"" />
                   </div>","null",""
"","","","","","html-keyboard-response","51","396345","0.0-35.0-0.0-2.0","5B686D7191734869B0BA7ABFB1CCC796","0199b0d1-b417-7a8b-9752-8bf76515dc2d","0199b0c2-d0d8-70ad-8364-a89a7c032361","","null","<div style=""display: flex; justify-content: center; align-items: center;"">
                     <img src=""images/causal/causal_series_2/causal_series_2_d.png"" style=""width: 300px; height: 300px;"" />
                   </div>","null",""
"","","","","","html-keyboard-response","52","403346","0.0-36.0","5B686D7191734869B0BA7ABFB1CCC796","0199b0d1-b417-7a8b-9752-8bf76515dc2d","0199b0c2-d0d8-70ad-8364-a89a7c032361","","null","<div style=""display: flex; justify-content: center; align-items: center;"">
                     <img src=""images/other/blank.png"" style=""width: 300px; height: 300px;"" />
                   </div>","null",""
"","","","","","html-keyboard-response","53","410362","0.0-37.0","5B686D7191734869B0BA7ABFB1CCC796","0199b0d1-b417-7a8b-9752-8bf76515dc2d","0199b0c2-d0d8-70ad-8364-a89a7c032361","","null","<div style=""display: flex; justify-content: center; align-items: center;"">
                     <img src=""images/causal/causal_series_9/causal_series_9_a.png"" style=""width: 300px; height: 300px;"" />
                   </div>","null",""
"","","","","","html-button-response","54","411623","0.0-38.0","5B686D7191734869B0BA7ABFB1CCC796","0199b0d1-b417-7a8b-9752-8bf76515dc2d","0199b0c2-d0d8-70ad-8364-a89a7c032361","","1260","
        <div style=""display: flex; justify-content: center; align-items: center;"">
          <img src=""images/red_deck_2.png"" style=""width: 300px; height: 300px; margin-right: 10px;"" />
          <img src=""images/blue_deck_1.png"" style=""width: 300px; height: 300px;"" />
        </div>","0","0"
"","","","","","html-keyboard-response","55","418625","0.0-39.0-0.0-0.0","5B686D7191734869B0BA7ABFB1CCC796","0199b0d1-b417-7a8b-9752-8bf76515dc2d","0199b0c2-d0d8-70ad-8364-a89a7c032361","","null","<div style=""display: flex; justify-content: center; align-items: center;"">
                     <img src=""images/causal/causal_series_9/causal_series_9_b.png"" style=""width: 300px; height: 300px;"" />
                   </div>","null",""
"","","","","","html-keyboard-response","56","425642","0.0-39.0-0.0-1.0","5B686D7191734869B0BA7ABFB1CCC796","0199b0d1-b417-7a8b-9752-8bf76515dc2d","0199b0c2-d0d8-70ad-8364-a89a7c032361","","null","<div style=""display: flex; justify-content: center; align-items: center;"">
                     <img src=""images/causal/causal_series_9/causal_series_9_c.png"" style=""width: 300px; height: 300px;"" />
                   </div>","null",""
"","","","","","html-keyboard-response","57","432643","0.0-39.0-0.0-2.0","5B686D7191734869B0BA7ABFB1CCC796","0199b0d1-b417-7a8b-9752-8bf76515dc2d","0199b0c2-d0d8-70ad-8364-a89a7c032361","","null","<div style=""display: flex; justify-content: center; align-items: center;"">
                     <img src=""images/causal/causal_series_9/causal_series_9_d.png"" style=""width: 300px; height: 300px;"" />
                   </div>","null",""
"","","","","","html-keyboard-response","58","439654","0.0-40.0","5B686D7191734869B0BA7ABFB1CCC796","0199b0d1-b417-7a8b-9752-8bf76515dc2d","0199b0c2-d0d8-70ad-8364-a89a7c032361","","null","<div style=""display: flex; justify-content: center; align-items: center;"">
                     <img src=""images/other/blank.png"" style=""width: 300px; height: 300px;"" />
                   </div>","null",""
"","","","","","html-keyboard-response","59","446661","0.0-41.0","5B686D7191734869B0BA7ABFB1CCC796","0199b0d1-b417-7a8b-9752-8bf76515dc2d","0199b0c2-d0d8-70ad-8364-a89a7c032361","","null","<div style=""display: flex; justify-content: center; align-items: center;"">
                     <img src=""images/causal/causal_series_7/causal_series_7_a.png"" style=""width: 300px; height: 300px;"" />
                   </div>","null",""
"","","","","","html-button-response","60","447572","0.0-42.0","5B686D7191734869B0BA7ABFB1CCC796","0199b0d1-b417-7a8b-9752-8bf76515dc2d","0199b0c2-d0d8-70ad-8364-a89a7c032361","","910","
        <div style=""display: flex; justify-content: center; align-items: center;"">
          <img src=""images/red_deck_2.png"" style=""width: 300px; height: 300px; margin-right: 10px;"" />
          <img src=""images/blue_deck_1.png"" style=""width: 300px; height: 300px;"" />
        </div>","0","0"
"","","","","","html-keyboard-response","61","454575","0.0-43.0-0.0-0.0","5B686D7191734869B0BA7ABFB1CCC796","0199b0d1-b417-7a8b-9752-8bf76515dc2d","0199b0c2-d0d8-70ad-8364-a89a7c032361","","null","<div style=""display: flex; justify-content: center; align-items: center;"">
                     <img src=""images/causal/causal_series_7/causal_series_7_b.png"" style=""width: 300px; height: 300px;"" />
                   </div>","null",""
"","","","","","html-keyboard-response","62","461589","0.0-43.0-0.0-1.0","5B686D7191734869B0BA7ABFB1CCC796","0199b0d1-b417-7a8b-9752-8bf76515dc2d","0199b0c2-d0d8-70ad-8364-a89a7c032361","","null","<div style=""display: flex; justify-content: center; align-items: center;"">
                     <img src=""images/causal/causal_series_7/causal_series_7_c.png"" style=""width: 300px; height: 300px;"" />
                   </div>","null",""
"","","","","","html-keyboard-response","63","468597","0.0-43.0-0.0-2.0","5B686D7191734869B0BA7ABFB1CCC796","0199b0d1-b417-7a8b-9752-8bf76515dc2d","0199b0c2-d0d8-70ad-8364-a89a7c032361","","null","<div style=""display: flex; justify-content: center; align-items: center;"">
                     <img src=""images/causal/causal_series_7/causal_series_7_d.png"" style=""width: 300px; height: 300px;"" />
                   </div>","null",""
"","","","","","html-keyboard-response","64","475603","0.0-44.0","5B686D7191734869B0BA7ABFB1CCC796","0199b0d1-b417-7a8b-9752-8bf76515dc2d","0199b0c2-d0d8-70ad-8364-a89a7c032361","","null","<div style=""display: flex; justify-content: center; align-items: center;"">
                     <img src=""images/other/blank.png"" style=""width: 300px; height: 300px;"" />
                   </div>","null",""
"","","","","","survey-text","65","502177","0.0-45.0","5B686D7191734869B0BA7ABFB1CCC796","0199b0d1-b417-7a8b-9752-8bf76515dc2d","0199b0c2-d0d8-70ad-8364-a89a7c032361","","26561","","{""Q0"":""One tells a silly story and one tells disjointed facts about a scene.""}",""
"","","","","","html-button-response","66","508732","0.0-46.0","5B686D7191734869B0BA7ABFB1CCC796","0199b0d1-b417-7a8b-9752-8bf76515dc2d","0199b0c2-d0d8-70ad-8364-a89a7c032361","","6554","Which color deck does the following images continue the story from?","0",""
"","","","","","html-button-response","67","513268","0.0-47.0","5B686D7191734869B0BA7ABFB1CCC796","0199b0d1-b417-7a8b-9752-8bf76515dc2d","0199b0c2-d0d8-70ad-8364-a89a7c032361","","4536","Which color deck do the following images NOT follow the story from?","1",""
"","","","","","html-button-response","68","515925","0.0-48.0","5B686D7191734869B0BA7ABFB1CCC796","0199b0d1-b417-7a8b-9752-8bf76515dc2d","0199b0c2-d0d8-70ad-8364-a89a7c032361","","2656","Which type of deck did you prefer overall?","1",""
"","","","","","survey-text","69","530278","0.0-49.0","5B686D7191734869B0BA7ABFB1CCC796","0199b0d1-b417-7a8b-9752-8bf76515dc2d","0199b0c2-d0d8-70ad-8364-a89a7c032361","","14347","","{""Q0"":""FEMALE"",""Q1"":""35""}",""
"","","","","","instructions","70","541532","0.0-50.0","5B686D7191734869B0BA7ABFB1CCC796","0199b0d1-b417-7a8b-9752-8bf76515dc2d","0199b0c2-d0d8-70ad-8364-a89a7c032361","[{""page_index"":0,""viewing_time"":11253}]","11253","","",""
