"success","timeout","failed_images","failed_audio","failed_video","trial_type","trial_index","time_elapsed","internal_node_id","subject_id","study_id","session_id","view_history","rt","stimulus","response","series","repetition","phase","choice","question_order"
"true","false","[]","[]","[]","preload","0","559","0.0-0.0","2706A8439ABE4C179A8FAC8CCA0FBB9C","0199dc13-d2c2-710d-a31b-1601f4530624","0199dbff-9ef9-7d24-b003-ca5c47ba9671","","","","","","","","",""
"","","","","","instructions","1","5948","0.0-1.0","2706A8439ABE4C179A8FAC8CCA0FBB9C","0199dc13-d2c2-710d-a31b-1601f4530624","0199dbff-9ef9-7d24-b003-ca5c47ba9671","[{""page_index"":0,""viewing_time"":5384}]","5387","","","","","","",""
"","","","","","instructions","2","25743","0.0-2.0","2706A8439ABE4C179A8FAC8CCA0FBB9C","0199dc13-d2c2-710d-a31b-1601f4530624","0199dbff-9ef9-7d24-b003-ca5c47ba9671","[{""page_index"":0,""viewing_time"":19793}]","19794","","","","","","",""
"true","","","","","fullscreen","3","29610","0.0-3.0","2706A8439ABE4C179A8FAC8CCA0FBB9C","0199dc13-d2c2-710d-a31b-1601f4530624","0199dbff-9ef9-7d24-b003-ca5c47ba9671","","2861","","","","","","",""
"","","","","","instructions","4","57602","0.0-4.0","2706A8439ABE4C179A8FAC8CCA0FBB9C","0199dc13-d2c2-710d-a31b-1601f4530624","0199dbff-9ef9-7d24-b003-ca5c47ba9671","[{""page_index"":0,""viewing_time"":27989}]","27989","","","","","","",""
"","","","","","html-keyboard-response","5","63606","0.0-5.0","2706A8439ABE4C179A8FAC8CCA0FBB9C","0199dc13-d2c2-710d-a31b-1601f4530624","0199dbff-9ef9-7d24-b003-ca5c47ba9671","","null","<div style=""display: flex; justify-content: center; align-items: center;"">
                     <img src=""images/causal/causal_series_10/causal_series_10_a.png"" style=""width: 300px; height: 300px;"" />
                   </div>","null","10","1","A","",""
"","","","","","html-keyboard-response","6","69608","0.0-6.0","2706A8439ABE4C179A8FAC8CCA0FBB9C","0199dc13-d2c2-710d-a31b-1601f4530624","0199dbff-9ef9-7d24-b003-ca5c47ba9671","","null","<div style=""display: flex; justify-content: center; align-items: center;"">
                     <img src=""images/causal/causal_series_10/causal_series_10_b.png"" style=""width: 300px; height: 300px;"" />
                   </div>","null","10","1","B","",""
"","","","","","html-keyboard-response","7","75610","0.0-7.0","2706A8439ABE4C179A8FAC8CCA0FBB9C","0199dc13-d2c2-710d-a31b-1601f4530624","0199dbff-9ef9-7d24-b003-ca5c47ba9671","","null","<div style=""display: flex; justify-content: center; align-items: center;"">
                     <img src=""images/causal/causal_series_10/causal_series_10_c.png"" style=""width: 300px; height: 300px;"" />
                   </div>","null","10","1","C","",""
"","","","","","html-button-response","8","81072","0.0-8.0","2706A8439ABE4C179A8FAC8CCA0FBB9C","0199dc13-d2c2-710d-a31b-1601f4530624","0199dbff-9ef9-7d24-b003-ca5c47ba9671","","5457","
        <div style=""display: flex; justify-content: center; align-items: center;"">
          <img src=""images/red_deck_2.png"" style=""width: 300px; height: 300px; margin-right: 10px;"" />
          <img src=""images/blue_deck_1.png"" style=""width: 300px; height: 300px;"" />
        </div>","0","10","1","choice","0",""
"","","","","","html-keyboard-response","9","87075","0.0-9.0-0.0-0.0","2706A8439ABE4C179A8FAC8CCA0FBB9C","0199dc13-d2c2-710d-a31b-1601f4530624","0199dbff-9ef9-7d24-b003-ca5c47ba9671","","null","<div style=""display: flex; justify-content: center; align-items: center;"">
                     <img src=""images/causal/causal_series_10/causal_series_10_d.png"" style=""width: 300px; height: 300px;"" />
                   </div>","null","10","1","D","",""
"","","","","","survey-likert","10","93613","0.0-10.0","2706A8439ABE4C179A8FAC8CCA0FBB9C","0199dc13-d2c2-710d-a31b-1601f4530624","0199dbff-9ef9-7d24-b003-ca5c47ba9671","","6529","","{""Q0"":3}","10","1","surprise_rating","","[0]"
"","","","","","survey-likert","11","99314","0.0-11.0","2706A8439ABE4C179A8FAC8CCA0FBB9C","0199dc13-d2c2-710d-a31b-1601f4530624","0199dbff-9ef9-7d24-b003-ca5c47ba9671","","5697","","{""Q0"":3}","10","1","enjoyment_rating","","[0]"
"","","","","","html-keyboard-response","12","105318","0.0-12.0","2706A8439ABE4C179A8FAC8CCA0FBB9C","0199dc13-d2c2-710d-a31b-1601f4530624","0199dbff-9ef9-7d24-b003-ca5c47ba9671","","null","<div style=""display: flex; justify-content: center; align-items: center;"">
                     <img src=""images/other/blank.png"" style=""width: 300px; height: 300px;"" />
                   </div>","null","0","0","blank","",""
"","","","","","html-keyboard-response","13","111320","0.0-13.0","2706A8439ABE4C179A8FAC8CCA0FBB9C","0199dc13-d2c2-710d-a31b-1601f4530624","0199dbff-9ef9-7d24-b003-ca5c47ba9671","","null","<div style=""display: flex; justify-content: center; align-items: center;"">
                     <img src=""images/causal/causal_series_7/causal_series_7_a.png"" style=""width: 300px; height: 300px;"" />
                   </div>","null","7","1","A","",""
"","","","","","html-keyboard-response","14","117326","0.0-14.0","2706A8439ABE4C179A8FAC8CCA0FBB9C","0199dc13-d2c2-710d-a31b-1601f4530624","0199dbff-9ef9-7d24-b003-ca5c47ba9671","","null","<div style=""display: flex; justify-content: center; align-items: center;"">
                     <img src=""images/causal/causal_series_7/causal_series_7_b.png"" style=""width: 300px; height: 300px;"" />
                   </div>","null","7","1","B","",""
"","","","","","html-keyboard-response","15","123328","0.0-15.0","2706A8439ABE4C179A8FAC8CCA0FBB9C","0199dc13-d2c2-710d-a31b-1601f4530624","0199dbff-9ef9-7d24-b003-ca5c47ba9671","","null","<div style=""display: flex; justify-content: center; align-items: center;"">
                     <img src=""images/causal/causal_series_7/causal_series_7_c.png"" style=""width: 300px; height: 300px;"" />
                   </div>","null","7","1","C","",""
"","","","","","html-button-response","16","125962","0.0-16.0","2706A8439ABE4C179A8FAC8CCA0FBB9C","0199dc13-d2c2-710d-a31b-1601f4530624","0199dbff-9ef9-7d24-b003-ca5c47ba9671","","2630","
        <div style=""display: flex; justify-content: center; align-items: center;"">
          <img src=""images/red_deck_2.png"" style=""width: 300px; height: 300px; margin-right: 10px;"" />
          <img src=""images/blue_deck_1.png"" style=""width: 300px; height: 300px;"" />
        </div>","0","7","1","choice","0",""
"","","","","","html-keyboard-response","17","131964","0.0-17.0-0.0-0.0","2706A8439ABE4C179A8FAC8CCA0FBB9C","0199dc13-d2c2-710d-a31b-1601f4530624","0199dbff-9ef9-7d24-b003-ca5c47ba9671","","null","<div style=""display: flex; justify-content: center; align-items: center;"">
                     <img src=""images/causal/causal_series_7/causal_series_7_d.png"" style=""width: 300px; height: 300px;"" />
                   </div>","null","7","1","D","",""
"","","","","","survey-likert","18","137973","0.0-18.0","2706A8439ABE4C179A8FAC8CCA0FBB9C","0199dc13-d2c2-710d-a31b-1601f4530624","0199dbff-9ef9-7d24-b003-ca5c47ba9671","","6004","","{""Q0"":3}","7","1","surprise_rating","","[0]"
"","","","","","survey-likert","19","140535","0.0-19.0","2706A8439ABE4C179A8FAC8CCA0FBB9C","0199dc13-d2c2-710d-a31b-1601f4530624","0199dbff-9ef9-7d24-b003-ca5c47ba9671","","2558","","{""Q0"":2}","7","1","enjoyment_rating","","[0]"
"","","","","","html-keyboard-response","20","146541","0.0-20.0","2706A8439ABE4C179A8FAC8CCA0FBB9C","0199dc13-d2c2-710d-a31b-1601f4530624","0199dbff-9ef9-7d24-b003-ca5c47ba9671","","null","<div style=""display: flex; justify-content: center; align-items: center;"">
                     <img src=""images/other/blank.png"" style=""width: 300px; height: 300px;"" />
                   </div>","null","0","0","blank","",""
"","","","","","html-keyboard-response","21","152542","0.0-21.0","2706A8439ABE4C179A8FAC8CCA0FBB9C","0199dc13-d2c2-710d-a31b-1601f4530624","0199dbff-9ef9-7d24-b003-ca5c47ba9671","","null","<div style=""display: flex; justify-content: center; align-items: center;"">
                     <img src=""images/causal/causal_series_4/causal_series_4_a.png"" style=""width: 300px; height: 300px;"" />
                   </div>","null","4","1","A","",""
"","","","","","html-keyboard-response","22","158544","0.0-22.0","2706A8439ABE4C179A8FAC8CCA0FBB9C","0199dc13-d2c2-710d-a31b-1601f4530624","0199dbff-9ef9-7d24-b003-ca5c47ba9671","","null","<div style=""display: flex; justify-content: center; align-items: center;"">
                     <img src=""images/causal/causal_series_4/causal_series_4_b.png"" style=""width: 300px; height: 300px;"" />
                   </div>","null","4","1","B","",""
"","","","","","html-keyboard-response","23","164546","0.0-23.0","2706A8439ABE4C179A8FAC8CCA0FBB9C","0199dc13-d2c2-710d-a31b-1601f4530624","0199dbff-9ef9-7d24-b003-ca5c47ba9671","","null","<div style=""display: flex; justify-content: center; align-items: center;"">
                     <img src=""images/causal/causal_series_4/causal_series_4_c.png"" style=""width: 300px; height: 300px;"" />
                   </div>","null","4","1","C","",""
"","","","","","html-button-response","24","166739","0.0-24.0","2706A8439ABE4C179A8FAC8CCA0FBB9C","0199dc13-d2c2-710d-a31b-1601f4530624","0199dbff-9ef9-7d24-b003-ca5c47ba9671","","2190","
        <div style=""display: flex; justify-content: center; align-items: center;"">
          <img src=""images/red_deck_2.png"" style=""width: 300px; height: 300px; margin-right: 10px;"" />
          <img src=""images/blue_deck_1.png"" style=""width: 300px; height: 300px;"" />
        </div>","1","4","1","choice","1",""
"","","","","","html-keyboard-response","25","172742","0.0-25.0-1.0-0.0","2706A8439ABE4C179A8FAC8CCA0FBB9C","0199dc13-d2c2-710d-a31b-1601f4530624","0199dbff-9ef9-7d24-b003-ca5c47ba9671","","null","<div style=""display: flex; justify-content: center; align-items: center;"">
                     <img src=""images/semantic/semantic_series_4/semantic_series_4_d.png"" style=""width: 300px; height: 300px;"" />
                   </div>","null","4","1","D","",""
"","","","","","survey-likert","26","177250","0.0-26.0","2706A8439ABE4C179A8FAC8CCA0FBB9C","0199dc13-d2c2-710d-a31b-1601f4530624","0199dbff-9ef9-7d24-b003-ca5c47ba9671","","4505","","{""Q0"":4}","4","1","surprise_rating","","[0]"
"","","","","","survey-likert","27","180484","0.0-27.0","2706A8439ABE4C179A8FAC8CCA0FBB9C","0199dc13-d2c2-710d-a31b-1601f4530624","0199dbff-9ef9-7d24-b003-ca5c47ba9671","","3229","","{""Q0"":3}","4","1","enjoyment_rating","","[0]"
"","","","","","html-keyboard-response","28","186490","0.0-28.0","2706A8439ABE4C179A8FAC8CCA0FBB9C","0199dc13-d2c2-710d-a31b-1601f4530624","0199dbff-9ef9-7d24-b003-ca5c47ba9671","","null","<div style=""display: flex; justify-content: center; align-items: center;"">
                     <img src=""images/other/blank.png"" style=""width: 300px; height: 300px;"" />
                   </div>","null","0","0","blank","",""
"","","","","","html-keyboard-response","29","192492","0.0-29.0","2706A8439ABE4C179A8FAC8CCA0FBB9C","0199dc13-d2c2-710d-a31b-1601f4530624","0199dbff-9ef9-7d24-b003-ca5c47ba9671","","null","<div style=""display: flex; justify-content: center; align-items: center;"">
                     <img src=""images/causal/causal_series_5/causal_series_5_a.png"" style=""width: 300px; height: 300px;"" />
                   </div>","null","5","1","A","",""
"","","","","","html-keyboard-response","30","198494","0.0-30.0","2706A8439ABE4C179A8FAC8CCA0FBB9C","0199dc13-d2c2-710d-a31b-1601f4530624","0199dbff-9ef9-7d24-b003-ca5c47ba9671","","null","<div style=""display: flex; justify-content: center; align-items: center;"">
                     <img src=""images/causal/causal_series_5/causal_series_5_b.png"" style=""width: 300px; height: 300px;"" />
                   </div>","null","5","1","B","",""
"","","","","","html-keyboard-response","31","204496","0.0-31.0","2706A8439ABE4C179A8FAC8CCA0FBB9C","0199dc13-d2c2-710d-a31b-1601f4530624","0199dbff-9ef9-7d24-b003-ca5c47ba9671","","null","<div style=""display: flex; justify-content: center; align-items: center;"">
                     <img src=""images/causal/causal_series_5/causal_series_5_c.png"" style=""width: 300px; height: 300px;"" />
                   </div>","null","5","1","C","",""
"","","","","","html-button-response","32","206816","0.0-32.0","2706A8439ABE4C179A8FAC8CCA0FBB9C","0199dc13-d2c2-710d-a31b-1601f4530624","0199dbff-9ef9-7d24-b003-ca5c47ba9671","","2317","
        <div style=""display: flex; justify-content: center; align-items: center;"">
          <img src=""images/red_deck_2.png"" style=""width: 300px; height: 300px; margin-right: 10px;"" />
          <img src=""images/blue_deck_1.png"" style=""width: 300px; height: 300px;"" />
        </div>","1","5","1","choice","1",""
"","","","","","html-keyboard-response","33","212819","0.0-33.0-1.0-0.0","2706A8439ABE4C179A8FAC8CCA0FBB9C","0199dc13-d2c2-710d-a31b-1601f4530624","0199dbff-9ef9-7d24-b003-ca5c47ba9671","","null","<div style=""display: flex; justify-content: center; align-items: center;"">
                     <img src=""images/semantic/semantic_series_5/semantic_series_5_d.png"" style=""width: 300px; height: 300px;"" />
                   </div>","null","5","1","D","",""
"","","","","","survey-likert","34","217900","0.0-34.0","2706A8439ABE4C179A8FAC8CCA0FBB9C","0199dc13-d2c2-710d-a31b-1601f4530624","0199dbff-9ef9-7d24-b003-ca5c47ba9671","","5078","","{""Q0"":4}","5","1","surprise_rating","","[0]"
"","","","","","survey-likert","35","220124","0.0-35.0","2706A8439ABE4C179A8FAC8CCA0FBB9C","0199dc13-d2c2-710d-a31b-1601f4530624","0199dbff-9ef9-7d24-b003-ca5c47ba9671","","2219","","{""Q0"":3}","5","1","enjoyment_rating","","[0]"
"","","","","","html-keyboard-response","36","226129","0.0-36.0","2706A8439ABE4C179A8FAC8CCA0FBB9C","0199dc13-d2c2-710d-a31b-1601f4530624","0199dbff-9ef9-7d24-b003-ca5c47ba9671","","null","<div style=""display: flex; justify-content: center; align-items: center;"">
                     <img src=""images/other/blank.png"" style=""width: 300px; height: 300px;"" />
                   </div>","null","0","0","blank","",""
"","","","","","html-keyboard-response","37","232131","0.0-37.0","2706A8439ABE4C179A8FAC8CCA0FBB9C","0199dc13-d2c2-710d-a31b-1601f4530624","0199dbff-9ef9-7d24-b003-ca5c47ba9671","","null","<div style=""display: flex; justify-content: center; align-items: center;"">
                     <img src=""images/causal/causal_series_1/causal_series_1_a.png"" style=""width: 300px; height: 300px;"" />
                   </div>","null","1","1","A","",""
"","","","","","html-keyboard-response","38","238133","0.0-38.0","2706A8439ABE4C179A8FAC8CCA0FBB9C","0199dc13-d2c2-710d-a31b-1601f4530624","0199dbff-9ef9-7d24-b003-ca5c47ba9671","","null","<div style=""display: flex; justify-content: center; align-items: center;"">
                     <img src=""images/causal/causal_series_1/causal_series_1_b.png"" style=""width: 300px; height: 300px;"" />
                   </div>","null","1","1","B","",""
"","","","","","html-keyboard-response","39","244135","0.0-39.0","2706A8439ABE4C179A8FAC8CCA0FBB9C","0199dc13-d2c2-710d-a31b-1601f4530624","0199dbff-9ef9-7d24-b003-ca5c47ba9671","","null","<div style=""display: flex; justify-content: center; align-items: center;"">
                     <img src=""images/causal/causal_series_1/causal_series_1_c.png"" style=""width: 300px; height: 300px;"" />
                   </div>","null","1","1","C","",""
"","","","","","html-button-response","40","246239","0.0-40.0","2706A8439ABE4C179A8FAC8CCA0FBB9C","0199dc13-d2c2-710d-a31b-1601f4530624","0199dbff-9ef9-7d24-b003-ca5c47ba9671","","2101","
        <div style=""display: flex; justify-content: center; align-items: center;"">
          <img src=""images/red_deck_2.png"" style=""width: 300px; height: 300px; margin-right: 10px;"" />
          <img src=""images/blue_deck_1.png"" style=""width: 300px; height: 300px;"" />
        </div>","0","1","1","choice","0",""
"","","","","","html-keyboard-response","41","252242","0.0-41.0-0.0-0.0","2706A8439ABE4C179A8FAC8CCA0FBB9C","0199dc13-d2c2-710d-a31b-1601f4530624","0199dbff-9ef9-7d24-b003-ca5c47ba9671","","null","<div style=""display: flex; justify-content: center; align-items: center;"">
                     <img src=""images/causal/causal_series_1/causal_series_1_d.png"" style=""width: 300px; height: 300px;"" />
                   </div>","null","1","1","D","",""
"","","","","","survey-likert","42","256981","0.0-42.0","2706A8439ABE4C179A8FAC8CCA0FBB9C","0199dc13-d2c2-710d-a31b-1601f4530624","0199dbff-9ef9-7d24-b003-ca5c47ba9671","","4736","","{""Q0"":2}","1","1","surprise_rating","","[0]"
"","","","","","survey-likert","43","259253","0.0-43.0","2706A8439ABE4C179A8FAC8CCA0FBB9C","0199dc13-d2c2-710d-a31b-1601f4530624","0199dbff-9ef9-7d24-b003-ca5c47ba9671","","2267","","{""Q0"":2}","1","1","enjoyment_rating","","[0]"
"","","","","","html-keyboard-response","44","265258","0.0-44.0","2706A8439ABE4C179A8FAC8CCA0FBB9C","0199dc13-d2c2-710d-a31b-1601f4530624","0199dbff-9ef9-7d24-b003-ca5c47ba9671","","null","<div style=""display: flex; justify-content: center; align-items: center;"">
                     <img src=""images/other/blank.png"" style=""width: 300px; height: 300px;"" />
                   </div>","null","0","0","blank","",""
"","","","","","html-keyboard-response","45","271260","0.0-45.0","2706A8439ABE4C179A8FAC8CCA0FBB9C","0199dc13-d2c2-710d-a31b-1601f4530624","0199dbff-9ef9-7d24-b003-ca5c47ba9671","","null","<div style=""display: flex; justify-content: center; align-items: center;"">
                     <img src=""images/causal/causal_series_3/causal_series_3_a.png"" style=""width: 300px; height: 300px;"" />
                   </div>","null","3","1","A","",""
"","","","","","html-keyboard-response","46","277262","0.0-46.0","2706A8439ABE4C179A8FAC8CCA0FBB9C","0199dc13-d2c2-710d-a31b-1601f4530624","0199dbff-9ef9-7d24-b003-ca5c47ba9671","","null","<div style=""display: flex; justify-content: center; align-items: center;"">
                     <img src=""images/causal/causal_series_3/causal_series_3_b.png"" style=""width: 300px; height: 300px;"" />
                   </div>","null","3","1","B","",""
"","","","","","html-keyboard-response","47","283264","0.0-47.0","2706A8439ABE4C179A8FAC8CCA0FBB9C","0199dc13-d2c2-710d-a31b-1601f4530624","0199dbff-9ef9-7d24-b003-ca5c47ba9671","","null","<div style=""display: flex; justify-content: center; align-items: center;"">
                     <img src=""images/causal/causal_series_3/causal_series_3_c.png"" style=""width: 300px; height: 300px;"" />
                   </div>","null","3","1","C","",""
"","","","","","html-button-response","48","285690","0.0-48.0","2706A8439ABE4C179A8FAC8CCA0FBB9C","0199dc13-d2c2-710d-a31b-1601f4530624","0199dbff-9ef9-7d24-b003-ca5c47ba9671","","2422","
        <div style=""display: flex; justify-content: center; align-items: center;"">
          <img src=""images/red_deck_2.png"" style=""width: 300px; height: 300px; margin-right: 10px;"" />
          <img src=""images/blue_deck_1.png"" style=""width: 300px; height: 300px;"" />
        </div>","1","3","1","choice","1",""
"","","","","","html-keyboard-response","49","291693","0.0-49.0-1.0-0.0","2706A8439ABE4C179A8FAC8CCA0FBB9C","0199dc13-d2c2-710d-a31b-1601f4530624","0199dbff-9ef9-7d24-b003-ca5c47ba9671","","null","<div style=""display: flex; justify-content: center; align-items: center;"">
                     <img src=""images/semantic/semantic_series_3/semantic_series_3_d.png"" style=""width: 300px; height: 300px;"" />
                   </div>","null","3","1","D","",""
"","","","","","survey-likert","50","299717","0.0-50.0","2706A8439ABE4C179A8FAC8CCA0FBB9C","0199dc13-d2c2-710d-a31b-1601f4530624","0199dbff-9ef9-7d24-b003-ca5c47ba9671","","8022","","{""Q0"":4}","3","1","surprise_rating","","[0]"
"","","","","","survey-likert","51","301882","0.0-51.0","2706A8439ABE4C179A8FAC8CCA0FBB9C","0199dc13-d2c2-710d-a31b-1601f4530624","0199dbff-9ef9-7d24-b003-ca5c47ba9671","","2160","","{""Q0"":2}","3","1","enjoyment_rating","","[0]"
"","","","","","html-keyboard-response","52","307886","0.0-52.0","2706A8439ABE4C179A8FAC8CCA0FBB9C","0199dc13-d2c2-710d-a31b-1601f4530624","0199dbff-9ef9-7d24-b003-ca5c47ba9671","","null","<div style=""display: flex; justify-content: center; align-items: center;"">
                     <img src=""images/other/blank.png"" style=""width: 300px; height: 300px;"" />
                   </div>","null","0","0","blank","",""
"","","","","","html-keyboard-response","53","313889","0.0-53.0","2706A8439ABE4C179A8FAC8CCA0FBB9C","0199dc13-d2c2-710d-a31b-1601f4530624","0199dbff-9ef9-7d24-b003-ca5c47ba9671","","null","<div style=""display: flex; justify-content: center; align-items: center;"">
                     <img src=""images/causal/causal_series_9/causal_series_9_a.png"" style=""width: 300px; height: 300px;"" />
                   </div>","null","9","1","A","",""
"","","","","","html-keyboard-response","54","319891","0.0-54.0","2706A8439ABE4C179A8FAC8CCA0FBB9C","0199dc13-d2c2-710d-a31b-1601f4530624","0199dbff-9ef9-7d24-b003-ca5c47ba9671","","null","<div style=""display: flex; justify-content: center; align-items: center;"">
                     <img src=""images/causal/causal_series_9/causal_series_9_b.png"" style=""width: 300px; height: 300px;"" />
                   </div>","null","9","1","B","",""
"","","","","","html-keyboard-response","55","325893","0.0-55.0","2706A8439ABE4C179A8FAC8CCA0FBB9C","0199dc13-d2c2-710d-a31b-1601f4530624","0199dbff-9ef9-7d24-b003-ca5c47ba9671","","null","<div style=""display: flex; justify-content: center; align-items: center;"">
                     <img src=""images/causal/causal_series_9/causal_series_9_c.png"" style=""width: 300px; height: 300px;"" />
                   </div>","null","9","1","C","",""
"","","","","","html-button-response","56","327907","0.0-56.0","2706A8439ABE4C179A8FAC8CCA0FBB9C","0199dc13-d2c2-710d-a31b-1601f4530624","0199dbff-9ef9-7d24-b003-ca5c47ba9671","","2009","
        <div style=""display: flex; justify-content: center; align-items: center;"">
          <img src=""images/red_deck_2.png"" style=""width: 300px; height: 300px; margin-right: 10px;"" />
          <img src=""images/blue_deck_1.png"" style=""width: 300px; height: 300px;"" />
        </div>","1","9","1","choice","1",""
"","","","","","html-keyboard-response","57","333910","0.0-57.0-1.0-0.0","2706A8439ABE4C179A8FAC8CCA0FBB9C","0199dc13-d2c2-710d-a31b-1601f4530624","0199dbff-9ef9-7d24-b003-ca5c47ba9671","","null","<div style=""display: flex; justify-content: center; align-items: center;"">
                     <img src=""images/semantic/semantic_series_9/semantic_series_9_d.png"" style=""width: 300px; height: 300px;"" />
                   </div>","null","9","1","D","",""
"","","","","","survey-likert","58","337825","0.0-58.0","2706A8439ABE4C179A8FAC8CCA0FBB9C","0199dc13-d2c2-710d-a31b-1601f4530624","0199dbff-9ef9-7d24-b003-ca5c47ba9671","","3905","","{""Q0"":3}","9","1","surprise_rating","","[0]"
"","","","","","survey-likert","59","340846","0.0-59.0","2706A8439ABE4C179A8FAC8CCA0FBB9C","0199dc13-d2c2-710d-a31b-1601f4530624","0199dbff-9ef9-7d24-b003-ca5c47ba9671","","3017","","{""Q0"":2}","9","1","enjoyment_rating","","[0]"
"","","","","","html-keyboard-response","60","346849","0.0-60.0","2706A8439ABE4C179A8FAC8CCA0FBB9C","0199dc13-d2c2-710d-a31b-1601f4530624","0199dbff-9ef9-7d24-b003-ca5c47ba9671","","null","<div style=""display: flex; justify-content: center; align-items: center;"">
                     <img src=""images/other/blank.png"" style=""width: 300px; height: 300px;"" />
                   </div>","null","0","0","blank","",""
"","","","","","html-keyboard-response","61","352851","0.0-61.0","2706A8439ABE4C179A8FAC8CCA0FBB9C","0199dc13-d2c2-710d-a31b-1601f4530624","0199dbff-9ef9-7d24-b003-ca5c47ba9671","","null","<div style=""display: flex; justify-content: center; align-items: center;"">
                     <img src=""images/causal/causal_series_8/causal_series_8_a.png"" style=""width: 300px; height: 300px;"" />
                   </div>","null","8","1","A","",""
"","","","","","html-keyboard-response","62","358853","0.0-62.0","2706A8439ABE4C179A8FAC8CCA0FBB9C","0199dc13-d2c2-710d-a31b-1601f4530624","0199dbff-9ef9-7d24-b003-ca5c47ba9671","","null","<div style=""display: flex; justify-content: center; align-items: center;"">
                     <img src=""images/causal/causal_series_8/causal_series_8_b.png"" style=""width: 300px; height: 300px;"" />
                   </div>","null","8","1","B","",""
"","","","","","html-keyboard-response","63","364855","0.0-63.0","2706A8439ABE4C179A8FAC8CCA0FBB9C","0199dc13-d2c2-710d-a31b-1601f4530624","0199dbff-9ef9-7d24-b003-ca5c47ba9671","","null","<div style=""display: flex; justify-content: center; align-items: center;"">
                     <img src=""images/causal/causal_series_8/causal_series_8_c.png"" style=""width: 300px; height: 300px;"" />
                   </div>","null","8","1","C","",""
"","","","","","html-button-response","64","366336","0.0-64.0","2706A8439ABE4C179A8FAC8CCA0FBB9C","0199dc13-d2c2-710d-a31b-1601f4530624","0199dbff-9ef9-7d24-b003-ca5c47ba9671","","1471","
        <div style=""display: flex; justify-content: center; align-items: center;"">
          <img src=""images/red_deck_2.png"" style=""width: 300px; height: 300px; margin-right: 10px;"" />
          <img src=""images/blue_deck_1.png"" style=""width: 300px; height: 300px;"" />
        </div>","1","8","1","choice","1",""
"","","","","","html-keyboard-response","65","372338","0.0-65.0-1.0-0.0","2706A8439ABE4C179A8FAC8CCA0FBB9C","0199dc13-d2c2-710d-a31b-1601f4530624","0199dbff-9ef9-7d24-b003-ca5c47ba9671","","null","<div style=""display: flex; justify-content: center; align-items: center;"">
                     <img src=""images/semantic/semantic_series_8/semantic_series_8_d.png"" style=""width: 300px; height: 300px;"" />
                   </div>","null","8","1","D","",""
"","","","","","survey-likert","66","376022","0.0-66.0","2706A8439ABE4C179A8FAC8CCA0FBB9C","0199dc13-d2c2-710d-a31b-1601f4530624","0199dbff-9ef9-7d24-b003-ca5c47ba9671","","3682","","{""Q0"":4}","8","1","surprise_rating","","[0]"
"","","","","","survey-likert","67","378686","0.0-67.0","2706A8439ABE4C179A8FAC8CCA0FBB9C","0199dc13-d2c2-710d-a31b-1601f4530624","0199dbff-9ef9-7d24-b003-ca5c47ba9671","","2660","","{""Q0"":3}","8","1","enjoyment_rating","","[0]"
"","","","","","html-keyboard-response","68","384689","0.0-68.0","2706A8439ABE4C179A8FAC8CCA0FBB9C","0199dc13-d2c2-710d-a31b-1601f4530624","0199dbff-9ef9-7d24-b003-ca5c47ba9671","","null","<div style=""display: flex; justify-content: center; align-items: center;"">
                     <img src=""images/other/blank.png"" style=""width: 300px; height: 300px;"" />
                   </div>","null","0","0","blank","",""
"","","","","","html-keyboard-response","69","390691","0.0-69.0","2706A8439ABE4C179A8FAC8CCA0FBB9C","0199dc13-d2c2-710d-a31b-1601f4530624","0199dbff-9ef9-7d24-b003-ca5c47ba9671","","null","<div style=""display: flex; justify-content: center; align-items: center;"">
                     <img src=""images/causal/causal_series_6/causal_series_6_a.png"" style=""width: 300px; height: 300px;"" />
                   </div>","null","6","1","A","",""
"","","","","","html-keyboard-response","70","396693","0.0-70.0","2706A8439ABE4C179A8FAC8CCA0FBB9C","0199dc13-d2c2-710d-a31b-1601f4530624","0199dbff-9ef9-7d24-b003-ca5c47ba9671","","null","<div style=""display: flex; justify-content: center; align-items: center;"">
                     <img src=""images/causal/causal_series_6/causal_series_6_b.png"" style=""width: 300px; height: 300px;"" />
                   </div>","null","6","1","B","",""
"","","","","","html-keyboard-response","71","402694","0.0-71.0","2706A8439ABE4C179A8FAC8CCA0FBB9C","0199dc13-d2c2-710d-a31b-1601f4530624","0199dbff-9ef9-7d24-b003-ca5c47ba9671","","null","<div style=""display: flex; justify-content: center; align-items: center;"">
                     <img src=""images/causal/causal_series_6/causal_series_6_c.png"" style=""width: 300px; height: 300px;"" />
                   </div>","null","6","1","C","",""
"","","","","","html-button-response","72","404817","0.0-72.0","2706A8439ABE4C179A8FAC8CCA0FBB9C","0199dc13-d2c2-710d-a31b-1601f4530624","0199dbff-9ef9-7d24-b003-ca5c47ba9671","","2119","
        <div style=""display: flex; justify-content: center; align-items: center;"">
          <img src=""images/red_deck_2.png"" style=""width: 300px; height: 300px; margin-right: 10px;"" />
          <img src=""images/blue_deck_1.png"" style=""width: 300px; height: 300px;"" />
        </div>","1","6","1","choice","1",""
"","","","","","html-keyboard-response","73","410820","0.0-73.0-1.0-0.0","2706A8439ABE4C179A8FAC8CCA0FBB9C","0199dc13-d2c2-710d-a31b-1601f4530624","0199dbff-9ef9-7d24-b003-ca5c47ba9671","","null","<div style=""display: flex; justify-content: center; align-items: center;"">
                     <img src=""images/semantic/semantic_series_6/semantic_series_6_d.png"" style=""width: 300px; height: 300px;"" />
                   </div>","null","6","1","D","",""
"","","","","","survey-likert","74","417392","0.0-74.0","2706A8439ABE4C179A8FAC8CCA0FBB9C","0199dc13-d2c2-710d-a31b-1601f4530624","0199dbff-9ef9-7d24-b003-ca5c47ba9671","","6570","","{""Q0"":1}","6","1","surprise_rating","","[0]"
"","","","","","survey-likert","75","420231","0.0-75.0","2706A8439ABE4C179A8FAC8CCA0FBB9C","0199dc13-d2c2-710d-a31b-1601f4530624","0199dbff-9ef9-7d24-b003-ca5c47ba9671","","2834","","{""Q0"":2}","6","1","enjoyment_rating","","[0]"
"","","","","","html-keyboard-response","76","426235","0.0-76.0","2706A8439ABE4C179A8FAC8CCA0FBB9C","0199dc13-d2c2-710d-a31b-1601f4530624","0199dbff-9ef9-7d24-b003-ca5c47ba9671","","null","<div style=""display: flex; justify-content: center; align-items: center;"">
                     <img src=""images/other/blank.png"" style=""width: 300px; height: 300px;"" />
                   </div>","null","0","0","blank","",""
"","","","","","html-keyboard-response","77","432237","0.0-77.0","2706A8439ABE4C179A8FAC8CCA0FBB9C","0199dc13-d2c2-710d-a31b-1601f4530624","0199dbff-9ef9-7d24-b003-ca5c47ba9671","","null","<div style=""display: flex; justify-content: center; align-items: center;"">
                     <img src=""images/causal/causal_series_2/causal_series_2_a.png"" style=""width: 300px; height: 300px;"" />
                   </div>","null","2","1","A","",""
"","","","","","html-keyboard-response","78","438239","0.0-78.0","2706A8439ABE4C179A8FAC8CCA0FBB9C","0199dc13-d2c2-710d-a31b-1601f4530624","0199dbff-9ef9-7d24-b003-ca5c47ba9671","","null","<div style=""display: flex; justify-content: center; align-items: center;"">
                     <img src=""images/causal/causal_series_2/causal_series_2_b.png"" style=""width: 300px; height: 300px;"" />
                   </div>","null","2","1","B","",""
"","","","","","html-keyboard-response","79","444241","0.0-79.0","2706A8439ABE4C179A8FAC8CCA0FBB9C","0199dc13-d2c2-710d-a31b-1601f4530624","0199dbff-9ef9-7d24-b003-ca5c47ba9671","","null","<div style=""display: flex; justify-content: center; align-items: center;"">
                     <img src=""images/causal/causal_series_2/causal_series_2_c.png"" style=""width: 300px; height: 300px;"" />
                   </div>","null","2","1","C","",""
"","","","","","html-button-response","80","446849","0.0-80.0","2706A8439ABE4C179A8FAC8CCA0FBB9C","0199dc13-d2c2-710d-a31b-1601f4530624","0199dbff-9ef9-7d24-b003-ca5c47ba9671","","2604","
        <div style=""display: flex; justify-content: center; align-items: center;"">
          <img src=""images/red_deck_2.png"" style=""width: 300px; height: 300px; margin-right: 10px;"" />
          <img src=""images/blue_deck_1.png"" style=""width: 300px; height: 300px;"" />
        </div>","1","2","1","choice","1",""
"","","","","","html-keyboard-response","81","452851","0.0-81.0-1.0-0.0","2706A8439ABE4C179A8FAC8CCA0FBB9C","0199dc13-d2c2-710d-a31b-1601f4530624","0199dbff-9ef9-7d24-b003-ca5c47ba9671","","null","<div style=""display: flex; justify-content: center; align-items: center;"">
                     <img src=""images/semantic/semantic_series_2/semantic_series_2_d.png"" style=""width: 300px; height: 300px;"" />
                   </div>","null","2","1","D","",""
"","","","","","survey-likert","82","455001","0.0-82.0","2706A8439ABE4C179A8FAC8CCA0FBB9C","0199dc13-d2c2-710d-a31b-1601f4530624","0199dbff-9ef9-7d24-b003-ca5c47ba9671","","2147","","{""Q0"":3}","2","1","surprise_rating","","[0]"
"","","","","","survey-likert","83","457011","0.0-83.0","2706A8439ABE4C179A8FAC8CCA0FBB9C","0199dc13-d2c2-710d-a31b-1601f4530624","0199dbff-9ef9-7d24-b003-ca5c47ba9671","","2007","","{""Q0"":3}","2","1","enjoyment_rating","","[0]"
"","","","","","html-keyboard-response","84","463015","0.0-84.0","2706A8439ABE4C179A8FAC8CCA0FBB9C","0199dc13-d2c2-710d-a31b-1601f4530624","0199dbff-9ef9-7d24-b003-ca5c47ba9671","","null","<div style=""display: flex; justify-content: center; align-items: center;"">
                     <img src=""images/other/blank.png"" style=""width: 300px; height: 300px;"" />
                   </div>","null","0","0","blank","",""
"","","","","","survey-text","85","538528","0.0-85.0","2706A8439ABE4C179A8FAC8CCA0FBB9C","0199dc13-d2c2-710d-a31b-1601f4530624","0199dbff-9ef9-7d24-b003-ca5c47ba9671","","75502","","{""Q0"":""The deck with new information would give out a sentence unrelated to the scene while the other would continue on in the original sequence of events.""}","","","","",""
"","","","","","html-button-response","86","547209","0.0-86.0","2706A8439ABE4C179A8FAC8CCA0FBB9C","0199dc13-d2c2-710d-a31b-1601f4530624","0199dbff-9ef9-7d24-b003-ca5c47ba9671","","8678","Which color deck do the following sentences continue the story from?","0","","","","",""
"","","","","","html-button-response","87","549999","0.0-87.0","2706A8439ABE4C179A8FAC8CCA0FBB9C","0199dc13-d2c2-710d-a31b-1601f4530624","0199dbff-9ef9-7d24-b003-ca5c47ba9671","","2787","Which color deck do the following sentences NOT follow the story from?","1","","","","",""
"","","","","","html-button-response","88","553934","0.0-88.0","2706A8439ABE4C179A8FAC8CCA0FBB9C","0199dc13-d2c2-710d-a31b-1601f4530624","0199dbff-9ef9-7d24-b003-ca5c47ba9671","","3932","Which type of deck did you prefer overall?","0","","","","",""
"","","","","","survey-text","89","560800","0.0-89.0","2706A8439ABE4C179A8FAC8CCA0FBB9C","0199dc13-d2c2-710d-a31b-1601f4530624","0199dbff-9ef9-7d24-b003-ca5c47ba9671","","6860","","{""Q0"":""Female"",""Q1"":""27""}","","","","",""
"","","","","","instructions","90","578369","0.0-90.0","2706A8439ABE4C179A8FAC8CCA0FBB9C","0199dc13-d2c2-710d-a31b-1601f4530624","0199dbff-9ef9-7d24-b003-ca5c47ba9671","[{""page_index"":0,""viewing_time"":17566}]","17566","","","","","","",""
