"success","timeout","failed_images","failed_audio","failed_video","trial_type","trial_index","time_elapsed","internal_node_id","subject_id","study_id","session_id","view_history","rt","stimulus","response","choice"
"true","false","[]","[]","[]","preload","0","2324","0.0-0.0","DE8F40AB247A4F45A7D3661EA8139165","8b859202-6b01-47c6-a59b-071bbd13dbf0","61e1ec61-13c7-4a8f-bf47-a91ec9909364","","","","",""
"","","","","","instructions","1","3664","0.0-1.0","DE8F40AB247A4F45A7D3661EA8139165","8b859202-6b01-47c6-a59b-071bbd13dbf0","61e1ec61-13c7-4a8f-bf47-a91ec9909364","[{""page_index"":0,""viewing_time"":1339}]","1340","","",""
"","","","","","instructions","2","6490","0.0-2.0","DE8F40AB247A4F45A7D3661EA8139165","8b859202-6b01-47c6-a59b-071bbd13dbf0","61e1ec61-13c7-4a8f-bf47-a91ec9909364","[{""page_index"":0,""viewing_time"":2826}]","2826","","",""
"true","","","","","fullscreen","3","8475","0.0-3.0","DE8F40AB247A4F45A7D3661EA8139165","8b859202-6b01-47c6-a59b-071bbd13dbf0","61e1ec61-13c7-4a8f-bf47-a91ec9909364","","981","","",""
"","","","","","instructions","4","18004","0.0-4.0","DE8F40AB247A4F45A7D3661EA8139165","8b859202-6b01-47c6-a59b-071bbd13dbf0","61e1ec61-13c7-4a8f-bf47-a91ec9909364","[{""page_index"":0,""viewing_time"":9529}]","9529","","",""
"","","","","","html-keyboard-response","5","21007","0.0-5.0","DE8F40AB247A4F45A7D3661EA8139165","8b859202-6b01-47c6-a59b-071bbd13dbf0","61e1ec61-13c7-4a8f-bf47-a91ec9909364","","null","<div style=""display: flex; justify-content: center; align-items: center;"">
                <img src=""images/causal/causal_series_5/causal_series_5_a.jpg"" style=""width: 300px; height: 300px;"" />
              </div>","null",""
"","","","","","html-keyboard-response","6","24009","0.0-6.0","DE8F40AB247A4F45A7D3661EA8139165","8b859202-6b01-47c6-a59b-071bbd13dbf0","61e1ec61-13c7-4a8f-bf47-a91ec9909364","","null","<div style=""display: flex; justify-content: center; align-items: center;"">
                <img src=""images/causal/causal_series_5/causal_series_5_b.jpg"" style=""width: 300px; height: 300px;"" />
              </div>","null",""
"","","","","","html-keyboard-response","7","27012","0.0-7.0","DE8F40AB247A4F45A7D3661EA8139165","8b859202-6b01-47c6-a59b-071bbd13dbf0","61e1ec61-13c7-4a8f-bf47-a91ec9909364","","null","<div style=""display: flex; justify-content: center; align-items: center;"">
                <img src=""images/causal/causal_series_5/causal_series_5_c.jpg"" style=""width: 300px; height: 300px;"" />
              </div>","null",""
"","","","","","html-button-response","8","29328","0.0-8.0","DE8F40AB247A4F45A7D3661EA8139165","8b859202-6b01-47c6-a59b-071bbd13dbf0","61e1ec61-13c7-4a8f-bf47-a91ec9909364","","2314","
    <div style=""display: flex; justify-content: center; align-items: center;"">
      <img src=""images/red_deck_2.png"" style=""width: 300px; height: 300px; margin-right: 10px;"" />
      <img src=""images/blue_deck_1.png"" style=""width: 300px; height: 300px;"" />
    </div>","1","1"
"","","","","","html-keyboard-response","9","32331","0.0-9.0-1.0-0.0","DE8F40AB247A4F45A7D3661EA8139165","8b859202-6b01-47c6-a59b-071bbd13dbf0","61e1ec61-13c7-4a8f-bf47-a91ec9909364","","null","<div style=""display: flex; justify-content: center; align-items: center;"">
                <img src=""images/semantic/semantic_series_4/semantic_series_4_d.jpg"" style=""width: 300px; height: 300px;"" />
              </div>","null",""
"","","","","","html-keyboard-response","10","35333","0.0-10.0","DE8F40AB247A4F45A7D3661EA8139165","8b859202-6b01-47c6-a59b-071bbd13dbf0","61e1ec61-13c7-4a8f-bf47-a91ec9909364","","null","<div style=""display: flex; justify-content: center; align-items: center;"">
                <img src=""images/other/blank.jpg"" style=""width: 300px; height: 300px;"" />
              </div>","null",""
"","","","","","html-keyboard-response","11","38336","0.0-11.0","DE8F40AB247A4F45A7D3661EA8139165","8b859202-6b01-47c6-a59b-071bbd13dbf0","61e1ec61-13c7-4a8f-bf47-a91ec9909364","","null","<div style=""display: flex; justify-content: center; align-items: center;"">
                <img src=""images/causal/causal_series_1/causal_series_1_a.jpg"" style=""width: 300px; height: 300px;"" />
              </div>","null",""
"","","","","","html-keyboard-response","12","41338","0.0-12.0","DE8F40AB247A4F45A7D3661EA8139165","8b859202-6b01-47c6-a59b-071bbd13dbf0","61e1ec61-13c7-4a8f-bf47-a91ec9909364","","null","<div style=""display: flex; justify-content: center; align-items: center;"">
                <img src=""images/causal/causal_series_1/causal_series_1_b.jpg"" style=""width: 300px; height: 300px;"" />
              </div>","null",""
"","","","","","html-keyboard-response","13","44341","0.0-13.0","DE8F40AB247A4F45A7D3661EA8139165","8b859202-6b01-47c6-a59b-071bbd13dbf0","61e1ec61-13c7-4a8f-bf47-a91ec9909364","","null","<div style=""display: flex; justify-content: center; align-items: center;"">
                <img src=""images/causal/causal_series_1/causal_series_1_c.jpg"" style=""width: 300px; height: 300px;"" />
              </div>","null",""
"","","","","","html-button-response","14","46167","0.0-14.0","DE8F40AB247A4F45A7D3661EA8139165","8b859202-6b01-47c6-a59b-071bbd13dbf0","61e1ec61-13c7-4a8f-bf47-a91ec9909364","","1825","
    <div style=""display: flex; justify-content: center; align-items: center;"">
      <img src=""images/red_deck_2.png"" style=""width: 300px; height: 300px; margin-right: 10px;"" />
      <img src=""images/blue_deck_1.png"" style=""width: 300px; height: 300px;"" />
    </div>","0","0"
"","","","","","html-keyboard-response","15","49169","0.0-15.0-0.0-0.0","DE8F40AB247A4F45A7D3661EA8139165","8b859202-6b01-47c6-a59b-071bbd13dbf0","61e1ec61-13c7-4a8f-bf47-a91ec9909364","","null","<div style=""display: flex; justify-content: center; align-items: center;"">
                <img src=""images/causal/causal_series_1/causal_series_1_d.jpg"" style=""width: 300px; height: 300px;"" />
              </div>","null",""
"","","","","","html-keyboard-response","16","52172","0.0-16.0","DE8F40AB247A4F45A7D3661EA8139165","8b859202-6b01-47c6-a59b-071bbd13dbf0","61e1ec61-13c7-4a8f-bf47-a91ec9909364","","null","<div style=""display: flex; justify-content: center; align-items: center;"">
                <img src=""images/other/blank.jpg"" style=""width: 300px; height: 300px;"" />
              </div>","null",""
"","","","","","html-keyboard-response","17","55175","0.0-17.0","DE8F40AB247A4F45A7D3661EA8139165","8b859202-6b01-47c6-a59b-071bbd13dbf0","61e1ec61-13c7-4a8f-bf47-a91ec9909364","","null","<div style=""display: flex; justify-content: center; align-items: center;"">
                <img src=""images/causal/causal_series_2/causal_series_2_a.jpg"" style=""width: 300px; height: 300px;"" />
              </div>","null",""
"","","","","","html-keyboard-response","18","58178","0.0-18.0","DE8F40AB247A4F45A7D3661EA8139165","8b859202-6b01-47c6-a59b-071bbd13dbf0","61e1ec61-13c7-4a8f-bf47-a91ec9909364","","null","<div style=""display: flex; justify-content: center; align-items: center;"">
                <img src=""images/causal/causal_series_2/causal_series_2_b.jpg"" style=""width: 300px; height: 300px;"" />
              </div>","null",""
"","","","","","html-keyboard-response","19","61180","0.0-19.0","DE8F40AB247A4F45A7D3661EA8139165","8b859202-6b01-47c6-a59b-071bbd13dbf0","61e1ec61-13c7-4a8f-bf47-a91ec9909364","","null","<div style=""display: flex; justify-content: center; align-items: center;"">
                <img src=""images/causal/causal_series_2/causal_series_2_c.jpg"" style=""width: 300px; height: 300px;"" />
              </div>","null",""
"","","","","","html-button-response","20","62541","0.0-20.0","DE8F40AB247A4F45A7D3661EA8139165","8b859202-6b01-47c6-a59b-071bbd13dbf0","61e1ec61-13c7-4a8f-bf47-a91ec9909364","","1360","
    <div style=""display: flex; justify-content: center; align-items: center;"">
      <img src=""images/red_deck_2.png"" style=""width: 300px; height: 300px; margin-right: 10px;"" />
      <img src=""images/blue_deck_1.png"" style=""width: 300px; height: 300px;"" />
    </div>","0","0"
"","","","","","html-keyboard-response","21","65544","0.0-21.0-0.0-0.0","DE8F40AB247A4F45A7D3661EA8139165","8b859202-6b01-47c6-a59b-071bbd13dbf0","61e1ec61-13c7-4a8f-bf47-a91ec9909364","","null","<div style=""display: flex; justify-content: center; align-items: center;"">
                <img src=""images/causal/causal_series_2/causal_series_2_d.jpg"" style=""width: 300px; height: 300px;"" />
              </div>","null",""
"","","","","","html-keyboard-response","22","68547","0.0-22.0","DE8F40AB247A4F45A7D3661EA8139165","8b859202-6b01-47c6-a59b-071bbd13dbf0","61e1ec61-13c7-4a8f-bf47-a91ec9909364","","null","<div style=""display: flex; justify-content: center; align-items: center;"">
                <img src=""images/other/blank.jpg"" style=""width: 300px; height: 300px;"" />
              </div>","null",""
"","","","","","html-keyboard-response","23","71550","0.0-23.0","DE8F40AB247A4F45A7D3661EA8139165","8b859202-6b01-47c6-a59b-071bbd13dbf0","61e1ec61-13c7-4a8f-bf47-a91ec9909364","","null","<div style=""display: flex; justify-content: center; align-items: center;"">
                <img src=""images/causal/causal_series_14/causal_series_14_a.jpg"" style=""width: 300px; height: 300px;"" />
              </div>","null",""
"","","","","","html-keyboard-response","24","74552","0.0-24.0","DE8F40AB247A4F45A7D3661EA8139165","8b859202-6b01-47c6-a59b-071bbd13dbf0","61e1ec61-13c7-4a8f-bf47-a91ec9909364","","null","<div style=""display: flex; justify-content: center; align-items: center;"">
                <img src=""images/causal/causal_series_14/causal_series_14_b.jpg"" style=""width: 300px; height: 300px;"" />
              </div>","null",""
"","","","","","html-keyboard-response","25","77554","0.0-25.0","DE8F40AB247A4F45A7D3661EA8139165","8b859202-6b01-47c6-a59b-071bbd13dbf0","61e1ec61-13c7-4a8f-bf47-a91ec9909364","","null","<div style=""display: flex; justify-content: center; align-items: center;"">
                <img src=""images/causal/causal_series_14/causal_series_14_c.jpg"" style=""width: 300px; height: 300px;"" />
              </div>","null",""
"","","","","","html-button-response","26","79332","0.0-26.0","DE8F40AB247A4F45A7D3661EA8139165","8b859202-6b01-47c6-a59b-071bbd13dbf0","61e1ec61-13c7-4a8f-bf47-a91ec9909364","","1777","
    <div style=""display: flex; justify-content: center; align-items: center;"">
      <img src=""images/red_deck_2.png"" style=""width: 300px; height: 300px; margin-right: 10px;"" />
      <img src=""images/blue_deck_1.png"" style=""width: 300px; height: 300px;"" />
    </div>","1","1"
"","","","","","html-keyboard-response","27","82335","0.0-27.0-1.0-0.0","DE8F40AB247A4F45A7D3661EA8139165","8b859202-6b01-47c6-a59b-071bbd13dbf0","61e1ec61-13c7-4a8f-bf47-a91ec9909364","","null","<div style=""display: flex; justify-content: center; align-items: center;"">
                <img src=""images/semantic/semantic_series_13/semantic_series_13_d.jpg"" style=""width: 300px; height: 300px;"" />
              </div>","null",""
"","","","","","html-keyboard-response","28","85338","0.0-28.0","DE8F40AB247A4F45A7D3661EA8139165","8b859202-6b01-47c6-a59b-071bbd13dbf0","61e1ec61-13c7-4a8f-bf47-a91ec9909364","","null","<div style=""display: flex; justify-content: center; align-items: center;"">
                <img src=""images/other/blank.jpg"" style=""width: 300px; height: 300px;"" />
              </div>","null",""
"","","","","","html-keyboard-response","29","88340","0.0-29.0","DE8F40AB247A4F45A7D3661EA8139165","8b859202-6b01-47c6-a59b-071bbd13dbf0","61e1ec61-13c7-4a8f-bf47-a91ec9909364","","null","<div style=""display: flex; justify-content: center; align-items: center;"">
                <img src=""images/causal/causal_series_15/causal_series_15_a.jpg"" style=""width: 300px; height: 300px;"" />
              </div>","null",""
"","","","","","html-keyboard-response","30","91342","0.0-30.0","DE8F40AB247A4F45A7D3661EA8139165","8b859202-6b01-47c6-a59b-071bbd13dbf0","61e1ec61-13c7-4a8f-bf47-a91ec9909364","","null","<div style=""display: flex; justify-content: center; align-items: center;"">
                <img src=""images/causal/causal_series_15/causal_series_15_b.jpg"" style=""width: 300px; height: 300px;"" />
              </div>","null",""
"","","","","","html-keyboard-response","31","94344","0.0-31.0","DE8F40AB247A4F45A7D3661EA8139165","8b859202-6b01-47c6-a59b-071bbd13dbf0","61e1ec61-13c7-4a8f-bf47-a91ec9909364","","null","<div style=""display: flex; justify-content: center; align-items: center;"">
                <img src=""images/causal/causal_series_15/causal_series_15_c.jpg"" style=""width: 300px; height: 300px;"" />
              </div>","null",""
"","","","","","html-button-response","32","95890","0.0-32.0","DE8F40AB247A4F45A7D3661EA8139165","8b859202-6b01-47c6-a59b-071bbd13dbf0","61e1ec61-13c7-4a8f-bf47-a91ec9909364","","1544","
    <div style=""display: flex; justify-content: center; align-items: center;"">
      <img src=""images/red_deck_2.png"" style=""width: 300px; height: 300px; margin-right: 10px;"" />
      <img src=""images/blue_deck_1.png"" style=""width: 300px; height: 300px;"" />
    </div>","1","1"
"","","","","","html-keyboard-response","33","98892","0.0-33.0-1.0-0.0","DE8F40AB247A4F45A7D3661EA8139165","8b859202-6b01-47c6-a59b-071bbd13dbf0","61e1ec61-13c7-4a8f-bf47-a91ec9909364","","null","<div style=""display: flex; justify-content: center; align-items: center;"">
                <img src=""images/semantic/semantic_series_14/semantic_series_14_d.jpg"" style=""width: 300px; height: 300px;"" />
              </div>","null",""
"","","","","","html-keyboard-response","34","101894","0.0-34.0","DE8F40AB247A4F45A7D3661EA8139165","8b859202-6b01-47c6-a59b-071bbd13dbf0","61e1ec61-13c7-4a8f-bf47-a91ec9909364","","null","<div style=""display: flex; justify-content: center; align-items: center;"">
                <img src=""images/other/blank.jpg"" style=""width: 300px; height: 300px;"" />
              </div>","null",""
"","","","","","html-keyboard-response","35","104897","0.0-35.0","DE8F40AB247A4F45A7D3661EA8139165","8b859202-6b01-47c6-a59b-071bbd13dbf0","61e1ec61-13c7-4a8f-bf47-a91ec9909364","","null","<div style=""display: flex; justify-content: center; align-items: center;"">
                <img src=""images/causal/causal_series_6/causal_series_6_a.jpg"" style=""width: 300px; height: 300px;"" />
              </div>","null",""
"","","","","","html-keyboard-response","36","107899","0.0-36.0","DE8F40AB247A4F45A7D3661EA8139165","8b859202-6b01-47c6-a59b-071bbd13dbf0","61e1ec61-13c7-4a8f-bf47-a91ec9909364","","null","<div style=""display: flex; justify-content: center; align-items: center;"">
                <img src=""images/causal/causal_series_6/causal_series_6_b.jpg"" style=""width: 300px; height: 300px;"" />
              </div>","null",""
"","","","","","html-keyboard-response","37","110901","0.0-37.0","DE8F40AB247A4F45A7D3661EA8139165","8b859202-6b01-47c6-a59b-071bbd13dbf0","61e1ec61-13c7-4a8f-bf47-a91ec9909364","","null","<div style=""display: flex; justify-content: center; align-items: center;"">
                <img src=""images/causal/causal_series_6/causal_series_6_c.jpg"" style=""width: 300px; height: 300px;"" />
              </div>","null",""
"","","","","","html-button-response","38","112132","0.0-38.0","DE8F40AB247A4F45A7D3661EA8139165","8b859202-6b01-47c6-a59b-071bbd13dbf0","61e1ec61-13c7-4a8f-bf47-a91ec9909364","","1230","
    <div style=""display: flex; justify-content: center; align-items: center;"">
      <img src=""images/red_deck_2.png"" style=""width: 300px; height: 300px; margin-right: 10px;"" />
      <img src=""images/blue_deck_1.png"" style=""width: 300px; height: 300px;"" />
    </div>","1","1"
"","","","","","html-keyboard-response","39","115134","0.0-39.0-1.0-0.0","DE8F40AB247A4F45A7D3661EA8139165","8b859202-6b01-47c6-a59b-071bbd13dbf0","61e1ec61-13c7-4a8f-bf47-a91ec9909364","","null","<div style=""display: flex; justify-content: center; align-items: center;"">
                <img src=""images/semantic/semantic_series_5/semantic_series_5_d.jpg"" style=""width: 300px; height: 300px;"" />
              </div>","null",""
"","","","","","html-keyboard-response","40","118136","0.0-40.0","DE8F40AB247A4F45A7D3661EA8139165","8b859202-6b01-47c6-a59b-071bbd13dbf0","61e1ec61-13c7-4a8f-bf47-a91ec9909364","","null","<div style=""display: flex; justify-content: center; align-items: center;"">
                <img src=""images/other/blank.jpg"" style=""width: 300px; height: 300px;"" />
              </div>","null",""
"","","","","","html-keyboard-response","41","121139","0.0-41.0","DE8F40AB247A4F45A7D3661EA8139165","8b859202-6b01-47c6-a59b-071bbd13dbf0","61e1ec61-13c7-4a8f-bf47-a91ec9909364","","null","<div style=""display: flex; justify-content: center; align-items: center;"">
                <img src=""images/causal/causal_series_4/causal_series_4_a.jpg"" style=""width: 300px; height: 300px;"" />
              </div>","null",""
"","","","","","html-keyboard-response","42","124142","0.0-42.0","DE8F40AB247A4F45A7D3661EA8139165","8b859202-6b01-47c6-a59b-071bbd13dbf0","61e1ec61-13c7-4a8f-bf47-a91ec9909364","","null","<div style=""display: flex; justify-content: center; align-items: center;"">
                <img src=""images/causal/causal_series_4/causal_series_4_b.jpg"" style=""width: 300px; height: 300px;"" />
              </div>","null",""
"","","","","","html-keyboard-response","43","127144","0.0-43.0","DE8F40AB247A4F45A7D3661EA8139165","8b859202-6b01-47c6-a59b-071bbd13dbf0","61e1ec61-13c7-4a8f-bf47-a91ec9909364","","null","<div style=""display: flex; justify-content: center; align-items: center;"">
                <img src=""images/causal/causal_series_4/causal_series_4_c.jpg"" style=""width: 300px; height: 300px;"" />
              </div>","null",""
"","","","","","html-button-response","44","128932","0.0-44.0","DE8F40AB247A4F45A7D3661EA8139165","8b859202-6b01-47c6-a59b-071bbd13dbf0","61e1ec61-13c7-4a8f-bf47-a91ec9909364","","1787","
    <div style=""display: flex; justify-content: center; align-items: center;"">
      <img src=""images/red_deck_2.png"" style=""width: 300px; height: 300px; margin-right: 10px;"" />
      <img src=""images/blue_deck_1.png"" style=""width: 300px; height: 300px;"" />
    </div>","1","1"
"","","","","","html-keyboard-response","45","131935","0.0-45.0-1.0-0.0","DE8F40AB247A4F45A7D3661EA8139165","8b859202-6b01-47c6-a59b-071bbd13dbf0","61e1ec61-13c7-4a8f-bf47-a91ec9909364","","null","<div style=""display: flex; justify-content: center; align-items: center;"">
                <img src=""images/semantic/semantic_series_3/semantic_series_3_d.jpg"" style=""width: 300px; height: 300px;"" />
              </div>","null",""
"","","","","","html-keyboard-response","46","134937","0.0-46.0","DE8F40AB247A4F45A7D3661EA8139165","8b859202-6b01-47c6-a59b-071bbd13dbf0","61e1ec61-13c7-4a8f-bf47-a91ec9909364","","null","<div style=""display: flex; justify-content: center; align-items: center;"">
                <img src=""images/other/blank.jpg"" style=""width: 300px; height: 300px;"" />
              </div>","null",""
"","","","","","html-keyboard-response","47","137939","0.0-47.0","DE8F40AB247A4F45A7D3661EA8139165","8b859202-6b01-47c6-a59b-071bbd13dbf0","61e1ec61-13c7-4a8f-bf47-a91ec9909364","","null","<div style=""display: flex; justify-content: center; align-items: center;"">
                <img src=""images/causal/causal_series_18/causal_series_18_a.jpg"" style=""width: 300px; height: 300px;"" />
              </div>","null",""
"","","","","","html-keyboard-response","48","140942","0.0-48.0","DE8F40AB247A4F45A7D3661EA8139165","8b859202-6b01-47c6-a59b-071bbd13dbf0","61e1ec61-13c7-4a8f-bf47-a91ec9909364","","null","<div style=""display: flex; justify-content: center; align-items: center;"">
                <img src=""images/causal/causal_series_18/causal_series_18_b.jpg"" style=""width: 300px; height: 300px;"" />
              </div>","null",""
"","","","","","html-keyboard-response","49","143943","0.0-49.0","DE8F40AB247A4F45A7D3661EA8139165","8b859202-6b01-47c6-a59b-071bbd13dbf0","61e1ec61-13c7-4a8f-bf47-a91ec9909364","","null","<div style=""display: flex; justify-content: center; align-items: center;"">
                <img src=""images/causal/causal_series_18/causal_series_18_c.jpg"" style=""width: 300px; height: 300px;"" />
              </div>","null",""
"","","","","","html-button-response","50","145673","0.0-50.0","DE8F40AB247A4F45A7D3661EA8139165","8b859202-6b01-47c6-a59b-071bbd13dbf0","61e1ec61-13c7-4a8f-bf47-a91ec9909364","","1729","
    <div style=""display: flex; justify-content: center; align-items: center;"">
      <img src=""images/red_deck_2.png"" style=""width: 300px; height: 300px; margin-right: 10px;"" />
      <img src=""images/blue_deck_1.png"" style=""width: 300px; height: 300px;"" />
    </div>","1","1"
"","","","","","html-keyboard-response","51","148675","0.0-51.0-1.0-0.0","DE8F40AB247A4F45A7D3661EA8139165","8b859202-6b01-47c6-a59b-071bbd13dbf0","61e1ec61-13c7-4a8f-bf47-a91ec9909364","","null","<div style=""display: flex; justify-content: center; align-items: center;"">
                <img src=""images/semantic/semantic_series_17/semantic_series_17_d.jpg"" style=""width: 300px; height: 300px;"" />
              </div>","null",""
"","","","","","html-keyboard-response","52","151677","0.0-52.0","DE8F40AB247A4F45A7D3661EA8139165","8b859202-6b01-47c6-a59b-071bbd13dbf0","61e1ec61-13c7-4a8f-bf47-a91ec9909364","","null","<div style=""display: flex; justify-content: center; align-items: center;"">
                <img src=""images/other/blank.jpg"" style=""width: 300px; height: 300px;"" />
              </div>","null",""
"","","","","","html-keyboard-response","53","154679","0.0-53.0","DE8F40AB247A4F45A7D3661EA8139165","8b859202-6b01-47c6-a59b-071bbd13dbf0","61e1ec61-13c7-4a8f-bf47-a91ec9909364","","null","<div style=""display: flex; justify-content: center; align-items: center;"">
                <img src=""images/causal/causal_series_9/causal_series_9_a.jpg"" style=""width: 300px; height: 300px;"" />
              </div>","null",""
"","","","","","html-keyboard-response","54","157682","0.0-54.0","DE8F40AB247A4F45A7D3661EA8139165","8b859202-6b01-47c6-a59b-071bbd13dbf0","61e1ec61-13c7-4a8f-bf47-a91ec9909364","","null","<div style=""display: flex; justify-content: center; align-items: center;"">
                <img src=""images/causal/causal_series_9/causal_series_9_b.jpg"" style=""width: 300px; height: 300px;"" />
              </div>","null",""
"","","","","","html-keyboard-response","55","160684","0.0-55.0","DE8F40AB247A4F45A7D3661EA8139165","8b859202-6b01-47c6-a59b-071bbd13dbf0","61e1ec61-13c7-4a8f-bf47-a91ec9909364","","null","<div style=""display: flex; justify-content: center; align-items: center;"">
                <img src=""images/causal/causal_series_9/causal_series_9_c.jpg"" style=""width: 300px; height: 300px;"" />
              </div>","null",""
"","","","","","html-button-response","56","162571","0.0-56.0","DE8F40AB247A4F45A7D3661EA8139165","8b859202-6b01-47c6-a59b-071bbd13dbf0","61e1ec61-13c7-4a8f-bf47-a91ec9909364","","1886","
    <div style=""display: flex; justify-content: center; align-items: center;"">
      <img src=""images/red_deck_2.png"" style=""width: 300px; height: 300px; margin-right: 10px;"" />
      <img src=""images/blue_deck_1.png"" style=""width: 300px; height: 300px;"" />
    </div>","0","0"
"","","","","","html-keyboard-response","57","165573","0.0-57.0-0.0-0.0","DE8F40AB247A4F45A7D3661EA8139165","8b859202-6b01-47c6-a59b-071bbd13dbf0","61e1ec61-13c7-4a8f-bf47-a91ec9909364","","null","<div style=""display: flex; justify-content: center; align-items: center;"">
                <img src=""images/causal/causal_series_9/causal_series_9_d.jpg"" style=""width: 300px; height: 300px;"" />
              </div>","null",""
"","","","","","html-keyboard-response","58","168575","0.0-58.0","DE8F40AB247A4F45A7D3661EA8139165","8b859202-6b01-47c6-a59b-071bbd13dbf0","61e1ec61-13c7-4a8f-bf47-a91ec9909364","","null","<div style=""display: flex; justify-content: center; align-items: center;"">
                <img src=""images/other/blank.jpg"" style=""width: 300px; height: 300px;"" />
              </div>","null",""
"","","","","","html-keyboard-response","59","171578","0.0-59.0","DE8F40AB247A4F45A7D3661EA8139165","8b859202-6b01-47c6-a59b-071bbd13dbf0","61e1ec61-13c7-4a8f-bf47-a91ec9909364","","null","<div style=""display: flex; justify-content: center; align-items: center;"">
                <img src=""images/causal/causal_series_8/causal_series_8_a.jpg"" style=""width: 300px; height: 300px;"" />
              </div>","null",""
"","","","","","html-keyboard-response","60","174580","0.0-60.0","DE8F40AB247A4F45A7D3661EA8139165","8b859202-6b01-47c6-a59b-071bbd13dbf0","61e1ec61-13c7-4a8f-bf47-a91ec9909364","","null","<div style=""display: flex; justify-content: center; align-items: center;"">
                <img src=""images/causal/causal_series_8/causal_series_8_b.jpg"" style=""width: 300px; height: 300px;"" />
              </div>","null",""
"","","","","","html-keyboard-response","61","177582","0.0-61.0","DE8F40AB247A4F45A7D3661EA8139165","8b859202-6b01-47c6-a59b-071bbd13dbf0","61e1ec61-13c7-4a8f-bf47-a91ec9909364","","null","<div style=""display: flex; justify-content: center; align-items: center;"">
                <img src=""images/causal/causal_series_8/causal_series_8_c.jpg"" style=""width: 300px; height: 300px;"" />
              </div>","null",""
"","","","","","html-button-response","62","183474","0.0-62.0","DE8F40AB247A4F45A7D3661EA8139165","8b859202-6b01-47c6-a59b-071bbd13dbf0","61e1ec61-13c7-4a8f-bf47-a91ec9909364","","5892","
    <div style=""display: flex; justify-content: center; align-items: center;"">
      <img src=""images/red_deck_2.png"" style=""width: 300px; height: 300px; margin-right: 10px;"" />
      <img src=""images/blue_deck_1.png"" style=""width: 300px; height: 300px;"" />
    </div>","0","0"
"","","","","","html-keyboard-response","63","186472","0.0-63.0-0.0-0.0","DE8F40AB247A4F45A7D3661EA8139165","8b859202-6b01-47c6-a59b-071bbd13dbf0","61e1ec61-13c7-4a8f-bf47-a91ec9909364","","null","<div style=""display: flex; justify-content: center; align-items: center;"">
                <img src=""images/causal/causal_series_8/causal_series_8_d.jpg"" style=""width: 300px; height: 300px;"" />
              </div>","null",""
"","","","","","html-keyboard-response","64","189471","0.0-64.0","DE8F40AB247A4F45A7D3661EA8139165","8b859202-6b01-47c6-a59b-071bbd13dbf0","61e1ec61-13c7-4a8f-bf47-a91ec9909364","","null","<div style=""display: flex; justify-content: center; align-items: center;"">
                <img src=""images/other/blank.jpg"" style=""width: 300px; height: 300px;"" />
              </div>","null",""
"","","","","","html-keyboard-response","65","192470","0.0-65.0","DE8F40AB247A4F45A7D3661EA8139165","8b859202-6b01-47c6-a59b-071bbd13dbf0","61e1ec61-13c7-4a8f-bf47-a91ec9909364","","null","<div style=""display: flex; justify-content: center; align-items: center;"">
                <img src=""images/causal/causal_series_12/causal_series_12_a.jpg"" style=""width: 300px; height: 300px;"" />
              </div>","null",""
"","","","","","html-keyboard-response","66","195470","0.0-66.0","DE8F40AB247A4F45A7D3661EA8139165","8b859202-6b01-47c6-a59b-071bbd13dbf0","61e1ec61-13c7-4a8f-bf47-a91ec9909364","","null","<div style=""display: flex; justify-content: center; align-items: center;"">
                <img src=""images/causal/causal_series_12/causal_series_12_b.jpg"" style=""width: 300px; height: 300px;"" />
              </div>","null",""
"","","","","","html-keyboard-response","67","198470","0.0-67.0","DE8F40AB247A4F45A7D3661EA8139165","8b859202-6b01-47c6-a59b-071bbd13dbf0","61e1ec61-13c7-4a8f-bf47-a91ec9909364","","null","<div style=""display: flex; justify-content: center; align-items: center;"">
                <img src=""images/causal/causal_series_12/causal_series_12_c.jpg"" style=""width: 300px; height: 300px;"" />
              </div>","null",""
"","","","","","html-button-response","68","202566","0.0-68.0","DE8F40AB247A4F45A7D3661EA8139165","8b859202-6b01-47c6-a59b-071bbd13dbf0","61e1ec61-13c7-4a8f-bf47-a91ec9909364","","4098","
    <div style=""display: flex; justify-content: center; align-items: center;"">
      <img src=""images/red_deck_2.png"" style=""width: 300px; height: 300px; margin-right: 10px;"" />
      <img src=""images/blue_deck_1.png"" style=""width: 300px; height: 300px;"" />
    </div>","0","0"
"","","","","","html-keyboard-response","69","205568","0.0-69.0-0.0-0.0","DE8F40AB247A4F45A7D3661EA8139165","8b859202-6b01-47c6-a59b-071bbd13dbf0","61e1ec61-13c7-4a8f-bf47-a91ec9909364","","null","<div style=""display: flex; justify-content: center; align-items: center;"">
                <img src=""images/causal/causal_series_12/causal_series_12_d.jpg"" style=""width: 300px; height: 300px;"" />
              </div>","null",""
"","","","","","html-keyboard-response","70","208569","0.0-70.0","DE8F40AB247A4F45A7D3661EA8139165","8b859202-6b01-47c6-a59b-071bbd13dbf0","61e1ec61-13c7-4a8f-bf47-a91ec9909364","","null","<div style=""display: flex; justify-content: center; align-items: center;"">
                <img src=""images/other/blank.jpg"" style=""width: 300px; height: 300px;"" />
              </div>","null",""
"","","","","","html-keyboard-response","71","211571","0.0-71.0","DE8F40AB247A4F45A7D3661EA8139165","8b859202-6b01-47c6-a59b-071bbd13dbf0","61e1ec61-13c7-4a8f-bf47-a91ec9909364","","null","<div style=""display: flex; justify-content: center; align-items: center;"">
                <img src=""images/causal/causal_series_11/causal_series_11_a.jpg"" style=""width: 300px; height: 300px;"" />
              </div>","null",""
"","","","","","html-keyboard-response","72","214572","0.0-72.0","DE8F40AB247A4F45A7D3661EA8139165","8b859202-6b01-47c6-a59b-071bbd13dbf0","61e1ec61-13c7-4a8f-bf47-a91ec9909364","","null","<div style=""display: flex; justify-content: center; align-items: center;"">
                <img src=""images/causal/causal_series_11/causal_series_11_b.jpg"" style=""width: 300px; height: 300px;"" />
              </div>","null",""
"","","","","","html-keyboard-response","73","217573","0.0-73.0","DE8F40AB247A4F45A7D3661EA8139165","8b859202-6b01-47c6-a59b-071bbd13dbf0","61e1ec61-13c7-4a8f-bf47-a91ec9909364","","null","<div style=""display: flex; justify-content: center; align-items: center;"">
                <img src=""images/causal/causal_series_11/causal_series_11_c.jpg"" style=""width: 300px; height: 300px;"" />
              </div>","null",""
"","","","","","html-button-response","74","221144","0.0-74.0","DE8F40AB247A4F45A7D3661EA8139165","8b859202-6b01-47c6-a59b-071bbd13dbf0","61e1ec61-13c7-4a8f-bf47-a91ec9909364","","3571","
    <div style=""display: flex; justify-content: center; align-items: center;"">
      <img src=""images/red_deck_2.png"" style=""width: 300px; height: 300px; margin-right: 10px;"" />
      <img src=""images/blue_deck_1.png"" style=""width: 300px; height: 300px;"" />
    </div>","1","1"
"","","","","","html-keyboard-response","75","224146","0.0-75.0-1.0-0.0","DE8F40AB247A4F45A7D3661EA8139165","8b859202-6b01-47c6-a59b-071bbd13dbf0","61e1ec61-13c7-4a8f-bf47-a91ec9909364","","null","<div style=""display: flex; justify-content: center; align-items: center;"">
                <img src=""images/semantic/semantic_series_10/semantic_series_10_d.jpg"" style=""width: 300px; height: 300px;"" />
              </div>","null",""
"","","","","","html-keyboard-response","76","227148","0.0-76.0","DE8F40AB247A4F45A7D3661EA8139165","8b859202-6b01-47c6-a59b-071bbd13dbf0","61e1ec61-13c7-4a8f-bf47-a91ec9909364","","null","<div style=""display: flex; justify-content: center; align-items: center;"">
                <img src=""images/other/blank.jpg"" style=""width: 300px; height: 300px;"" />
              </div>","null",""
"","","","","","html-keyboard-response","77","230150","0.0-77.0","DE8F40AB247A4F45A7D3661EA8139165","8b859202-6b01-47c6-a59b-071bbd13dbf0","61e1ec61-13c7-4a8f-bf47-a91ec9909364","","null","<div style=""display: flex; justify-content: center; align-items: center;"">
                <img src=""images/causal/causal_series_10/causal_series_10_a.jpg"" style=""width: 300px; height: 300px;"" />
              </div>","null",""
"","","","","","html-keyboard-response","78","233152","0.0-78.0","DE8F40AB247A4F45A7D3661EA8139165","8b859202-6b01-47c6-a59b-071bbd13dbf0","61e1ec61-13c7-4a8f-bf47-a91ec9909364","","null","<div style=""display: flex; justify-content: center; align-items: center;"">
                <img src=""images/causal/causal_series_10/causal_series_10_b.jpg"" style=""width: 300px; height: 300px;"" />
              </div>","null",""
"","","","","","html-keyboard-response","79","236153","0.0-79.0","DE8F40AB247A4F45A7D3661EA8139165","8b859202-6b01-47c6-a59b-071bbd13dbf0","61e1ec61-13c7-4a8f-bf47-a91ec9909364","","null","<div style=""display: flex; justify-content: center; align-items: center;"">
                <img src=""images/causal/causal_series_10/causal_series_10_c.jpg"" style=""width: 300px; height: 300px;"" />
              </div>","null",""
"","","","","","html-button-response","80","239192","0.0-80.0","DE8F40AB247A4F45A7D3661EA8139165","8b859202-6b01-47c6-a59b-071bbd13dbf0","61e1ec61-13c7-4a8f-bf47-a91ec9909364","","3037","
    <div style=""display: flex; justify-content: center; align-items: center;"">
      <img src=""images/red_deck_2.png"" style=""width: 300px; height: 300px; margin-right: 10px;"" />
      <img src=""images/blue_deck_1.png"" style=""width: 300px; height: 300px;"" />
    </div>","1","1"
"","","","","","html-keyboard-response","81","242195","0.0-81.0-1.0-0.0","DE8F40AB247A4F45A7D3661EA8139165","8b859202-6b01-47c6-a59b-071bbd13dbf0","61e1ec61-13c7-4a8f-bf47-a91ec9909364","","null","<div style=""display: flex; justify-content: center; align-items: center;"">
                <img src=""images/semantic/semantic_series_9/semantic_series_9_d.jpg"" style=""width: 300px; height: 300px;"" />
              </div>","null",""
"","","","","","html-keyboard-response","82","245196","0.0-82.0","DE8F40AB247A4F45A7D3661EA8139165","8b859202-6b01-47c6-a59b-071bbd13dbf0","61e1ec61-13c7-4a8f-bf47-a91ec9909364","","null","<div style=""display: flex; justify-content: center; align-items: center;"">
                <img src=""images/other/blank.jpg"" style=""width: 300px; height: 300px;"" />
              </div>","null",""
"","","","","","html-keyboard-response","83","248198","0.0-83.0","DE8F40AB247A4F45A7D3661EA8139165","8b859202-6b01-47c6-a59b-071bbd13dbf0","61e1ec61-13c7-4a8f-bf47-a91ec9909364","","null","<div style=""display: flex; justify-content: center; align-items: center;"">
                <img src=""images/causal/causal_series_7/causal_series_7_a.jpg"" style=""width: 300px; height: 300px;"" />
              </div>","null",""
"","","","","","html-keyboard-response","84","251200","0.0-84.0","DE8F40AB247A4F45A7D3661EA8139165","8b859202-6b01-47c6-a59b-071bbd13dbf0","61e1ec61-13c7-4a8f-bf47-a91ec9909364","","null","<div style=""display: flex; justify-content: center; align-items: center;"">
                <img src=""images/causal/causal_series_7/causal_series_7_b.jpg"" style=""width: 300px; height: 300px;"" />
              </div>","null",""
"","","","","","html-keyboard-response","85","254203","0.0-85.0","DE8F40AB247A4F45A7D3661EA8139165","8b859202-6b01-47c6-a59b-071bbd13dbf0","61e1ec61-13c7-4a8f-bf47-a91ec9909364","","null","<div style=""display: flex; justify-content: center; align-items: center;"">
                <img src=""images/causal/causal_series_7/causal_series_7_c.jpg"" style=""width: 300px; height: 300px;"" />
              </div>","null",""
"","","","","","html-button-response","86","261105","0.0-86.0","DE8F40AB247A4F45A7D3661EA8139165","8b859202-6b01-47c6-a59b-071bbd13dbf0","61e1ec61-13c7-4a8f-bf47-a91ec9909364","","6901","
    <div style=""display: flex; justify-content: center; align-items: center;"">
      <img src=""images/red_deck_2.png"" style=""width: 300px; height: 300px; margin-right: 10px;"" />
      <img src=""images/blue_deck_1.png"" style=""width: 300px; height: 300px;"" />
    </div>","1","1"
"","","","","","html-keyboard-response","87","264106","0.0-87.0-1.0-0.0","DE8F40AB247A4F45A7D3661EA8139165","8b859202-6b01-47c6-a59b-071bbd13dbf0","61e1ec61-13c7-4a8f-bf47-a91ec9909364","","null","<div style=""display: flex; justify-content: center; align-items: center;"">
                <img src=""images/semantic/semantic_series_6/semantic_series_6_d.jpg"" style=""width: 300px; height: 300px;"" />
              </div>","null",""
"","","","","","html-keyboard-response","88","267109","0.0-88.0","DE8F40AB247A4F45A7D3661EA8139165","8b859202-6b01-47c6-a59b-071bbd13dbf0","61e1ec61-13c7-4a8f-bf47-a91ec9909364","","null","<div style=""display: flex; justify-content: center; align-items: center;"">
                <img src=""images/other/blank.jpg"" style=""width: 300px; height: 300px;"" />
              </div>","null",""
"","","","","","html-keyboard-response","89","270111","0.0-89.0","DE8F40AB247A4F45A7D3661EA8139165","8b859202-6b01-47c6-a59b-071bbd13dbf0","61e1ec61-13c7-4a8f-bf47-a91ec9909364","","null","<div style=""display: flex; justify-content: center; align-items: center;"">
                <img src=""images/causal/causal_series_3/causal_series_3_a.jpg"" style=""width: 300px; height: 300px;"" />
              </div>","null",""
"","","","","","html-keyboard-response","90","273113","0.0-90.0","DE8F40AB247A4F45A7D3661EA8139165","8b859202-6b01-47c6-a59b-071bbd13dbf0","61e1ec61-13c7-4a8f-bf47-a91ec9909364","","null","<div style=""display: flex; justify-content: center; align-items: center;"">
                <img src=""images/causal/causal_series_3/causal_series_3_b.jpg"" style=""width: 300px; height: 300px;"" />
              </div>","null",""
"","","","","","html-keyboard-response","91","276116","0.0-91.0","DE8F40AB247A4F45A7D3661EA8139165","8b859202-6b01-47c6-a59b-071bbd13dbf0","61e1ec61-13c7-4a8f-bf47-a91ec9909364","","null","<div style=""display: flex; justify-content: center; align-items: center;"">
                <img src=""images/causal/causal_series_3/causal_series_3_c.jpg"" style=""width: 300px; height: 300px;"" />
              </div>","null",""
"","","","","","html-button-response","92","289313","0.0-92.0","DE8F40AB247A4F45A7D3661EA8139165","8b859202-6b01-47c6-a59b-071bbd13dbf0","61e1ec61-13c7-4a8f-bf47-a91ec9909364","","13196","
    <div style=""display: flex; justify-content: center; align-items: center;"">
      <img src=""images/red_deck_2.png"" style=""width: 300px; height: 300px; margin-right: 10px;"" />
      <img src=""images/blue_deck_1.png"" style=""width: 300px; height: 300px;"" />
    </div>","1","1"
"","","","","","html-keyboard-response","93","292316","0.0-93.0-1.0-0.0","DE8F40AB247A4F45A7D3661EA8139165","8b859202-6b01-47c6-a59b-071bbd13dbf0","61e1ec61-13c7-4a8f-bf47-a91ec9909364","","null","<div style=""display: flex; justify-content: center; align-items: center;"">
                <img src=""images/semantic/semantic_series_2/semantic_series_2_d.jpg"" style=""width: 300px; height: 300px;"" />
              </div>","null",""
"","","","","","html-keyboard-response","94","295318","0.0-94.0","DE8F40AB247A4F45A7D3661EA8139165","8b859202-6b01-47c6-a59b-071bbd13dbf0","61e1ec61-13c7-4a8f-bf47-a91ec9909364","","null","<div style=""display: flex; justify-content: center; align-items: center;"">
                <img src=""images/other/blank.jpg"" style=""width: 300px; height: 300px;"" />
              </div>","null",""
"","","","","","html-keyboard-response","95","298321","0.0-95.0","DE8F40AB247A4F45A7D3661EA8139165","8b859202-6b01-47c6-a59b-071bbd13dbf0","61e1ec61-13c7-4a8f-bf47-a91ec9909364","","null","<div style=""display: flex; justify-content: center; align-items: center;"">
                <img src=""images/causal/causal_series_13/causal_series_13_a.jpg"" style=""width: 300px; height: 300px;"" />
              </div>","null",""
"","","","","","html-keyboard-response","96","301323","0.0-96.0","DE8F40AB247A4F45A7D3661EA8139165","8b859202-6b01-47c6-a59b-071bbd13dbf0","61e1ec61-13c7-4a8f-bf47-a91ec9909364","","null","<div style=""display: flex; justify-content: center; align-items: center;"">
                <img src=""images/causal/causal_series_13/causal_series_13_b.jpg"" style=""width: 300px; height: 300px;"" />
              </div>","null",""
"","","","","","html-keyboard-response","97","304326","0.0-97.0","DE8F40AB247A4F45A7D3661EA8139165","8b859202-6b01-47c6-a59b-071bbd13dbf0","61e1ec61-13c7-4a8f-bf47-a91ec9909364","","null","<div style=""display: flex; justify-content: center; align-items: center;"">
                <img src=""images/causal/causal_series_13/causal_series_13_c.jpg"" style=""width: 300px; height: 300px;"" />
              </div>","null",""
"","","","","","html-button-response","98","306938","0.0-98.0","DE8F40AB247A4F45A7D3661EA8139165","8b859202-6b01-47c6-a59b-071bbd13dbf0","61e1ec61-13c7-4a8f-bf47-a91ec9909364","","2611","
    <div style=""display: flex; justify-content: center; align-items: center;"">
      <img src=""images/red_deck_2.png"" style=""width: 300px; height: 300px; margin-right: 10px;"" />
      <img src=""images/blue_deck_1.png"" style=""width: 300px; height: 300px;"" />
    </div>","1","1"
"","","","","","html-keyboard-response","99","309940","0.0-99.0-1.0-0.0","DE8F40AB247A4F45A7D3661EA8139165","8b859202-6b01-47c6-a59b-071bbd13dbf0","61e1ec61-13c7-4a8f-bf47-a91ec9909364","","null","<div style=""display: flex; justify-content: center; align-items: center;"">
                <img src=""images/semantic/semantic_series_12/semantic_series_12_d.jpg"" style=""width: 300px; height: 300px;"" />
              </div>","null",""
"","","","","","html-keyboard-response","100","312943","0.0-100.0","DE8F40AB247A4F45A7D3661EA8139165","8b859202-6b01-47c6-a59b-071bbd13dbf0","61e1ec61-13c7-4a8f-bf47-a91ec9909364","","null","<div style=""display: flex; justify-content: center; align-items: center;"">
                <img src=""images/other/blank.jpg"" style=""width: 300px; height: 300px;"" />
              </div>","null",""
"","","","","","html-keyboard-response","101","315945","0.0-101.0","DE8F40AB247A4F45A7D3661EA8139165","8b859202-6b01-47c6-a59b-071bbd13dbf0","61e1ec61-13c7-4a8f-bf47-a91ec9909364","","null","<div style=""display: flex; justify-content: center; align-items: center;"">
                <img src=""images/causal/causal_series_16/causal_series_16_a.jpg"" style=""width: 300px; height: 300px;"" />
              </div>","null",""
"","","","","","html-keyboard-response","102","318947","0.0-102.0","DE8F40AB247A4F45A7D3661EA8139165","8b859202-6b01-47c6-a59b-071bbd13dbf0","61e1ec61-13c7-4a8f-bf47-a91ec9909364","","null","<div style=""display: flex; justify-content: center; align-items: center;"">
                <img src=""images/causal/causal_series_16/causal_series_16_b.jpg"" style=""width: 300px; height: 300px;"" />
              </div>","null",""
"","","","","","html-keyboard-response","103","321949","0.0-103.0","DE8F40AB247A4F45A7D3661EA8139165","8b859202-6b01-47c6-a59b-071bbd13dbf0","61e1ec61-13c7-4a8f-bf47-a91ec9909364","","null","<div style=""display: flex; justify-content: center; align-items: center;"">
                <img src=""images/causal/causal_series_16/causal_series_16_c.jpg"" style=""width: 300px; height: 300px;"" />
              </div>","null",""
"","","","","","html-button-response","104","327435","0.0-104.0","DE8F40AB247A4F45A7D3661EA8139165","8b859202-6b01-47c6-a59b-071bbd13dbf0","61e1ec61-13c7-4a8f-bf47-a91ec9909364","","5485","
    <div style=""display: flex; justify-content: center; align-items: center;"">
      <img src=""images/red_deck_2.png"" style=""width: 300px; height: 300px; margin-right: 10px;"" />
      <img src=""images/blue_deck_1.png"" style=""width: 300px; height: 300px;"" />
    </div>","0","0"
"","","","","","html-keyboard-response","105","330437","0.0-105.0-0.0-0.0","DE8F40AB247A4F45A7D3661EA8139165","8b859202-6b01-47c6-a59b-071bbd13dbf0","61e1ec61-13c7-4a8f-bf47-a91ec9909364","","null","<div style=""display: flex; justify-content: center; align-items: center;"">
                <img src=""images/causal/causal_series_16/causal_series_16_d.jpg"" style=""width: 300px; height: 300px;"" />
              </div>","null",""
"","","","","","html-keyboard-response","106","333439","0.0-106.0","DE8F40AB247A4F45A7D3661EA8139165","8b859202-6b01-47c6-a59b-071bbd13dbf0","61e1ec61-13c7-4a8f-bf47-a91ec9909364","","null","<div style=""display: flex; justify-content: center; align-items: center;"">
                <img src=""images/other/blank.jpg"" style=""width: 300px; height: 300px;"" />
              </div>","null",""
"","","","","","html-keyboard-response","107","336441","0.0-107.0","DE8F40AB247A4F45A7D3661EA8139165","8b859202-6b01-47c6-a59b-071bbd13dbf0","61e1ec61-13c7-4a8f-bf47-a91ec9909364","","null","<div style=""display: flex; justify-content: center; align-items: center;"">
                <img src=""images/causal/causal_series_17/causal_series_17_a.jpg"" style=""width: 300px; height: 300px;"" />
              </div>","null",""
"","","","","","html-keyboard-response","108","339444","0.0-108.0","DE8F40AB247A4F45A7D3661EA8139165","8b859202-6b01-47c6-a59b-071bbd13dbf0","61e1ec61-13c7-4a8f-bf47-a91ec9909364","","null","<div style=""display: flex; justify-content: center; align-items: center;"">
                <img src=""images/causal/causal_series_17/causal_series_17_b.jpg"" style=""width: 300px; height: 300px;"" />
              </div>","null",""
"","","","","","html-keyboard-response","109","342446","0.0-109.0","DE8F40AB247A4F45A7D3661EA8139165","8b859202-6b01-47c6-a59b-071bbd13dbf0","61e1ec61-13c7-4a8f-bf47-a91ec9909364","","null","<div style=""display: flex; justify-content: center; align-items: center;"">
                <img src=""images/causal/causal_series_17/causal_series_17_c.jpg"" style=""width: 300px; height: 300px;"" />
              </div>","null",""
"","","","","","html-button-response","110","344655","0.0-110.0","DE8F40AB247A4F45A7D3661EA8139165","8b859202-6b01-47c6-a59b-071bbd13dbf0","61e1ec61-13c7-4a8f-bf47-a91ec9909364","","2208","
    <div style=""display: flex; justify-content: center; align-items: center;"">
      <img src=""images/red_deck_2.png"" style=""width: 300px; height: 300px; margin-right: 10px;"" />
      <img src=""images/blue_deck_1.png"" style=""width: 300px; height: 300px;"" />
    </div>","0","0"
"","","","","","html-keyboard-response","111","347657","0.0-111.0-0.0-0.0","DE8F40AB247A4F45A7D3661EA8139165","8b859202-6b01-47c6-a59b-071bbd13dbf0","61e1ec61-13c7-4a8f-bf47-a91ec9909364","","null","<div style=""display: flex; justify-content: center; align-items: center;"">
                <img src=""images/causal/causal_series_17/causal_series_17_d.jpg"" style=""width: 300px; height: 300px;"" />
              </div>","null",""
"","","","","","html-keyboard-response","112","350659","0.0-112.0","DE8F40AB247A4F45A7D3661EA8139165","8b859202-6b01-47c6-a59b-071bbd13dbf0","61e1ec61-13c7-4a8f-bf47-a91ec9909364","","null","<div style=""display: flex; justify-content: center; align-items: center;"">
                <img src=""images/other/blank.jpg"" style=""width: 300px; height: 300px;"" />
              </div>","null",""
"","","","","","survey-text","113","395350","0.0-113.0","DE8F40AB247A4F45A7D3661EA8139165","8b859202-6b01-47c6-a59b-071bbd13dbf0","61e1ec61-13c7-4a8f-bf47-a91ec9909364","","44687","","{""Q0"":""One seemed to be using more AI generated photos while the other looked more like it was drawn by real artists.""}",""
"","","","","","survey-text","114","423416","0.0-114.0","DE8F40AB247A4F45A7D3661EA8139165","8b859202-6b01-47c6-a59b-071bbd13dbf0","61e1ec61-13c7-4a8f-bf47-a91ec9909364","","28065","","{""Q0"":""I really like the deck of cards that seemed like they were made with watercolor, like the person in the rain in water color style""}",""
"","","","","","html-button-response","115","428964","0.0-115.0","DE8F40AB247A4F45A7D3661EA8139165","8b859202-6b01-47c6-a59b-071bbd13dbf0","61e1ec61-13c7-4a8f-bf47-a91ec9909364","","5547","Which color deck does the fourth image continue the story from the series?","0",""
"","","","","","html-button-response","116","430592","0.0-116.0","DE8F40AB247A4F45A7D3661EA8139165","8b859202-6b01-47c6-a59b-071bbd13dbf0","61e1ec61-13c7-4a8f-bf47-a91ec9909364","","1627","Which color deck does the fourth image not follow the story from the series?","1",""
"","","","","","survey-text","117","440847","0.0-117.0","DE8F40AB247A4F45A7D3661EA8139165","8b859202-6b01-47c6-a59b-071bbd13dbf0","61e1ec61-13c7-4a8f-bf47-a91ec9909364","","10253","","{""Q0"":""female"",""Q1"":""31""}",""
"","","","","","instructions","118","445691","0.0-118.0","DE8F40AB247A4F45A7D3661EA8139165","8b859202-6b01-47c6-a59b-071bbd13dbf0","61e1ec61-13c7-4a8f-bf47-a91ec9909364","[{""page_index"":0,""viewing_time"":4843}]","4843","","",""
