"success","timeout","failed_images","failed_audio","failed_video","trial_type","trial_index","time_elapsed","internal_node_id","subject_id","study_id","session_id","view_history","rt","stimulus","response","series","repetition","phase","choice","question_order"
"true","false","[]","[]","[]","preload","0","495","0.0-0.0","2C0C9B8E7BC24D5685941ABEC8123C20","0199d603-4733-7eb8-8e79-f55b3b1a9e65","0199d5ef-c7d4-7cab-a194-b2c3afbaf8e8","","","","","","","","",""
"","","","","","instructions","1","1952","0.0-1.0","2C0C9B8E7BC24D5685941ABEC8123C20","0199d603-4733-7eb8-8e79-f55b3b1a9e65","0199d5ef-c7d4-7cab-a194-b2c3afbaf8e8","[{""page_index"":0,""viewing_time"":1455}]","1455","","","","","","",""
"","","","","","instructions","2","12546","0.0-2.0","2C0C9B8E7BC24D5685941ABEC8123C20","0199d603-4733-7eb8-8e79-f55b3b1a9e65","0199d5ef-c7d4-7cab-a194-b2c3afbaf8e8","[{""page_index"":0,""viewing_time"":10593}]","10594","","","","","","",""
"true","","","","","fullscreen","3","15901","0.0-3.0","2C0C9B8E7BC24D5685941ABEC8123C20","0199d603-4733-7eb8-8e79-f55b3b1a9e65","0199d5ef-c7d4-7cab-a194-b2c3afbaf8e8","","2344","","","","","","",""
"","","","","","instructions","4","28007","0.0-4.0","2C0C9B8E7BC24D5685941ABEC8123C20","0199d603-4733-7eb8-8e79-f55b3b1a9e65","0199d5ef-c7d4-7cab-a194-b2c3afbaf8e8","[{""page_index"":0,""viewing_time"":12104}]","12104","","","","","","",""
"","","","","","html-keyboard-response","5","34023","0.0-5.0","2C0C9B8E7BC24D5685941ABEC8123C20","0199d603-4733-7eb8-8e79-f55b3b1a9e65","0199d5ef-c7d4-7cab-a194-b2c3afbaf8e8","","null","<div style=""display: flex; justify-content: center; align-items: center;"">
                     <img src=""images/causal/causal_series_4/causal_series_4_a.png"" style=""width: 300px; height: 300px;"" />
                   </div>","null","4","2","A","",""
"","","","","","html-keyboard-response","6","40033","0.0-6.0","2C0C9B8E7BC24D5685941ABEC8123C20","0199d603-4733-7eb8-8e79-f55b3b1a9e65","0199d5ef-c7d4-7cab-a194-b2c3afbaf8e8","","null","<div style=""display: flex; justify-content: center; align-items: center;"">
                     <img src=""images/causal/causal_series_4/causal_series_4_b.png"" style=""width: 300px; height: 300px;"" />
                   </div>","null","4","2","B","",""
"","","","","","html-keyboard-response","7","46035","0.0-7.0","2C0C9B8E7BC24D5685941ABEC8123C20","0199d603-4733-7eb8-8e79-f55b3b1a9e65","0199d5ef-c7d4-7cab-a194-b2c3afbaf8e8","","null","<div style=""display: flex; justify-content: center; align-items: center;"">
                     <img src=""images/causal/causal_series_4/causal_series_4_c.png"" style=""width: 300px; height: 300px;"" />
                   </div>","null","4","2","C","",""
"","","","","","html-button-response","8","48917","0.0-8.0","2C0C9B8E7BC24D5685941ABEC8123C20","0199d603-4733-7eb8-8e79-f55b3b1a9e65","0199d5ef-c7d4-7cab-a194-b2c3afbaf8e8","","2880","
        <div style=""display: flex; justify-content: center; align-items: center;"">
          <img src=""images/red_deck_2.png"" style=""width: 300px; height: 300px; margin-right: 10px;"" />
          <img src=""images/blue_deck_1.png"" style=""width: 300px; height: 300px;"" />
        </div>","0","4","2","choice","0",""
"","","","","","html-keyboard-response","9","54921","0.0-9.0-0.0-0.0","2C0C9B8E7BC24D5685941ABEC8123C20","0199d603-4733-7eb8-8e79-f55b3b1a9e65","0199d5ef-c7d4-7cab-a194-b2c3afbaf8e8","","null","<div style=""display: flex; justify-content: center; align-items: center;"">
                     <img src=""images/causal/causal_series_4/causal_series_4_d.png"" style=""width: 300px; height: 300px;"" />
                   </div>","null","4","2","D","",""
"","","","","","html-keyboard-response","10","60934","0.0-9.0-0.0-1.0","2C0C9B8E7BC24D5685941ABEC8123C20","0199d603-4733-7eb8-8e79-f55b3b1a9e65","0199d5ef-c7d4-7cab-a194-b2c3afbaf8e8","","null","<div style=""display: flex; justify-content: center; align-items: center;"">
                     <img src=""images/causal/causal_series_4/causal_series_4_e.png"" style=""width: 300px; height: 300px;"" />
                   </div>","null","4","2","E","",""
"","","","","","html-keyboard-response","11","66941","0.0-9.0-0.0-2.0","2C0C9B8E7BC24D5685941ABEC8123C20","0199d603-4733-7eb8-8e79-f55b3b1a9e65","0199d5ef-c7d4-7cab-a194-b2c3afbaf8e8","","null","<div style=""display: flex; justify-content: center; align-items: center;"">
                     <img src=""images/causal/causal_series_4/causal_series_4_f.png"" style=""width: 300px; height: 300px;"" />
                   </div>","null","4","2","F","",""
"","","","","","survey-likert","12","72670","0.0-10.0","2C0C9B8E7BC24D5685941ABEC8123C20","0199d603-4733-7eb8-8e79-f55b3b1a9e65","0199d5ef-c7d4-7cab-a194-b2c3afbaf8e8","","5726","","{""Q0"":4}","4","2","surprise_rating","","[0]"
"","","","","","survey-likert","13","75362","0.0-11.0","2C0C9B8E7BC24D5685941ABEC8123C20","0199d603-4733-7eb8-8e79-f55b3b1a9e65","0199d5ef-c7d4-7cab-a194-b2c3afbaf8e8","","2691","","{""Q0"":4}","4","2","enjoyment_rating","","[0]"
"","","","","","html-keyboard-response","14","81363","0.0-12.0","2C0C9B8E7BC24D5685941ABEC8123C20","0199d603-4733-7eb8-8e79-f55b3b1a9e65","0199d5ef-c7d4-7cab-a194-b2c3afbaf8e8","","null","<div style=""display: flex; justify-content: center; align-items: center;"">
                     <img src=""images/other/blank.png"" style=""width: 300px; height: 300px;"" />
                   </div>","null","0","0","blank","",""
"","","","","","html-keyboard-response","15","87378","0.0-13.0","2C0C9B8E7BC24D5685941ABEC8123C20","0199d603-4733-7eb8-8e79-f55b3b1a9e65","0199d5ef-c7d4-7cab-a194-b2c3afbaf8e8","","null","<div style=""display: flex; justify-content: center; align-items: center;"">
                     <img src=""images/causal/causal_series_1/causal_series_1_a.png"" style=""width: 300px; height: 300px;"" />
                   </div>","null","1","2","A","",""
"","","","","","html-keyboard-response","16","93380","0.0-14.0","2C0C9B8E7BC24D5685941ABEC8123C20","0199d603-4733-7eb8-8e79-f55b3b1a9e65","0199d5ef-c7d4-7cab-a194-b2c3afbaf8e8","","null","<div style=""display: flex; justify-content: center; align-items: center;"">
                     <img src=""images/causal/causal_series_1/causal_series_1_b.png"" style=""width: 300px; height: 300px;"" />
                   </div>","null","1","2","B","",""
"","","","","","html-keyboard-response","17","99383","0.0-15.0","2C0C9B8E7BC24D5685941ABEC8123C20","0199d603-4733-7eb8-8e79-f55b3b1a9e65","0199d5ef-c7d4-7cab-a194-b2c3afbaf8e8","","null","<div style=""display: flex; justify-content: center; align-items: center;"">
                     <img src=""images/causal/causal_series_1/causal_series_1_c.png"" style=""width: 300px; height: 300px;"" />
                   </div>","null","1","2","C","",""
"","","","","","html-button-response","18","102785","0.0-16.0","2C0C9B8E7BC24D5685941ABEC8123C20","0199d603-4733-7eb8-8e79-f55b3b1a9e65","0199d5ef-c7d4-7cab-a194-b2c3afbaf8e8","","3400","
        <div style=""display: flex; justify-content: center; align-items: center;"">
          <img src=""images/red_deck_2.png"" style=""width: 300px; height: 300px; margin-right: 10px;"" />
          <img src=""images/blue_deck_1.png"" style=""width: 300px; height: 300px;"" />
        </div>","1","1","2","choice","1",""
"","","","","","html-keyboard-response","19","108787","0.0-17.0-1.0-0.0","2C0C9B8E7BC24D5685941ABEC8123C20","0199d603-4733-7eb8-8e79-f55b3b1a9e65","0199d5ef-c7d4-7cab-a194-b2c3afbaf8e8","","null","<div style=""display: flex; justify-content: center; align-items: center;"">
                     <img src=""images/semantic/semantic_series_1/semantic_series_1_d.png"" style=""width: 300px; height: 300px;"" />
                   </div>","null","1","2","D","",""
"","","","","","html-keyboard-response","20","114790","0.0-17.0-1.0-1.0","2C0C9B8E7BC24D5685941ABEC8123C20","0199d603-4733-7eb8-8e79-f55b3b1a9e65","0199d5ef-c7d4-7cab-a194-b2c3afbaf8e8","","null","<div style=""display: flex; justify-content: center; align-items: center;"">
                     <img src=""images/semantic/semantic_series_1/semantic_series_1_e.png"" style=""width: 300px; height: 300px;"" />
                   </div>","null","1","2","E","",""
"","","","","","html-keyboard-response","21","120800","0.0-17.0-1.0-2.0","2C0C9B8E7BC24D5685941ABEC8123C20","0199d603-4733-7eb8-8e79-f55b3b1a9e65","0199d5ef-c7d4-7cab-a194-b2c3afbaf8e8","","null","<div style=""display: flex; justify-content: center; align-items: center;"">
                     <img src=""images/semantic/semantic_series_1/semantic_series_1_f.png"" style=""width: 300px; height: 300px;"" />
                   </div>","null","1","2","F","",""
"","","","","","survey-likert","22","126240","0.0-18.0","2C0C9B8E7BC24D5685941ABEC8123C20","0199d603-4733-7eb8-8e79-f55b3b1a9e65","0199d5ef-c7d4-7cab-a194-b2c3afbaf8e8","","5439","","{""Q0"":1}","1","2","surprise_rating","","[0]"
"","","","","","survey-likert","23","129418","0.0-19.0","2C0C9B8E7BC24D5685941ABEC8123C20","0199d603-4733-7eb8-8e79-f55b3b1a9e65","0199d5ef-c7d4-7cab-a194-b2c3afbaf8e8","","3176","","{""Q0"":2}","1","2","enjoyment_rating","","[0]"
"","","","","","html-keyboard-response","24","135421","0.0-20.0","2C0C9B8E7BC24D5685941ABEC8123C20","0199d603-4733-7eb8-8e79-f55b3b1a9e65","0199d5ef-c7d4-7cab-a194-b2c3afbaf8e8","","null","<div style=""display: flex; justify-content: center; align-items: center;"">
                     <img src=""images/other/blank.png"" style=""width: 300px; height: 300px;"" />
                   </div>","null","0","0","blank","",""
"","","","","","html-keyboard-response","25","141432","0.0-21.0","2C0C9B8E7BC24D5685941ABEC8123C20","0199d603-4733-7eb8-8e79-f55b3b1a9e65","0199d5ef-c7d4-7cab-a194-b2c3afbaf8e8","","null","<div style=""display: flex; justify-content: center; align-items: center;"">
                     <img src=""images/causal/causal_series_10/causal_series_10_a.png"" style=""width: 300px; height: 300px;"" />
                   </div>","null","10","1","A","",""
"","","","","","html-keyboard-response","26","147445","0.0-22.0","2C0C9B8E7BC24D5685941ABEC8123C20","0199d603-4733-7eb8-8e79-f55b3b1a9e65","0199d5ef-c7d4-7cab-a194-b2c3afbaf8e8","","null","<div style=""display: flex; justify-content: center; align-items: center;"">
                     <img src=""images/causal/causal_series_10/causal_series_10_b.png"" style=""width: 300px; height: 300px;"" />
                   </div>","null","10","1","B","",""
"","","","","","html-keyboard-response","27","153460","0.0-23.0","2C0C9B8E7BC24D5685941ABEC8123C20","0199d603-4733-7eb8-8e79-f55b3b1a9e65","0199d5ef-c7d4-7cab-a194-b2c3afbaf8e8","","null","<div style=""display: flex; justify-content: center; align-items: center;"">
                     <img src=""images/causal/causal_series_10/causal_series_10_c.png"" style=""width: 300px; height: 300px;"" />
                   </div>","null","10","1","C","",""
"","","","","","html-button-response","28","156709","0.0-24.0","2C0C9B8E7BC24D5685941ABEC8123C20","0199d603-4733-7eb8-8e79-f55b3b1a9e65","0199d5ef-c7d4-7cab-a194-b2c3afbaf8e8","","3247","
        <div style=""display: flex; justify-content: center; align-items: center;"">
          <img src=""images/red_deck_2.png"" style=""width: 300px; height: 300px; margin-right: 10px;"" />
          <img src=""images/blue_deck_1.png"" style=""width: 300px; height: 300px;"" />
        </div>","1","10","1","choice","1",""
"","","","","","html-keyboard-response","29","162723","0.0-25.0-1.0-0.0","2C0C9B8E7BC24D5685941ABEC8123C20","0199d603-4733-7eb8-8e79-f55b3b1a9e65","0199d5ef-c7d4-7cab-a194-b2c3afbaf8e8","","null","<div style=""display: flex; justify-content: center; align-items: center;"">
                     <img src=""images/semantic/semantic_series_10/semantic_series_10_d.png"" style=""width: 300px; height: 300px;"" />
                   </div>","null","10","1","D","",""
"","","","","","html-keyboard-response","30","168732","0.0-25.0-1.0-1.0","2C0C9B8E7BC24D5685941ABEC8123C20","0199d603-4733-7eb8-8e79-f55b3b1a9e65","0199d5ef-c7d4-7cab-a194-b2c3afbaf8e8","","null","<div style=""display: flex; justify-content: center; align-items: center;"">
                     <img src=""images/semantic/semantic_series_10/semantic_series_10_e.png"" style=""width: 300px; height: 300px;"" />
                   </div>","null","10","1","E","",""
"","","","","","html-keyboard-response","31","174741","0.0-25.0-1.0-2.0","2C0C9B8E7BC24D5685941ABEC8123C20","0199d603-4733-7eb8-8e79-f55b3b1a9e65","0199d5ef-c7d4-7cab-a194-b2c3afbaf8e8","","null","<div style=""display: flex; justify-content: center; align-items: center;"">
                     <img src=""images/semantic/semantic_series_10/semantic_series_10_f.png"" style=""width: 300px; height: 300px;"" />
                   </div>","null","10","1","F","",""
"","","","","","survey-likert","32","178891","0.0-26.0","2C0C9B8E7BC24D5685941ABEC8123C20","0199d603-4733-7eb8-8e79-f55b3b1a9e65","0199d5ef-c7d4-7cab-a194-b2c3afbaf8e8","","4149","","{""Q0"":3}","10","1","surprise_rating","","[0]"
"","","","","","survey-likert","33","185128","0.0-27.0","2C0C9B8E7BC24D5685941ABEC8123C20","0199d603-4733-7eb8-8e79-f55b3b1a9e65","0199d5ef-c7d4-7cab-a194-b2c3afbaf8e8","","6236","","{""Q0"":3}","10","1","enjoyment_rating","","[0]"
"","","","","","html-keyboard-response","34","191131","0.0-28.0","2C0C9B8E7BC24D5685941ABEC8123C20","0199d603-4733-7eb8-8e79-f55b3b1a9e65","0199d5ef-c7d4-7cab-a194-b2c3afbaf8e8","","null","<div style=""display: flex; justify-content: center; align-items: center;"">
                     <img src=""images/other/blank.png"" style=""width: 300px; height: 300px;"" />
                   </div>","null","0","0","blank","",""
"","","","","","html-keyboard-response","35","197134","0.0-29.0","2C0C9B8E7BC24D5685941ABEC8123C20","0199d603-4733-7eb8-8e79-f55b3b1a9e65","0199d5ef-c7d4-7cab-a194-b2c3afbaf8e8","","null","<div style=""display: flex; justify-content: center; align-items: center;"">
                     <img src=""images/causal/causal_series_4/causal_series_4_a.png"" style=""width: 300px; height: 300px;"" />
                   </div>","null","4","1","A","",""
"","","","","","html-keyboard-response","36","203136","0.0-30.0","2C0C9B8E7BC24D5685941ABEC8123C20","0199d603-4733-7eb8-8e79-f55b3b1a9e65","0199d5ef-c7d4-7cab-a194-b2c3afbaf8e8","","null","<div style=""display: flex; justify-content: center; align-items: center;"">
                     <img src=""images/causal/causal_series_4/causal_series_4_b.png"" style=""width: 300px; height: 300px;"" />
                   </div>","null","4","1","B","",""
"","","","","","html-keyboard-response","37","209152","0.0-31.0","2C0C9B8E7BC24D5685941ABEC8123C20","0199d603-4733-7eb8-8e79-f55b3b1a9e65","0199d5ef-c7d4-7cab-a194-b2c3afbaf8e8","","null","<div style=""display: flex; justify-content: center; align-items: center;"">
                     <img src=""images/causal/causal_series_4/causal_series_4_c.png"" style=""width: 300px; height: 300px;"" />
                   </div>","null","4","1","C","",""
"","","","","","html-button-response","38","210583","0.0-32.0","2C0C9B8E7BC24D5685941ABEC8123C20","0199d603-4733-7eb8-8e79-f55b3b1a9e65","0199d5ef-c7d4-7cab-a194-b2c3afbaf8e8","","1430","
        <div style=""display: flex; justify-content: center; align-items: center;"">
          <img src=""images/red_deck_2.png"" style=""width: 300px; height: 300px; margin-right: 10px;"" />
          <img src=""images/blue_deck_1.png"" style=""width: 300px; height: 300px;"" />
        </div>","1","4","1","choice","1",""
"","","","","","html-keyboard-response","39","216600","0.0-33.0-1.0-0.0","2C0C9B8E7BC24D5685941ABEC8123C20","0199d603-4733-7eb8-8e79-f55b3b1a9e65","0199d5ef-c7d4-7cab-a194-b2c3afbaf8e8","","null","<div style=""display: flex; justify-content: center; align-items: center;"">
                     <img src=""images/semantic/semantic_series_4/semantic_series_4_d.png"" style=""width: 300px; height: 300px;"" />
                   </div>","null","4","1","D","",""
"","","","","","html-keyboard-response","40","222603","0.0-33.0-1.0-1.0","2C0C9B8E7BC24D5685941ABEC8123C20","0199d603-4733-7eb8-8e79-f55b3b1a9e65","0199d5ef-c7d4-7cab-a194-b2c3afbaf8e8","","null","<div style=""display: flex; justify-content: center; align-items: center;"">
                     <img src=""images/semantic/semantic_series_4/semantic_series_4_e.png"" style=""width: 300px; height: 300px;"" />
                   </div>","null","4","1","E","",""
"","","","","","html-keyboard-response","41","228612","0.0-33.0-1.0-2.0","2C0C9B8E7BC24D5685941ABEC8123C20","0199d603-4733-7eb8-8e79-f55b3b1a9e65","0199d5ef-c7d4-7cab-a194-b2c3afbaf8e8","","null","<div style=""display: flex; justify-content: center; align-items: center;"">
                     <img src=""images/semantic/semantic_series_4/semantic_series_4_f.png"" style=""width: 300px; height: 300px;"" />
                   </div>","null","4","1","F","",""
"","","","","","survey-likert","42","235836","0.0-34.0","2C0C9B8E7BC24D5685941ABEC8123C20","0199d603-4733-7eb8-8e79-f55b3b1a9e65","0199d5ef-c7d4-7cab-a194-b2c3afbaf8e8","","7223","","{""Q0"":3}","4","1","surprise_rating","","[0]"
"","","","","","survey-likert","43","238654","0.0-35.0","2C0C9B8E7BC24D5685941ABEC8123C20","0199d603-4733-7eb8-8e79-f55b3b1a9e65","0199d5ef-c7d4-7cab-a194-b2c3afbaf8e8","","2817","","{""Q0"":4}","4","1","enjoyment_rating","","[0]"
"","","","","","html-keyboard-response","44","244670","0.0-36.0","2C0C9B8E7BC24D5685941ABEC8123C20","0199d603-4733-7eb8-8e79-f55b3b1a9e65","0199d5ef-c7d4-7cab-a194-b2c3afbaf8e8","","null","<div style=""display: flex; justify-content: center; align-items: center;"">
                     <img src=""images/other/blank.png"" style=""width: 300px; height: 300px;"" />
                   </div>","null","0","0","blank","",""
"","","","","","html-keyboard-response","45","250683","0.0-37.0","2C0C9B8E7BC24D5685941ABEC8123C20","0199d603-4733-7eb8-8e79-f55b3b1a9e65","0199d5ef-c7d4-7cab-a194-b2c3afbaf8e8","","null","<div style=""display: flex; justify-content: center; align-items: center;"">
                     <img src=""images/causal/causal_series_10/causal_series_10_a.png"" style=""width: 300px; height: 300px;"" />
                   </div>","null","10","2","A","",""
"","","","","","html-keyboard-response","46","256688","0.0-38.0","2C0C9B8E7BC24D5685941ABEC8123C20","0199d603-4733-7eb8-8e79-f55b3b1a9e65","0199d5ef-c7d4-7cab-a194-b2c3afbaf8e8","","null","<div style=""display: flex; justify-content: center; align-items: center;"">
                     <img src=""images/causal/causal_series_10/causal_series_10_b.png"" style=""width: 300px; height: 300px;"" />
                   </div>","null","10","2","B","",""
"","","","","","html-keyboard-response","47","262698","0.0-39.0","2C0C9B8E7BC24D5685941ABEC8123C20","0199d603-4733-7eb8-8e79-f55b3b1a9e65","0199d5ef-c7d4-7cab-a194-b2c3afbaf8e8","","null","<div style=""display: flex; justify-content: center; align-items: center;"">
                     <img src=""images/causal/causal_series_10/causal_series_10_c.png"" style=""width: 300px; height: 300px;"" />
                   </div>","null","10","2","C","",""
"","","","","","html-button-response","48","263956","0.0-40.0","2C0C9B8E7BC24D5685941ABEC8123C20","0199d603-4733-7eb8-8e79-f55b3b1a9e65","0199d5ef-c7d4-7cab-a194-b2c3afbaf8e8","","1257","
        <div style=""display: flex; justify-content: center; align-items: center;"">
          <img src=""images/red_deck_2.png"" style=""width: 300px; height: 300px; margin-right: 10px;"" />
          <img src=""images/blue_deck_1.png"" style=""width: 300px; height: 300px;"" />
        </div>","0","10","2","choice","0",""
"","","","","","html-keyboard-response","49","269965","0.0-41.0-0.0-0.0","2C0C9B8E7BC24D5685941ABEC8123C20","0199d603-4733-7eb8-8e79-f55b3b1a9e65","0199d5ef-c7d4-7cab-a194-b2c3afbaf8e8","","null","<div style=""display: flex; justify-content: center; align-items: center;"">
                     <img src=""images/causal/causal_series_10/causal_series_10_d.png"" style=""width: 300px; height: 300px;"" />
                   </div>","null","10","2","D","",""
"","","","","","html-keyboard-response","50","275972","0.0-41.0-0.0-1.0","2C0C9B8E7BC24D5685941ABEC8123C20","0199d603-4733-7eb8-8e79-f55b3b1a9e65","0199d5ef-c7d4-7cab-a194-b2c3afbaf8e8","","null","<div style=""display: flex; justify-content: center; align-items: center;"">
                     <img src=""images/causal/causal_series_10/causal_series_10_e.png"" style=""width: 300px; height: 300px;"" />
                   </div>","null","10","2","E","",""
"","","","","","html-keyboard-response","51","281982","0.0-41.0-0.0-2.0","2C0C9B8E7BC24D5685941ABEC8123C20","0199d603-4733-7eb8-8e79-f55b3b1a9e65","0199d5ef-c7d4-7cab-a194-b2c3afbaf8e8","","null","<div style=""display: flex; justify-content: center; align-items: center;"">
                     <img src=""images/causal/causal_series_10/causal_series_10_f.png"" style=""width: 300px; height: 300px;"" />
                   </div>","null","10","2","F","",""
"","","","","","survey-likert","52","285475","0.0-42.0","2C0C9B8E7BC24D5685941ABEC8123C20","0199d603-4733-7eb8-8e79-f55b3b1a9e65","0199d5ef-c7d4-7cab-a194-b2c3afbaf8e8","","3492","","{""Q0"":4}","10","2","surprise_rating","","[0]"
"","","","","","survey-likert","53","289552","0.0-43.0","2C0C9B8E7BC24D5685941ABEC8123C20","0199d603-4733-7eb8-8e79-f55b3b1a9e65","0199d5ef-c7d4-7cab-a194-b2c3afbaf8e8","","4076","","{""Q0"":3}","10","2","enjoyment_rating","","[0]"
"","","","","","html-keyboard-response","54","295559","0.0-44.0","2C0C9B8E7BC24D5685941ABEC8123C20","0199d603-4733-7eb8-8e79-f55b3b1a9e65","0199d5ef-c7d4-7cab-a194-b2c3afbaf8e8","","null","<div style=""display: flex; justify-content: center; align-items: center;"">
                     <img src=""images/other/blank.png"" style=""width: 300px; height: 300px;"" />
                   </div>","null","0","0","blank","",""
"","","","","","html-keyboard-response","55","301574","0.0-45.0","2C0C9B8E7BC24D5685941ABEC8123C20","0199d603-4733-7eb8-8e79-f55b3b1a9e65","0199d5ef-c7d4-7cab-a194-b2c3afbaf8e8","","null","<div style=""display: flex; justify-content: center; align-items: center;"">
                     <img src=""images/causal/causal_series_7/causal_series_7_a.png"" style=""width: 300px; height: 300px;"" />
                   </div>","null","7","1","A","",""
"","","","","","html-keyboard-response","56","307586","0.0-46.0","2C0C9B8E7BC24D5685941ABEC8123C20","0199d603-4733-7eb8-8e79-f55b3b1a9e65","0199d5ef-c7d4-7cab-a194-b2c3afbaf8e8","","null","<div style=""display: flex; justify-content: center; align-items: center;"">
                     <img src=""images/causal/causal_series_7/causal_series_7_b.png"" style=""width: 300px; height: 300px;"" />
                   </div>","null","7","1","B","",""
"","","","","","html-keyboard-response","57","313602","0.0-47.0","2C0C9B8E7BC24D5685941ABEC8123C20","0199d603-4733-7eb8-8e79-f55b3b1a9e65","0199d5ef-c7d4-7cab-a194-b2c3afbaf8e8","","null","<div style=""display: flex; justify-content: center; align-items: center;"">
                     <img src=""images/causal/causal_series_7/causal_series_7_c.png"" style=""width: 300px; height: 300px;"" />
                   </div>","null","7","1","C","",""
"","","","","","html-button-response","58","314913","0.0-48.0","2C0C9B8E7BC24D5685941ABEC8123C20","0199d603-4733-7eb8-8e79-f55b3b1a9e65","0199d5ef-c7d4-7cab-a194-b2c3afbaf8e8","","1309","
        <div style=""display: flex; justify-content: center; align-items: center;"">
          <img src=""images/red_deck_2.png"" style=""width: 300px; height: 300px; margin-right: 10px;"" />
          <img src=""images/blue_deck_1.png"" style=""width: 300px; height: 300px;"" />
        </div>","0","7","1","choice","0",""
"","","","","","html-keyboard-response","59","320922","0.0-49.0-0.0-0.0","2C0C9B8E7BC24D5685941ABEC8123C20","0199d603-4733-7eb8-8e79-f55b3b1a9e65","0199d5ef-c7d4-7cab-a194-b2c3afbaf8e8","","null","<div style=""display: flex; justify-content: center; align-items: center;"">
                     <img src=""images/causal/causal_series_7/causal_series_7_d.png"" style=""width: 300px; height: 300px;"" />
                   </div>","null","7","1","D","",""
"","","","","","html-keyboard-response","60","326938","0.0-49.0-0.0-1.0","2C0C9B8E7BC24D5685941ABEC8123C20","0199d603-4733-7eb8-8e79-f55b3b1a9e65","0199d5ef-c7d4-7cab-a194-b2c3afbaf8e8","","null","<div style=""display: flex; justify-content: center; align-items: center;"">
                     <img src=""images/causal/causal_series_7/causal_series_7_e.png"" style=""width: 300px; height: 300px;"" />
                   </div>","null","7","1","E","",""
"","","","","","html-keyboard-response","61","332953","0.0-49.0-0.0-2.0","2C0C9B8E7BC24D5685941ABEC8123C20","0199d603-4733-7eb8-8e79-f55b3b1a9e65","0199d5ef-c7d4-7cab-a194-b2c3afbaf8e8","","null","<div style=""display: flex; justify-content: center; align-items: center;"">
                     <img src=""images/causal/causal_series_7/causal_series_7_f.png"" style=""width: 300px; height: 300px;"" />
                   </div>","null","7","1","F","",""
"","","","","","survey-likert","62","335323","0.0-50.0","2C0C9B8E7BC24D5685941ABEC8123C20","0199d603-4733-7eb8-8e79-f55b3b1a9e65","0199d5ef-c7d4-7cab-a194-b2c3afbaf8e8","","2369","","{""Q0"":4}","7","1","surprise_rating","","[0]"
"","","","","","survey-likert","63","339113","0.0-51.0","2C0C9B8E7BC24D5685941ABEC8123C20","0199d603-4733-7eb8-8e79-f55b3b1a9e65","0199d5ef-c7d4-7cab-a194-b2c3afbaf8e8","","3789","","{""Q0"":3}","7","1","enjoyment_rating","","[0]"
"","","","","","html-keyboard-response","64","345122","0.0-52.0","2C0C9B8E7BC24D5685941ABEC8123C20","0199d603-4733-7eb8-8e79-f55b3b1a9e65","0199d5ef-c7d4-7cab-a194-b2c3afbaf8e8","","null","<div style=""display: flex; justify-content: center; align-items: center;"">
                     <img src=""images/other/blank.png"" style=""width: 300px; height: 300px;"" />
                   </div>","null","0","0","blank","",""
"","","","","","html-keyboard-response","65","351129","0.0-53.0","2C0C9B8E7BC24D5685941ABEC8123C20","0199d603-4733-7eb8-8e79-f55b3b1a9e65","0199d5ef-c7d4-7cab-a194-b2c3afbaf8e8","","null","<div style=""display: flex; justify-content: center; align-items: center;"">
                     <img src=""images/causal/causal_series_5/causal_series_5_a.png"" style=""width: 300px; height: 300px;"" />
                   </div>","null","5","1","A","",""
"","","","","","html-keyboard-response","66","357140","0.0-54.0","2C0C9B8E7BC24D5685941ABEC8123C20","0199d603-4733-7eb8-8e79-f55b3b1a9e65","0199d5ef-c7d4-7cab-a194-b2c3afbaf8e8","","null","<div style=""display: flex; justify-content: center; align-items: center;"">
                     <img src=""images/causal/causal_series_5/causal_series_5_b.png"" style=""width: 300px; height: 300px;"" />
                   </div>","null","5","1","B","",""
"","","","","","html-keyboard-response","67","363155","0.0-55.0","2C0C9B8E7BC24D5685941ABEC8123C20","0199d603-4733-7eb8-8e79-f55b3b1a9e65","0199d5ef-c7d4-7cab-a194-b2c3afbaf8e8","","null","<div style=""display: flex; justify-content: center; align-items: center;"">
                     <img src=""images/causal/causal_series_5/causal_series_5_c.png"" style=""width: 300px; height: 300px;"" />
                   </div>","null","5","1","C","",""
"","","","","","html-button-response","68","366698","0.0-56.0","2C0C9B8E7BC24D5685941ABEC8123C20","0199d603-4733-7eb8-8e79-f55b3b1a9e65","0199d5ef-c7d4-7cab-a194-b2c3afbaf8e8","","3542","
        <div style=""display: flex; justify-content: center; align-items: center;"">
          <img src=""images/red_deck_2.png"" style=""width: 300px; height: 300px; margin-right: 10px;"" />
          <img src=""images/blue_deck_1.png"" style=""width: 300px; height: 300px;"" />
        </div>","0","5","1","choice","0",""
"","","","","","html-keyboard-response","69","372708","0.0-57.0-0.0-0.0","2C0C9B8E7BC24D5685941ABEC8123C20","0199d603-4733-7eb8-8e79-f55b3b1a9e65","0199d5ef-c7d4-7cab-a194-b2c3afbaf8e8","","null","<div style=""display: flex; justify-content: center; align-items: center;"">
                     <img src=""images/causal/causal_series_5/causal_series_5_d.png"" style=""width: 300px; height: 300px;"" />
                   </div>","null","5","1","D","",""
"","","","","","html-keyboard-response","70","378723","0.0-57.0-0.0-1.0","2C0C9B8E7BC24D5685941ABEC8123C20","0199d603-4733-7eb8-8e79-f55b3b1a9e65","0199d5ef-c7d4-7cab-a194-b2c3afbaf8e8","","null","<div style=""display: flex; justify-content: center; align-items: center;"">
                     <img src=""images/causal/causal_series_5/causal_series_5_e.png"" style=""width: 300px; height: 300px;"" />
                   </div>","null","5","1","E","",""
"","","","","","html-keyboard-response","71","384730","0.0-57.0-0.0-2.0","2C0C9B8E7BC24D5685941ABEC8123C20","0199d603-4733-7eb8-8e79-f55b3b1a9e65","0199d5ef-c7d4-7cab-a194-b2c3afbaf8e8","","null","<div style=""display: flex; justify-content: center; align-items: center;"">
                     <img src=""images/causal/causal_series_5/causal_series_5_f.png"" style=""width: 300px; height: 300px;"" />
                   </div>","null","5","1","F","",""
"","","","","","survey-likert","72","387128","0.0-58.0","2C0C9B8E7BC24D5685941ABEC8123C20","0199d603-4733-7eb8-8e79-f55b3b1a9e65","0199d5ef-c7d4-7cab-a194-b2c3afbaf8e8","","2396","","{""Q0"":4}","5","1","surprise_rating","","[0]"
"","","","","","survey-likert","73","389029","0.0-59.0","2C0C9B8E7BC24D5685941ABEC8123C20","0199d603-4733-7eb8-8e79-f55b3b1a9e65","0199d5ef-c7d4-7cab-a194-b2c3afbaf8e8","","1900","","{""Q0"":4}","5","1","enjoyment_rating","","[0]"
"","","","","","html-keyboard-response","74","395037","0.0-60.0","2C0C9B8E7BC24D5685941ABEC8123C20","0199d603-4733-7eb8-8e79-f55b3b1a9e65","0199d5ef-c7d4-7cab-a194-b2c3afbaf8e8","","null","<div style=""display: flex; justify-content: center; align-items: center;"">
                     <img src=""images/other/blank.png"" style=""width: 300px; height: 300px;"" />
                   </div>","null","0","0","blank","",""
"","","","","","html-keyboard-response","75","401045","0.0-61.0","2C0C9B8E7BC24D5685941ABEC8123C20","0199d603-4733-7eb8-8e79-f55b3b1a9e65","0199d5ef-c7d4-7cab-a194-b2c3afbaf8e8","","null","<div style=""display: flex; justify-content: center; align-items: center;"">
                     <img src=""images/causal/causal_series_9/causal_series_9_a.png"" style=""width: 300px; height: 300px;"" />
                   </div>","null","9","1","A","",""
"","","","","","html-keyboard-response","76","407053","0.0-62.0","2C0C9B8E7BC24D5685941ABEC8123C20","0199d603-4733-7eb8-8e79-f55b3b1a9e65","0199d5ef-c7d4-7cab-a194-b2c3afbaf8e8","","null","<div style=""display: flex; justify-content: center; align-items: center;"">
                     <img src=""images/causal/causal_series_9/causal_series_9_b.png"" style=""width: 300px; height: 300px;"" />
                   </div>","null","9","1","B","",""
"","","","","","html-keyboard-response","77","413057","0.0-63.0","2C0C9B8E7BC24D5685941ABEC8123C20","0199d603-4733-7eb8-8e79-f55b3b1a9e65","0199d5ef-c7d4-7cab-a194-b2c3afbaf8e8","","null","<div style=""display: flex; justify-content: center; align-items: center;"">
                     <img src=""images/causal/causal_series_9/causal_series_9_c.png"" style=""width: 300px; height: 300px;"" />
                   </div>","null","9","1","C","",""
"","","","","","html-button-response","78","414194","0.0-64.0","2C0C9B8E7BC24D5685941ABEC8123C20","0199d603-4733-7eb8-8e79-f55b3b1a9e65","0199d5ef-c7d4-7cab-a194-b2c3afbaf8e8","","1135","
        <div style=""display: flex; justify-content: center; align-items: center;"">
          <img src=""images/red_deck_2.png"" style=""width: 300px; height: 300px; margin-right: 10px;"" />
          <img src=""images/blue_deck_1.png"" style=""width: 300px; height: 300px;"" />
        </div>","1","9","1","choice","1",""
"","","","","","html-keyboard-response","79","420199","0.0-65.0-1.0-0.0","2C0C9B8E7BC24D5685941ABEC8123C20","0199d603-4733-7eb8-8e79-f55b3b1a9e65","0199d5ef-c7d4-7cab-a194-b2c3afbaf8e8","","null","<div style=""display: flex; justify-content: center; align-items: center;"">
                     <img src=""images/semantic/semantic_series_9/semantic_series_9_d.png"" style=""width: 300px; height: 300px;"" />
                   </div>","null","9","1","D","",""
"","","","","","html-keyboard-response","80","426215","0.0-65.0-1.0-1.0","2C0C9B8E7BC24D5685941ABEC8123C20","0199d603-4733-7eb8-8e79-f55b3b1a9e65","0199d5ef-c7d4-7cab-a194-b2c3afbaf8e8","","null","<div style=""display: flex; justify-content: center; align-items: center;"">
                     <img src=""images/semantic/semantic_series_9/semantic_series_9_e.png"" style=""width: 300px; height: 300px;"" />
                   </div>","null","9","1","E","",""
"","","","","","html-keyboard-response","81","432228","0.0-65.0-1.0-2.0","2C0C9B8E7BC24D5685941ABEC8123C20","0199d603-4733-7eb8-8e79-f55b3b1a9e65","0199d5ef-c7d4-7cab-a194-b2c3afbaf8e8","","null","<div style=""display: flex; justify-content: center; align-items: center;"">
                     <img src=""images/semantic/semantic_series_9/semantic_series_9_f.png"" style=""width: 300px; height: 300px;"" />
                   </div>","null","9","1","F","",""
"","","","","","survey-likert","82","436340","0.0-66.0","2C0C9B8E7BC24D5685941ABEC8123C20","0199d603-4733-7eb8-8e79-f55b3b1a9e65","0199d5ef-c7d4-7cab-a194-b2c3afbaf8e8","","4111","","{""Q0"":3}","9","1","surprise_rating","","[0]"
"","","","","","survey-likert","83","438641","0.0-67.0","2C0C9B8E7BC24D5685941ABEC8123C20","0199d603-4733-7eb8-8e79-f55b3b1a9e65","0199d5ef-c7d4-7cab-a194-b2c3afbaf8e8","","2300","","{""Q0"":1}","9","1","enjoyment_rating","","[0]"
"","","","","","html-keyboard-response","84","444652","0.0-68.0","2C0C9B8E7BC24D5685941ABEC8123C20","0199d603-4733-7eb8-8e79-f55b3b1a9e65","0199d5ef-c7d4-7cab-a194-b2c3afbaf8e8","","null","<div style=""display: flex; justify-content: center; align-items: center;"">
                     <img src=""images/other/blank.png"" style=""width: 300px; height: 300px;"" />
                   </div>","null","0","0","blank","",""
"","","","","","html-keyboard-response","85","450664","0.0-69.0","2C0C9B8E7BC24D5685941ABEC8123C20","0199d603-4733-7eb8-8e79-f55b3b1a9e65","0199d5ef-c7d4-7cab-a194-b2c3afbaf8e8","","null","<div style=""display: flex; justify-content: center; align-items: center;"">
                     <img src=""images/causal/causal_series_1/causal_series_1_a.png"" style=""width: 300px; height: 300px;"" />
                   </div>","null","1","1","A","",""
"","","","","","html-keyboard-response","86","456673","0.0-70.0","2C0C9B8E7BC24D5685941ABEC8123C20","0199d603-4733-7eb8-8e79-f55b3b1a9e65","0199d5ef-c7d4-7cab-a194-b2c3afbaf8e8","","null","<div style=""display: flex; justify-content: center; align-items: center;"">
                     <img src=""images/causal/causal_series_1/causal_series_1_b.png"" style=""width: 300px; height: 300px;"" />
                   </div>","null","1","1","B","",""
"","","","","","html-keyboard-response","87","462680","0.0-71.0","2C0C9B8E7BC24D5685941ABEC8123C20","0199d603-4733-7eb8-8e79-f55b3b1a9e65","0199d5ef-c7d4-7cab-a194-b2c3afbaf8e8","","null","<div style=""display: flex; justify-content: center; align-items: center;"">
                     <img src=""images/causal/causal_series_1/causal_series_1_c.png"" style=""width: 300px; height: 300px;"" />
                   </div>","null","1","1","C","",""
"","","","","","html-button-response","88","464012","0.0-72.0","2C0C9B8E7BC24D5685941ABEC8123C20","0199d603-4733-7eb8-8e79-f55b3b1a9e65","0199d5ef-c7d4-7cab-a194-b2c3afbaf8e8","","1330","
        <div style=""display: flex; justify-content: center; align-items: center;"">
          <img src=""images/red_deck_2.png"" style=""width: 300px; height: 300px; margin-right: 10px;"" />
          <img src=""images/blue_deck_1.png"" style=""width: 300px; height: 300px;"" />
        </div>","0","1","1","choice","0",""
"","","","","","html-keyboard-response","89","470025","0.0-73.0-0.0-0.0","2C0C9B8E7BC24D5685941ABEC8123C20","0199d603-4733-7eb8-8e79-f55b3b1a9e65","0199d5ef-c7d4-7cab-a194-b2c3afbaf8e8","","null","<div style=""display: flex; justify-content: center; align-items: center;"">
                     <img src=""images/causal/causal_series_1/causal_series_1_d.png"" style=""width: 300px; height: 300px;"" />
                   </div>","null","1","1","D","",""
"","","","","","html-keyboard-response","90","476042","0.0-73.0-0.0-1.0","2C0C9B8E7BC24D5685941ABEC8123C20","0199d603-4733-7eb8-8e79-f55b3b1a9e65","0199d5ef-c7d4-7cab-a194-b2c3afbaf8e8","","null","<div style=""display: flex; justify-content: center; align-items: center;"">
                     <img src=""images/causal/causal_series_1/causal_series_1_e.png"" style=""width: 300px; height: 300px;"" />
                   </div>","null","1","1","E","",""
"","","","","","html-keyboard-response","91","482043","0.0-73.0-0.0-2.0","2C0C9B8E7BC24D5685941ABEC8123C20","0199d603-4733-7eb8-8e79-f55b3b1a9e65","0199d5ef-c7d4-7cab-a194-b2c3afbaf8e8","","null","<div style=""display: flex; justify-content: center; align-items: center;"">
                     <img src=""images/causal/causal_series_1/causal_series_1_f.png"" style=""width: 300px; height: 300px;"" />
                   </div>","null","1","1","F","",""
"","","","","","survey-likert","92","484693","0.0-74.0","2C0C9B8E7BC24D5685941ABEC8123C20","0199d603-4733-7eb8-8e79-f55b3b1a9e65","0199d5ef-c7d4-7cab-a194-b2c3afbaf8e8","","2649","","{""Q0"":4}","1","1","surprise_rating","","[0]"
"","","","","","survey-likert","93","486443","0.0-75.0","2C0C9B8E7BC24D5685941ABEC8123C20","0199d603-4733-7eb8-8e79-f55b3b1a9e65","0199d5ef-c7d4-7cab-a194-b2c3afbaf8e8","","1748","","{""Q0"":4}","1","1","enjoyment_rating","","[0]"
"","","","","","html-keyboard-response","94","492449","0.0-76.0","2C0C9B8E7BC24D5685941ABEC8123C20","0199d603-4733-7eb8-8e79-f55b3b1a9e65","0199d5ef-c7d4-7cab-a194-b2c3afbaf8e8","","null","<div style=""display: flex; justify-content: center; align-items: center;"">
                     <img src=""images/other/blank.png"" style=""width: 300px; height: 300px;"" />
                   </div>","null","0","0","blank","",""
"","","","","","html-keyboard-response","95","498464","0.0-77.0","2C0C9B8E7BC24D5685941ABEC8123C20","0199d603-4733-7eb8-8e79-f55b3b1a9e65","0199d5ef-c7d4-7cab-a194-b2c3afbaf8e8","","null","<div style=""display: flex; justify-content: center; align-items: center;"">
                     <img src=""images/causal/causal_series_6/causal_series_6_a.png"" style=""width: 300px; height: 300px;"" />
                   </div>","null","6","2","A","",""
"","","","","","html-keyboard-response","96","504477","0.0-78.0","2C0C9B8E7BC24D5685941ABEC8123C20","0199d603-4733-7eb8-8e79-f55b3b1a9e65","0199d5ef-c7d4-7cab-a194-b2c3afbaf8e8","","null","<div style=""display: flex; justify-content: center; align-items: center;"">
                     <img src=""images/causal/causal_series_6/causal_series_6_b.png"" style=""width: 300px; height: 300px;"" />
                   </div>","null","6","2","B","",""
"","","","","","html-keyboard-response","97","510485","0.0-79.0","2C0C9B8E7BC24D5685941ABEC8123C20","0199d603-4733-7eb8-8e79-f55b3b1a9e65","0199d5ef-c7d4-7cab-a194-b2c3afbaf8e8","","null","<div style=""display: flex; justify-content: center; align-items: center;"">
                     <img src=""images/causal/causal_series_6/causal_series_6_c.png"" style=""width: 300px; height: 300px;"" />
                   </div>","null","6","2","C","",""
"","","","","","html-button-response","98","513066","0.0-80.0","2C0C9B8E7BC24D5685941ABEC8123C20","0199d603-4733-7eb8-8e79-f55b3b1a9e65","0199d5ef-c7d4-7cab-a194-b2c3afbaf8e8","","2580","
        <div style=""display: flex; justify-content: center; align-items: center;"">
          <img src=""images/red_deck_2.png"" style=""width: 300px; height: 300px; margin-right: 10px;"" />
          <img src=""images/blue_deck_1.png"" style=""width: 300px; height: 300px;"" />
        </div>","0","6","2","choice","0",""
"","","","","","html-keyboard-response","99","519083","0.0-81.0-0.0-0.0","2C0C9B8E7BC24D5685941ABEC8123C20","0199d603-4733-7eb8-8e79-f55b3b1a9e65","0199d5ef-c7d4-7cab-a194-b2c3afbaf8e8","","null","<div style=""display: flex; justify-content: center; align-items: center;"">
                     <img src=""images/causal/causal_series_6/causal_series_6_d.png"" style=""width: 300px; height: 300px;"" />
                   </div>","null","6","2","D","",""
"","","","","","html-keyboard-response","100","525098","0.0-81.0-0.0-1.0","2C0C9B8E7BC24D5685941ABEC8123C20","0199d603-4733-7eb8-8e79-f55b3b1a9e65","0199d5ef-c7d4-7cab-a194-b2c3afbaf8e8","","null","<div style=""display: flex; justify-content: center; align-items: center;"">
                     <img src=""images/causal/causal_series_6/causal_series_6_e.png"" style=""width: 300px; height: 300px;"" />
                   </div>","null","6","2","E","",""
"","","","","","html-keyboard-response","101","531105","0.0-81.0-0.0-2.0","2C0C9B8E7BC24D5685941ABEC8123C20","0199d603-4733-7eb8-8e79-f55b3b1a9e65","0199d5ef-c7d4-7cab-a194-b2c3afbaf8e8","","null","<div style=""display: flex; justify-content: center; align-items: center;"">
                     <img src=""images/causal/causal_series_6/causal_series_6_f.png"" style=""width: 300px; height: 300px;"" />
                   </div>","null","6","2","F","",""
"","","","","","survey-likert","102","538685","0.0-82.0","2C0C9B8E7BC24D5685941ABEC8123C20","0199d603-4733-7eb8-8e79-f55b3b1a9e65","0199d5ef-c7d4-7cab-a194-b2c3afbaf8e8","","7579","","{""Q0"":1}","6","2","surprise_rating","","[0]"
"","","","","","survey-likert","103","542677","0.0-83.0","2C0C9B8E7BC24D5685941ABEC8123C20","0199d603-4733-7eb8-8e79-f55b3b1a9e65","0199d5ef-c7d4-7cab-a194-b2c3afbaf8e8","","3991","","{""Q0"":1}","6","2","enjoyment_rating","","[0]"
"","","","","","html-keyboard-response","104","548692","0.0-84.0","2C0C9B8E7BC24D5685941ABEC8123C20","0199d603-4733-7eb8-8e79-f55b3b1a9e65","0199d5ef-c7d4-7cab-a194-b2c3afbaf8e8","","null","<div style=""display: flex; justify-content: center; align-items: center;"">
                     <img src=""images/other/blank.png"" style=""width: 300px; height: 300px;"" />
                   </div>","null","0","0","blank","",""
"","","","","","html-keyboard-response","105","554709","0.0-85.0","2C0C9B8E7BC24D5685941ABEC8123C20","0199d603-4733-7eb8-8e79-f55b3b1a9e65","0199d5ef-c7d4-7cab-a194-b2c3afbaf8e8","","null","<div style=""display: flex; justify-content: center; align-items: center;"">
                     <img src=""images/causal/causal_series_3/causal_series_3_a.png"" style=""width: 300px; height: 300px;"" />
                   </div>","null","3","1","A","",""
"","","","","","html-keyboard-response","106","560724","0.0-86.0","2C0C9B8E7BC24D5685941ABEC8123C20","0199d603-4733-7eb8-8e79-f55b3b1a9e65","0199d5ef-c7d4-7cab-a194-b2c3afbaf8e8","","null","<div style=""display: flex; justify-content: center; align-items: center;"">
                     <img src=""images/causal/causal_series_3/causal_series_3_b.png"" style=""width: 300px; height: 300px;"" />
                   </div>","null","3","1","B","",""
"","","","","","html-keyboard-response","107","566734","0.0-87.0","2C0C9B8E7BC24D5685941ABEC8123C20","0199d603-4733-7eb8-8e79-f55b3b1a9e65","0199d5ef-c7d4-7cab-a194-b2c3afbaf8e8","","null","<div style=""display: flex; justify-content: center; align-items: center;"">
                     <img src=""images/causal/causal_series_3/causal_series_3_c.png"" style=""width: 300px; height: 300px;"" />
                   </div>","null","3","1","C","",""
"","","","","","html-button-response","108","569637","0.0-88.0","2C0C9B8E7BC24D5685941ABEC8123C20","0199d603-4733-7eb8-8e79-f55b3b1a9e65","0199d5ef-c7d4-7cab-a194-b2c3afbaf8e8","","2901","
        <div style=""display: flex; justify-content: center; align-items: center;"">
          <img src=""images/red_deck_2.png"" style=""width: 300px; height: 300px; margin-right: 10px;"" />
          <img src=""images/blue_deck_1.png"" style=""width: 300px; height: 300px;"" />
        </div>","1","3","1","choice","1",""
"","","","","","html-keyboard-response","109","575645","0.0-89.0-1.0-0.0","2C0C9B8E7BC24D5685941ABEC8123C20","0199d603-4733-7eb8-8e79-f55b3b1a9e65","0199d5ef-c7d4-7cab-a194-b2c3afbaf8e8","","null","<div style=""display: flex; justify-content: center; align-items: center;"">
                     <img src=""images/semantic/semantic_series_3/semantic_series_3_d.png"" style=""width: 300px; height: 300px;"" />
                   </div>","null","3","1","D","",""
"","","","","","html-keyboard-response","110","581659","0.0-89.0-1.0-1.0","2C0C9B8E7BC24D5685941ABEC8123C20","0199d603-4733-7eb8-8e79-f55b3b1a9e65","0199d5ef-c7d4-7cab-a194-b2c3afbaf8e8","","null","<div style=""display: flex; justify-content: center; align-items: center;"">
                     <img src=""images/semantic/semantic_series_3/semantic_series_3_e.png"" style=""width: 300px; height: 300px;"" />
                   </div>","null","3","1","E","",""
"","","","","","html-keyboard-response","111","587668","0.0-89.0-1.0-2.0","2C0C9B8E7BC24D5685941ABEC8123C20","0199d603-4733-7eb8-8e79-f55b3b1a9e65","0199d5ef-c7d4-7cab-a194-b2c3afbaf8e8","","null","<div style=""display: flex; justify-content: center; align-items: center;"">
                     <img src=""images/semantic/semantic_series_3/semantic_series_3_f.png"" style=""width: 300px; height: 300px;"" />
                   </div>","null","3","1","F","",""
"","","","","","survey-likert","112","592132","0.0-90.0","2C0C9B8E7BC24D5685941ABEC8123C20","0199d603-4733-7eb8-8e79-f55b3b1a9e65","0199d5ef-c7d4-7cab-a194-b2c3afbaf8e8","","4463","","{""Q0"":1}","3","1","surprise_rating","","[0]"
"","","","","","survey-likert","113","594229","0.0-91.0","2C0C9B8E7BC24D5685941ABEC8123C20","0199d603-4733-7eb8-8e79-f55b3b1a9e65","0199d5ef-c7d4-7cab-a194-b2c3afbaf8e8","","2095","","{""Q0"":0}","3","1","enjoyment_rating","","[0]"
"","","","","","html-keyboard-response","114","600231","0.0-92.0","2C0C9B8E7BC24D5685941ABEC8123C20","0199d603-4733-7eb8-8e79-f55b3b1a9e65","0199d5ef-c7d4-7cab-a194-b2c3afbaf8e8","","null","<div style=""display: flex; justify-content: center; align-items: center;"">
                     <img src=""images/other/blank.png"" style=""width: 300px; height: 300px;"" />
                   </div>","null","0","0","blank","",""
"","","","","","html-keyboard-response","115","606244","0.0-93.0","2C0C9B8E7BC24D5685941ABEC8123C20","0199d603-4733-7eb8-8e79-f55b3b1a9e65","0199d5ef-c7d4-7cab-a194-b2c3afbaf8e8","","null","<div style=""display: flex; justify-content: center; align-items: center;"">
                     <img src=""images/causal/causal_series_2/causal_series_2_a.png"" style=""width: 300px; height: 300px;"" />
                   </div>","null","2","1","A","",""
"","","","","","html-keyboard-response","116","612254","0.0-94.0","2C0C9B8E7BC24D5685941ABEC8123C20","0199d603-4733-7eb8-8e79-f55b3b1a9e65","0199d5ef-c7d4-7cab-a194-b2c3afbaf8e8","","null","<div style=""display: flex; justify-content: center; align-items: center;"">
                     <img src=""images/causal/causal_series_2/causal_series_2_b.png"" style=""width: 300px; height: 300px;"" />
                   </div>","null","2","1","B","",""
"","","","","","html-keyboard-response","117","618256","0.0-95.0","2C0C9B8E7BC24D5685941ABEC8123C20","0199d603-4733-7eb8-8e79-f55b3b1a9e65","0199d5ef-c7d4-7cab-a194-b2c3afbaf8e8","","null","<div style=""display: flex; justify-content: center; align-items: center;"">
                     <img src=""images/causal/causal_series_2/causal_series_2_c.png"" style=""width: 300px; height: 300px;"" />
                   </div>","null","2","1","C","",""
"","","","","","html-button-response","118","619958","0.0-96.0","2C0C9B8E7BC24D5685941ABEC8123C20","0199d603-4733-7eb8-8e79-f55b3b1a9e65","0199d5ef-c7d4-7cab-a194-b2c3afbaf8e8","","1701","
        <div style=""display: flex; justify-content: center; align-items: center;"">
          <img src=""images/red_deck_2.png"" style=""width: 300px; height: 300px; margin-right: 10px;"" />
          <img src=""images/blue_deck_1.png"" style=""width: 300px; height: 300px;"" />
        </div>","0","2","1","choice","0",""
"","","","","","html-keyboard-response","119","625963","0.0-97.0-0.0-0.0","2C0C9B8E7BC24D5685941ABEC8123C20","0199d603-4733-7eb8-8e79-f55b3b1a9e65","0199d5ef-c7d4-7cab-a194-b2c3afbaf8e8","","null","<div style=""display: flex; justify-content: center; align-items: center;"">
                     <img src=""images/causal/causal_series_2/causal_series_2_d.png"" style=""width: 300px; height: 300px;"" />
                   </div>","null","2","1","D","",""
"","","","","","html-keyboard-response","120","631970","0.0-97.0-0.0-1.0","2C0C9B8E7BC24D5685941ABEC8123C20","0199d603-4733-7eb8-8e79-f55b3b1a9e65","0199d5ef-c7d4-7cab-a194-b2c3afbaf8e8","","null","<div style=""display: flex; justify-content: center; align-items: center;"">
                     <img src=""images/causal/causal_series_2/causal_series_2_e.png"" style=""width: 300px; height: 300px;"" />
                   </div>","null","2","1","E","",""
"","","","","","html-keyboard-response","121","637986","0.0-97.0-0.0-2.0","2C0C9B8E7BC24D5685941ABEC8123C20","0199d603-4733-7eb8-8e79-f55b3b1a9e65","0199d5ef-c7d4-7cab-a194-b2c3afbaf8e8","","null","<div style=""display: flex; justify-content: center; align-items: center;"">
                     <img src=""images/causal/causal_series_2/causal_series_2_f.png"" style=""width: 300px; height: 300px;"" />
                   </div>","null","2","1","F","",""
"","","","","","survey-likert","122","642626","0.0-98.0","2C0C9B8E7BC24D5685941ABEC8123C20","0199d603-4733-7eb8-8e79-f55b3b1a9e65","0199d5ef-c7d4-7cab-a194-b2c3afbaf8e8","","4638","","{""Q0"":4}","2","1","surprise_rating","","[0]"
"","","","","","survey-likert","123","646563","0.0-99.0","2C0C9B8E7BC24D5685941ABEC8123C20","0199d603-4733-7eb8-8e79-f55b3b1a9e65","0199d5ef-c7d4-7cab-a194-b2c3afbaf8e8","","3936","","{""Q0"":3}","2","1","enjoyment_rating","","[0]"
"","","","","","html-keyboard-response","124","652570","0.0-100.0","2C0C9B8E7BC24D5685941ABEC8123C20","0199d603-4733-7eb8-8e79-f55b3b1a9e65","0199d5ef-c7d4-7cab-a194-b2c3afbaf8e8","","null","<div style=""display: flex; justify-content: center; align-items: center;"">
                     <img src=""images/other/blank.png"" style=""width: 300px; height: 300px;"" />
                   </div>","null","0","0","blank","",""
"","","","","","html-keyboard-response","125","658580","0.0-101.0","2C0C9B8E7BC24D5685941ABEC8123C20","0199d603-4733-7eb8-8e79-f55b3b1a9e65","0199d5ef-c7d4-7cab-a194-b2c3afbaf8e8","","null","<div style=""display: flex; justify-content: center; align-items: center;"">
                     <img src=""images/causal/causal_series_7/causal_series_7_a.png"" style=""width: 300px; height: 300px;"" />
                   </div>","null","7","2","A","",""
"","","","","","html-keyboard-response","126","664586","0.0-102.0","2C0C9B8E7BC24D5685941ABEC8123C20","0199d603-4733-7eb8-8e79-f55b3b1a9e65","0199d5ef-c7d4-7cab-a194-b2c3afbaf8e8","","null","<div style=""display: flex; justify-content: center; align-items: center;"">
                     <img src=""images/causal/causal_series_7/causal_series_7_b.png"" style=""width: 300px; height: 300px;"" />
                   </div>","null","7","2","B","",""
"","","","","","html-keyboard-response","127","670590","0.0-103.0","2C0C9B8E7BC24D5685941ABEC8123C20","0199d603-4733-7eb8-8e79-f55b3b1a9e65","0199d5ef-c7d4-7cab-a194-b2c3afbaf8e8","","null","<div style=""display: flex; justify-content: center; align-items: center;"">
                     <img src=""images/causal/causal_series_7/causal_series_7_c.png"" style=""width: 300px; height: 300px;"" />
                   </div>","null","7","2","C","",""
"","","","","","html-button-response","128","673248","0.0-104.0","2C0C9B8E7BC24D5685941ABEC8123C20","0199d603-4733-7eb8-8e79-f55b3b1a9e65","0199d5ef-c7d4-7cab-a194-b2c3afbaf8e8","","2657","
        <div style=""display: flex; justify-content: center; align-items: center;"">
          <img src=""images/red_deck_2.png"" style=""width: 300px; height: 300px; margin-right: 10px;"" />
          <img src=""images/blue_deck_1.png"" style=""width: 300px; height: 300px;"" />
        </div>","1","7","2","choice","1",""
"","","","","","html-keyboard-response","129","679260","0.0-105.0-1.0-0.0","2C0C9B8E7BC24D5685941ABEC8123C20","0199d603-4733-7eb8-8e79-f55b3b1a9e65","0199d5ef-c7d4-7cab-a194-b2c3afbaf8e8","","null","<div style=""display: flex; justify-content: center; align-items: center;"">
                     <img src=""images/semantic/semantic_series_7/semantic_series_7_d.png"" style=""width: 300px; height: 300px;"" />
                   </div>","null","7","2","D","",""
"","","","","","html-keyboard-response","130","685271","0.0-105.0-1.0-1.0","2C0C9B8E7BC24D5685941ABEC8123C20","0199d603-4733-7eb8-8e79-f55b3b1a9e65","0199d5ef-c7d4-7cab-a194-b2c3afbaf8e8","","null","<div style=""display: flex; justify-content: center; align-items: center;"">
                     <img src=""images/semantic/semantic_series_7/semantic_series_7_e.png"" style=""width: 300px; height: 300px;"" />
                   </div>","null","7","2","E","",""
"","","","","","html-keyboard-response","131","691285","0.0-105.0-1.0-2.0","2C0C9B8E7BC24D5685941ABEC8123C20","0199d603-4733-7eb8-8e79-f55b3b1a9e65","0199d5ef-c7d4-7cab-a194-b2c3afbaf8e8","","null","<div style=""display: flex; justify-content: center; align-items: center;"">
                     <img src=""images/semantic/semantic_series_7/semantic_series_7_f.png"" style=""width: 300px; height: 300px;"" />
                   </div>","null","7","2","F","",""
"","","","","","survey-likert","132","696336","0.0-106.0","2C0C9B8E7BC24D5685941ABEC8123C20","0199d603-4733-7eb8-8e79-f55b3b1a9e65","0199d5ef-c7d4-7cab-a194-b2c3afbaf8e8","","5051","","{""Q0"":4}","7","2","surprise_rating","","[0]"
"","","","","","survey-likert","133","699707","0.0-107.0","2C0C9B8E7BC24D5685941ABEC8123C20","0199d603-4733-7eb8-8e79-f55b3b1a9e65","0199d5ef-c7d4-7cab-a194-b2c3afbaf8e8","","3370","","{""Q0"":1}","7","2","enjoyment_rating","","[0]"
"","","","","","html-keyboard-response","134","705723","0.0-108.0","2C0C9B8E7BC24D5685941ABEC8123C20","0199d603-4733-7eb8-8e79-f55b3b1a9e65","0199d5ef-c7d4-7cab-a194-b2c3afbaf8e8","","null","<div style=""display: flex; justify-content: center; align-items: center;"">
                     <img src=""images/other/blank.png"" style=""width: 300px; height: 300px;"" />
                   </div>","null","0","0","blank","",""
"","","","","","html-keyboard-response","135","711734","0.0-109.0","2C0C9B8E7BC24D5685941ABEC8123C20","0199d603-4733-7eb8-8e79-f55b3b1a9e65","0199d5ef-c7d4-7cab-a194-b2c3afbaf8e8","","null","<div style=""display: flex; justify-content: center; align-items: center;"">
                     <img src=""images/causal/causal_series_8/causal_series_8_a.png"" style=""width: 300px; height: 300px;"" />
                   </div>","null","8","1","A","",""
"","","","","","html-keyboard-response","136","717750","0.0-110.0","2C0C9B8E7BC24D5685941ABEC8123C20","0199d603-4733-7eb8-8e79-f55b3b1a9e65","0199d5ef-c7d4-7cab-a194-b2c3afbaf8e8","","null","<div style=""display: flex; justify-content: center; align-items: center;"">
                     <img src=""images/causal/causal_series_8/causal_series_8_b.png"" style=""width: 300px; height: 300px;"" />
                   </div>","null","8","1","B","",""
"","","","","","html-keyboard-response","137","723756","0.0-111.0","2C0C9B8E7BC24D5685941ABEC8123C20","0199d603-4733-7eb8-8e79-f55b3b1a9e65","0199d5ef-c7d4-7cab-a194-b2c3afbaf8e8","","null","<div style=""display: flex; justify-content: center; align-items: center;"">
                     <img src=""images/causal/causal_series_8/causal_series_8_c.png"" style=""width: 300px; height: 300px;"" />
                   </div>","null","8","1","C","",""
"","","","","","html-button-response","138","727676","0.0-112.0","2C0C9B8E7BC24D5685941ABEC8123C20","0199d603-4733-7eb8-8e79-f55b3b1a9e65","0199d5ef-c7d4-7cab-a194-b2c3afbaf8e8","","3919","
        <div style=""display: flex; justify-content: center; align-items: center;"">
          <img src=""images/red_deck_2.png"" style=""width: 300px; height: 300px; margin-right: 10px;"" />
          <img src=""images/blue_deck_1.png"" style=""width: 300px; height: 300px;"" />
        </div>","0","8","1","choice","0",""
"","","","","","html-keyboard-response","139","733687","0.0-113.0-0.0-0.0","2C0C9B8E7BC24D5685941ABEC8123C20","0199d603-4733-7eb8-8e79-f55b3b1a9e65","0199d5ef-c7d4-7cab-a194-b2c3afbaf8e8","","null","<div style=""display: flex; justify-content: center; align-items: center;"">
                     <img src=""images/causal/causal_series_8/causal_series_8_d.png"" style=""width: 300px; height: 300px;"" />
                   </div>","null","8","1","D","",""
"","","","","","html-keyboard-response","140","739690","0.0-113.0-0.0-1.0","2C0C9B8E7BC24D5685941ABEC8123C20","0199d603-4733-7eb8-8e79-f55b3b1a9e65","0199d5ef-c7d4-7cab-a194-b2c3afbaf8e8","","null","<div style=""display: flex; justify-content: center; align-items: center;"">
                     <img src=""images/causal/causal_series_8/causal_series_8_e.png"" style=""width: 300px; height: 300px;"" />
                   </div>","null","8","1","E","",""
"","","","","","html-keyboard-response","141","745698","0.0-113.0-0.0-2.0","2C0C9B8E7BC24D5685941ABEC8123C20","0199d603-4733-7eb8-8e79-f55b3b1a9e65","0199d5ef-c7d4-7cab-a194-b2c3afbaf8e8","","null","<div style=""display: flex; justify-content: center; align-items: center;"">
                     <img src=""images/causal/causal_series_8/causal_series_8_f.png"" style=""width: 300px; height: 300px;"" />
                   </div>","null","8","1","F","",""
"","","","","","survey-likert","142","751101","0.0-114.0","2C0C9B8E7BC24D5685941ABEC8123C20","0199d603-4733-7eb8-8e79-f55b3b1a9e65","0199d5ef-c7d4-7cab-a194-b2c3afbaf8e8","","5402","","{""Q0"":3}","8","1","surprise_rating","","[0]"
"","","","","","survey-likert","143","754855","0.0-115.0","2C0C9B8E7BC24D5685941ABEC8123C20","0199d603-4733-7eb8-8e79-f55b3b1a9e65","0199d5ef-c7d4-7cab-a194-b2c3afbaf8e8","","3754","","{""Q0"":3}","8","1","enjoyment_rating","","[0]"
"","","","","","html-keyboard-response","144","760872","0.0-116.0","2C0C9B8E7BC24D5685941ABEC8123C20","0199d603-4733-7eb8-8e79-f55b3b1a9e65","0199d5ef-c7d4-7cab-a194-b2c3afbaf8e8","","null","<div style=""display: flex; justify-content: center; align-items: center;"">
                     <img src=""images/other/blank.png"" style=""width: 300px; height: 300px;"" />
                   </div>","null","0","0","blank","",""
"","","","","","html-keyboard-response","145","766881","0.0-117.0","2C0C9B8E7BC24D5685941ABEC8123C20","0199d603-4733-7eb8-8e79-f55b3b1a9e65","0199d5ef-c7d4-7cab-a194-b2c3afbaf8e8","","null","<div style=""display: flex; justify-content: center; align-items: center;"">
                     <img src=""images/causal/causal_series_2/causal_series_2_a.png"" style=""width: 300px; height: 300px;"" />
                   </div>","null","2","2","A","",""
"","","","","","html-keyboard-response","146","772883","0.0-118.0","2C0C9B8E7BC24D5685941ABEC8123C20","0199d603-4733-7eb8-8e79-f55b3b1a9e65","0199d5ef-c7d4-7cab-a194-b2c3afbaf8e8","","null","<div style=""display: flex; justify-content: center; align-items: center;"">
                     <img src=""images/causal/causal_series_2/causal_series_2_b.png"" style=""width: 300px; height: 300px;"" />
                   </div>","null","2","2","B","",""
"","","","","","html-keyboard-response","147","778897","0.0-119.0","2C0C9B8E7BC24D5685941ABEC8123C20","0199d603-4733-7eb8-8e79-f55b3b1a9e65","0199d5ef-c7d4-7cab-a194-b2c3afbaf8e8","","null","<div style=""display: flex; justify-content: center; align-items: center;"">
                     <img src=""images/causal/causal_series_2/causal_series_2_c.png"" style=""width: 300px; height: 300px;"" />
                   </div>","null","2","2","C","",""
"","","","","","html-button-response","148","782347","0.0-120.0","2C0C9B8E7BC24D5685941ABEC8123C20","0199d603-4733-7eb8-8e79-f55b3b1a9e65","0199d5ef-c7d4-7cab-a194-b2c3afbaf8e8","","3449","
        <div style=""display: flex; justify-content: center; align-items: center;"">
          <img src=""images/red_deck_2.png"" style=""width: 300px; height: 300px; margin-right: 10px;"" />
          <img src=""images/blue_deck_1.png"" style=""width: 300px; height: 300px;"" />
        </div>","1","2","2","choice","1",""
"","","","","","html-keyboard-response","149","788360","0.0-121.0-1.0-0.0","2C0C9B8E7BC24D5685941ABEC8123C20","0199d603-4733-7eb8-8e79-f55b3b1a9e65","0199d5ef-c7d4-7cab-a194-b2c3afbaf8e8","","null","<div style=""display: flex; justify-content: center; align-items: center;"">
                     <img src=""images/semantic/semantic_series_2/semantic_series_2_d.png"" style=""width: 300px; height: 300px;"" />
                   </div>","null","2","2","D","",""
"","","","","","html-keyboard-response","150","794376","0.0-121.0-1.0-1.0","2C0C9B8E7BC24D5685941ABEC8123C20","0199d603-4733-7eb8-8e79-f55b3b1a9e65","0199d5ef-c7d4-7cab-a194-b2c3afbaf8e8","","null","<div style=""display: flex; justify-content: center; align-items: center;"">
                     <img src=""images/semantic/semantic_series_2/semantic_series_2_e.png"" style=""width: 300px; height: 300px;"" />
                   </div>","null","2","2","E","",""
"","","","","","html-keyboard-response","151","800393","0.0-121.0-1.0-2.0","2C0C9B8E7BC24D5685941ABEC8123C20","0199d603-4733-7eb8-8e79-f55b3b1a9e65","0199d5ef-c7d4-7cab-a194-b2c3afbaf8e8","","null","<div style=""display: flex; justify-content: center; align-items: center;"">
                     <img src=""images/semantic/semantic_series_2/semantic_series_2_f.png"" style=""width: 300px; height: 300px;"" />
                   </div>","null","2","2","F","",""
"","","","","","survey-likert","152","805096","0.0-122.0","2C0C9B8E7BC24D5685941ABEC8123C20","0199d603-4733-7eb8-8e79-f55b3b1a9e65","0199d5ef-c7d4-7cab-a194-b2c3afbaf8e8","","4702","","{""Q0"":3}","2","2","surprise_rating","","[0]"
"","","","","","survey-likert","153","811434","0.0-123.0","2C0C9B8E7BC24D5685941ABEC8123C20","0199d603-4733-7eb8-8e79-f55b3b1a9e65","0199d5ef-c7d4-7cab-a194-b2c3afbaf8e8","","6336","","{""Q0"":3}","2","2","enjoyment_rating","","[0]"
"","","","","","html-keyboard-response","154","817451","0.0-124.0","2C0C9B8E7BC24D5685941ABEC8123C20","0199d603-4733-7eb8-8e79-f55b3b1a9e65","0199d5ef-c7d4-7cab-a194-b2c3afbaf8e8","","null","<div style=""display: flex; justify-content: center; align-items: center;"">
                     <img src=""images/other/blank.png"" style=""width: 300px; height: 300px;"" />
                   </div>","null","0","0","blank","",""
"","","","","","html-keyboard-response","155","823458","0.0-125.0","2C0C9B8E7BC24D5685941ABEC8123C20","0199d603-4733-7eb8-8e79-f55b3b1a9e65","0199d5ef-c7d4-7cab-a194-b2c3afbaf8e8","","null","<div style=""display: flex; justify-content: center; align-items: center;"">
                     <img src=""images/causal/causal_series_9/causal_series_9_a.png"" style=""width: 300px; height: 300px;"" />
                   </div>","null","9","2","A","",""
"","","","","","html-keyboard-response","156","829462","0.0-126.0","2C0C9B8E7BC24D5685941ABEC8123C20","0199d603-4733-7eb8-8e79-f55b3b1a9e65","0199d5ef-c7d4-7cab-a194-b2c3afbaf8e8","","null","<div style=""display: flex; justify-content: center; align-items: center;"">
                     <img src=""images/causal/causal_series_9/causal_series_9_b.png"" style=""width: 300px; height: 300px;"" />
                   </div>","null","9","2","B","",""
"","","","","","html-keyboard-response","157","835472","0.0-127.0","2C0C9B8E7BC24D5685941ABEC8123C20","0199d603-4733-7eb8-8e79-f55b3b1a9e65","0199d5ef-c7d4-7cab-a194-b2c3afbaf8e8","","null","<div style=""display: flex; justify-content: center; align-items: center;"">
                     <img src=""images/causal/causal_series_9/causal_series_9_c.png"" style=""width: 300px; height: 300px;"" />
                   </div>","null","9","2","C","",""
"","","","","","html-button-response","158","836804","0.0-128.0","2C0C9B8E7BC24D5685941ABEC8123C20","0199d603-4733-7eb8-8e79-f55b3b1a9e65","0199d5ef-c7d4-7cab-a194-b2c3afbaf8e8","","1330","
        <div style=""display: flex; justify-content: center; align-items: center;"">
          <img src=""images/red_deck_2.png"" style=""width: 300px; height: 300px; margin-right: 10px;"" />
          <img src=""images/blue_deck_1.png"" style=""width: 300px; height: 300px;"" />
        </div>","1","9","2","choice","1",""
"","","","","","html-keyboard-response","159","842806","0.0-129.0-1.0-0.0","2C0C9B8E7BC24D5685941ABEC8123C20","0199d603-4733-7eb8-8e79-f55b3b1a9e65","0199d5ef-c7d4-7cab-a194-b2c3afbaf8e8","","null","<div style=""display: flex; justify-content: center; align-items: center;"">
                     <img src=""images/semantic/semantic_series_9/semantic_series_9_d.png"" style=""width: 300px; height: 300px;"" />
                   </div>","null","9","2","D","",""
"","","","","","html-keyboard-response","160","848814","0.0-129.0-1.0-1.0","2C0C9B8E7BC24D5685941ABEC8123C20","0199d603-4733-7eb8-8e79-f55b3b1a9e65","0199d5ef-c7d4-7cab-a194-b2c3afbaf8e8","","null","<div style=""display: flex; justify-content: center; align-items: center;"">
                     <img src=""images/semantic/semantic_series_9/semantic_series_9_e.png"" style=""width: 300px; height: 300px;"" />
                   </div>","null","9","2","E","",""
"","","","","","html-keyboard-response","161","854824","0.0-129.0-1.0-2.0","2C0C9B8E7BC24D5685941ABEC8123C20","0199d603-4733-7eb8-8e79-f55b3b1a9e65","0199d5ef-c7d4-7cab-a194-b2c3afbaf8e8","","null","<div style=""display: flex; justify-content: center; align-items: center;"">
                     <img src=""images/semantic/semantic_series_9/semantic_series_9_f.png"" style=""width: 300px; height: 300px;"" />
                   </div>","null","9","2","F","",""
"","","","","","survey-likert","162","857871","0.0-130.0","2C0C9B8E7BC24D5685941ABEC8123C20","0199d603-4733-7eb8-8e79-f55b3b1a9e65","0199d5ef-c7d4-7cab-a194-b2c3afbaf8e8","","3047","","{""Q0"":0}","9","2","surprise_rating","","[0]"
"","","","","","survey-likert","163","859951","0.0-131.0","2C0C9B8E7BC24D5685941ABEC8123C20","0199d603-4733-7eb8-8e79-f55b3b1a9e65","0199d5ef-c7d4-7cab-a194-b2c3afbaf8e8","","2078","","{""Q0"":1}","9","2","enjoyment_rating","","[0]"
"","","","","","html-keyboard-response","164","865966","0.0-132.0","2C0C9B8E7BC24D5685941ABEC8123C20","0199d603-4733-7eb8-8e79-f55b3b1a9e65","0199d5ef-c7d4-7cab-a194-b2c3afbaf8e8","","null","<div style=""display: flex; justify-content: center; align-items: center;"">
                     <img src=""images/other/blank.png"" style=""width: 300px; height: 300px;"" />
                   </div>","null","0","0","blank","",""
"","","","","","html-keyboard-response","165","871973","0.0-133.0","2C0C9B8E7BC24D5685941ABEC8123C20","0199d603-4733-7eb8-8e79-f55b3b1a9e65","0199d5ef-c7d4-7cab-a194-b2c3afbaf8e8","","null","<div style=""display: flex; justify-content: center; align-items: center;"">
                     <img src=""images/causal/causal_series_8/causal_series_8_a.png"" style=""width: 300px; height: 300px;"" />
                   </div>","null","8","2","A","",""
"","","","","","html-keyboard-response","166","877975","0.0-134.0","2C0C9B8E7BC24D5685941ABEC8123C20","0199d603-4733-7eb8-8e79-f55b3b1a9e65","0199d5ef-c7d4-7cab-a194-b2c3afbaf8e8","","null","<div style=""display: flex; justify-content: center; align-items: center;"">
                     <img src=""images/causal/causal_series_8/causal_series_8_b.png"" style=""width: 300px; height: 300px;"" />
                   </div>","null","8","2","B","",""
"","","","","","html-keyboard-response","167","883978","0.0-135.0","2C0C9B8E7BC24D5685941ABEC8123C20","0199d603-4733-7eb8-8e79-f55b3b1a9e65","0199d5ef-c7d4-7cab-a194-b2c3afbaf8e8","","null","<div style=""display: flex; justify-content: center; align-items: center;"">
                     <img src=""images/causal/causal_series_8/causal_series_8_c.png"" style=""width: 300px; height: 300px;"" />
                   </div>","null","8","2","C","",""
"","","","","","html-button-response","168","885663","0.0-136.0","2C0C9B8E7BC24D5685941ABEC8123C20","0199d603-4733-7eb8-8e79-f55b3b1a9e65","0199d5ef-c7d4-7cab-a194-b2c3afbaf8e8","","1683","
        <div style=""display: flex; justify-content: center; align-items: center;"">
          <img src=""images/red_deck_2.png"" style=""width: 300px; height: 300px; margin-right: 10px;"" />
          <img src=""images/blue_deck_1.png"" style=""width: 300px; height: 300px;"" />
        </div>","1","8","2","choice","1",""
"","","","","","html-keyboard-response","169","891669","0.0-137.0-1.0-0.0","2C0C9B8E7BC24D5685941ABEC8123C20","0199d603-4733-7eb8-8e79-f55b3b1a9e65","0199d5ef-c7d4-7cab-a194-b2c3afbaf8e8","","null","<div style=""display: flex; justify-content: center; align-items: center;"">
                     <img src=""images/semantic/semantic_series_8/semantic_series_8_d.png"" style=""width: 300px; height: 300px;"" />
                   </div>","null","8","2","D","",""
"","","","","","html-keyboard-response","170","897681","0.0-137.0-1.0-1.0","2C0C9B8E7BC24D5685941ABEC8123C20","0199d603-4733-7eb8-8e79-f55b3b1a9e65","0199d5ef-c7d4-7cab-a194-b2c3afbaf8e8","","null","<div style=""display: flex; justify-content: center; align-items: center;"">
                     <img src=""images/semantic/semantic_series_8/semantic_series_8_e.png"" style=""width: 300px; height: 300px;"" />
                   </div>","null","8","2","E","",""
"","","","","","html-keyboard-response","171","903682","0.0-137.0-1.0-2.0","2C0C9B8E7BC24D5685941ABEC8123C20","0199d603-4733-7eb8-8e79-f55b3b1a9e65","0199d5ef-c7d4-7cab-a194-b2c3afbaf8e8","","null","<div style=""display: flex; justify-content: center; align-items: center;"">
                     <img src=""images/semantic/semantic_series_8/semantic_series_8_f.png"" style=""width: 300px; height: 300px;"" />
                   </div>","null","8","2","F","",""
"","","","","","survey-likert","172","910595","0.0-138.0","2C0C9B8E7BC24D5685941ABEC8123C20","0199d603-4733-7eb8-8e79-f55b3b1a9e65","0199d5ef-c7d4-7cab-a194-b2c3afbaf8e8","","6912","","{""Q0"":3}","8","2","surprise_rating","","[0]"
"","","","","","survey-likert","173","913307","0.0-139.0","2C0C9B8E7BC24D5685941ABEC8123C20","0199d603-4733-7eb8-8e79-f55b3b1a9e65","0199d5ef-c7d4-7cab-a194-b2c3afbaf8e8","","2711","","{""Q0"":1}","8","2","enjoyment_rating","","[0]"
"","","","","","html-keyboard-response","174","919312","0.0-140.0","2C0C9B8E7BC24D5685941ABEC8123C20","0199d603-4733-7eb8-8e79-f55b3b1a9e65","0199d5ef-c7d4-7cab-a194-b2c3afbaf8e8","","null","<div style=""display: flex; justify-content: center; align-items: center;"">
                     <img src=""images/other/blank.png"" style=""width: 300px; height: 300px;"" />
                   </div>","null","0","0","blank","",""
"","","","","","html-keyboard-response","175","925327","0.0-141.0","2C0C9B8E7BC24D5685941ABEC8123C20","0199d603-4733-7eb8-8e79-f55b3b1a9e65","0199d5ef-c7d4-7cab-a194-b2c3afbaf8e8","","null","<div style=""display: flex; justify-content: center; align-items: center;"">
                     <img src=""images/causal/causal_series_3/causal_series_3_a.png"" style=""width: 300px; height: 300px;"" />
                   </div>","null","3","2","A","",""
"","","","","","html-keyboard-response","176","931332","0.0-142.0","2C0C9B8E7BC24D5685941ABEC8123C20","0199d603-4733-7eb8-8e79-f55b3b1a9e65","0199d5ef-c7d4-7cab-a194-b2c3afbaf8e8","","null","<div style=""display: flex; justify-content: center; align-items: center;"">
                     <img src=""images/causal/causal_series_3/causal_series_3_b.png"" style=""width: 300px; height: 300px;"" />
                   </div>","null","3","2","B","",""
"","","","","","html-keyboard-response","177","937334","0.0-143.0","2C0C9B8E7BC24D5685941ABEC8123C20","0199d603-4733-7eb8-8e79-f55b3b1a9e65","0199d5ef-c7d4-7cab-a194-b2c3afbaf8e8","","null","<div style=""display: flex; justify-content: center; align-items: center;"">
                     <img src=""images/causal/causal_series_3/causal_series_3_c.png"" style=""width: 300px; height: 300px;"" />
                   </div>","null","3","2","C","",""
"","","","","","html-button-response","178","939978","0.0-144.0","2C0C9B8E7BC24D5685941ABEC8123C20","0199d603-4733-7eb8-8e79-f55b3b1a9e65","0199d5ef-c7d4-7cab-a194-b2c3afbaf8e8","","2643","
        <div style=""display: flex; justify-content: center; align-items: center;"">
          <img src=""images/red_deck_2.png"" style=""width: 300px; height: 300px; margin-right: 10px;"" />
          <img src=""images/blue_deck_1.png"" style=""width: 300px; height: 300px;"" />
        </div>","0","3","2","choice","0",""
"","","","","","html-keyboard-response","179","945980","0.0-145.0-0.0-0.0","2C0C9B8E7BC24D5685941ABEC8123C20","0199d603-4733-7eb8-8e79-f55b3b1a9e65","0199d5ef-c7d4-7cab-a194-b2c3afbaf8e8","","null","<div style=""display: flex; justify-content: center; align-items: center;"">
                     <img src=""images/causal/causal_series_3/causal_series_3_d.png"" style=""width: 300px; height: 300px;"" />
                   </div>","null","3","2","D","",""
"","","","","","html-keyboard-response","180","951982","0.0-145.0-0.0-1.0","2C0C9B8E7BC24D5685941ABEC8123C20","0199d603-4733-7eb8-8e79-f55b3b1a9e65","0199d5ef-c7d4-7cab-a194-b2c3afbaf8e8","","null","<div style=""display: flex; justify-content: center; align-items: center;"">
                     <img src=""images/causal/causal_series_3/causal_series_3_e.png"" style=""width: 300px; height: 300px;"" />
                   </div>","null","3","2","E","",""
"","","","","","html-keyboard-response","181","957999","0.0-145.0-0.0-2.0","2C0C9B8E7BC24D5685941ABEC8123C20","0199d603-4733-7eb8-8e79-f55b3b1a9e65","0199d5ef-c7d4-7cab-a194-b2c3afbaf8e8","","null","<div style=""display: flex; justify-content: center; align-items: center;"">
                     <img src=""images/causal/causal_series_3/causal_series_3_f.png"" style=""width: 300px; height: 300px;"" />
                   </div>","null","3","2","F","",""
"","","","","","survey-likert","182","962571","0.0-146.0","2C0C9B8E7BC24D5685941ABEC8123C20","0199d603-4733-7eb8-8e79-f55b3b1a9e65","0199d5ef-c7d4-7cab-a194-b2c3afbaf8e8","","4571","","{""Q0"":4}","3","2","surprise_rating","","[0]"
"","","","","","survey-likert","183","965983","0.0-147.0","2C0C9B8E7BC24D5685941ABEC8123C20","0199d603-4733-7eb8-8e79-f55b3b1a9e65","0199d5ef-c7d4-7cab-a194-b2c3afbaf8e8","","3411","","{""Q0"":4}","3","2","enjoyment_rating","","[0]"
"","","","","","html-keyboard-response","184","971995","0.0-148.0","2C0C9B8E7BC24D5685941ABEC8123C20","0199d603-4733-7eb8-8e79-f55b3b1a9e65","0199d5ef-c7d4-7cab-a194-b2c3afbaf8e8","","null","<div style=""display: flex; justify-content: center; align-items: center;"">
                     <img src=""images/other/blank.png"" style=""width: 300px; height: 300px;"" />
                   </div>","null","0","0","blank","",""
"","","","","","html-keyboard-response","185","978010","0.0-149.0","2C0C9B8E7BC24D5685941ABEC8123C20","0199d603-4733-7eb8-8e79-f55b3b1a9e65","0199d5ef-c7d4-7cab-a194-b2c3afbaf8e8","","null","<div style=""display: flex; justify-content: center; align-items: center;"">
                     <img src=""images/causal/causal_series_6/causal_series_6_a.png"" style=""width: 300px; height: 300px;"" />
                   </div>","null","6","1","A","",""
"","","","","","html-keyboard-response","186","984016","0.0-150.0","2C0C9B8E7BC24D5685941ABEC8123C20","0199d603-4733-7eb8-8e79-f55b3b1a9e65","0199d5ef-c7d4-7cab-a194-b2c3afbaf8e8","","null","<div style=""display: flex; justify-content: center; align-items: center;"">
                     <img src=""images/causal/causal_series_6/causal_series_6_b.png"" style=""width: 300px; height: 300px;"" />
                   </div>","null","6","1","B","",""
"","","","","","html-keyboard-response","187","990019","0.0-151.0","2C0C9B8E7BC24D5685941ABEC8123C20","0199d603-4733-7eb8-8e79-f55b3b1a9e65","0199d5ef-c7d4-7cab-a194-b2c3afbaf8e8","","null","<div style=""display: flex; justify-content: center; align-items: center;"">
                     <img src=""images/causal/causal_series_6/causal_series_6_c.png"" style=""width: 300px; height: 300px;"" />
                   </div>","null","6","1","C","",""
"","","","","","html-button-response","188","993359","0.0-152.0","2C0C9B8E7BC24D5685941ABEC8123C20","0199d603-4733-7eb8-8e79-f55b3b1a9e65","0199d5ef-c7d4-7cab-a194-b2c3afbaf8e8","","3339","
        <div style=""display: flex; justify-content: center; align-items: center;"">
          <img src=""images/red_deck_2.png"" style=""width: 300px; height: 300px; margin-right: 10px;"" />
          <img src=""images/blue_deck_1.png"" style=""width: 300px; height: 300px;"" />
        </div>","0","6","1","choice","0",""
"","","","","","html-keyboard-response","189","999362","0.0-153.0-0.0-0.0","2C0C9B8E7BC24D5685941ABEC8123C20","0199d603-4733-7eb8-8e79-f55b3b1a9e65","0199d5ef-c7d4-7cab-a194-b2c3afbaf8e8","","null","<div style=""display: flex; justify-content: center; align-items: center;"">
                     <img src=""images/causal/causal_series_6/causal_series_6_d.png"" style=""width: 300px; height: 300px;"" />
                   </div>","null","6","1","D","",""
"","","","","","html-keyboard-response","190","1005365","0.0-153.0-0.0-1.0","2C0C9B8E7BC24D5685941ABEC8123C20","0199d603-4733-7eb8-8e79-f55b3b1a9e65","0199d5ef-c7d4-7cab-a194-b2c3afbaf8e8","","null","<div style=""display: flex; justify-content: center; align-items: center;"">
                     <img src=""images/causal/causal_series_6/causal_series_6_e.png"" style=""width: 300px; height: 300px;"" />
                   </div>","null","6","1","E","",""
"","","","","","html-keyboard-response","191","1011377","0.0-153.0-0.0-2.0","2C0C9B8E7BC24D5685941ABEC8123C20","0199d603-4733-7eb8-8e79-f55b3b1a9e65","0199d5ef-c7d4-7cab-a194-b2c3afbaf8e8","","null","<div style=""display: flex; justify-content: center; align-items: center;"">
                     <img src=""images/causal/causal_series_6/causal_series_6_f.png"" style=""width: 300px; height: 300px;"" />
                   </div>","null","6","1","F","",""
"","","","","","survey-likert","192","1013817","0.0-154.0","2C0C9B8E7BC24D5685941ABEC8123C20","0199d603-4733-7eb8-8e79-f55b3b1a9e65","0199d5ef-c7d4-7cab-a194-b2c3afbaf8e8","","2439","","{""Q0"":0}","6","1","surprise_rating","","[0]"
"","","","","","survey-likert","193","1018871","0.0-155.0","2C0C9B8E7BC24D5685941ABEC8123C20","0199d603-4733-7eb8-8e79-f55b3b1a9e65","0199d5ef-c7d4-7cab-a194-b2c3afbaf8e8","","5052","","{""Q0"":3}","6","1","enjoyment_rating","","[0]"
"","","","","","html-keyboard-response","194","1024875","0.0-156.0","2C0C9B8E7BC24D5685941ABEC8123C20","0199d603-4733-7eb8-8e79-f55b3b1a9e65","0199d5ef-c7d4-7cab-a194-b2c3afbaf8e8","","null","<div style=""display: flex; justify-content: center; align-items: center;"">
                     <img src=""images/other/blank.png"" style=""width: 300px; height: 300px;"" />
                   </div>","null","0","0","blank","",""
"","","","","","html-keyboard-response","195","1030890","0.0-157.0","2C0C9B8E7BC24D5685941ABEC8123C20","0199d603-4733-7eb8-8e79-f55b3b1a9e65","0199d5ef-c7d4-7cab-a194-b2c3afbaf8e8","","null","<div style=""display: flex; justify-content: center; align-items: center;"">
                     <img src=""images/causal/causal_series_5/causal_series_5_a.png"" style=""width: 300px; height: 300px;"" />
                   </div>","null","5","2","A","",""
"","","","","","html-keyboard-response","196","1036895","0.0-158.0","2C0C9B8E7BC24D5685941ABEC8123C20","0199d603-4733-7eb8-8e79-f55b3b1a9e65","0199d5ef-c7d4-7cab-a194-b2c3afbaf8e8","","null","<div style=""display: flex; justify-content: center; align-items: center;"">
                     <img src=""images/causal/causal_series_5/causal_series_5_b.png"" style=""width: 300px; height: 300px;"" />
                   </div>","null","5","2","B","",""
"","","","","","html-keyboard-response","197","1042898","0.0-159.0","2C0C9B8E7BC24D5685941ABEC8123C20","0199d603-4733-7eb8-8e79-f55b3b1a9e65","0199d5ef-c7d4-7cab-a194-b2c3afbaf8e8","","null","<div style=""display: flex; justify-content: center; align-items: center;"">
                     <img src=""images/causal/causal_series_5/causal_series_5_c.png"" style=""width: 300px; height: 300px;"" />
                   </div>","null","5","2","C","",""
"","","","","","html-button-response","198","1044696","0.0-160.0","2C0C9B8E7BC24D5685941ABEC8123C20","0199d603-4733-7eb8-8e79-f55b3b1a9e65","0199d5ef-c7d4-7cab-a194-b2c3afbaf8e8","","1797","
        <div style=""display: flex; justify-content: center; align-items: center;"">
          <img src=""images/red_deck_2.png"" style=""width: 300px; height: 300px; margin-right: 10px;"" />
          <img src=""images/blue_deck_1.png"" style=""width: 300px; height: 300px;"" />
        </div>","1","5","2","choice","1",""
"","","","","","html-keyboard-response","199","1050713","0.0-161.0-1.0-0.0","2C0C9B8E7BC24D5685941ABEC8123C20","0199d603-4733-7eb8-8e79-f55b3b1a9e65","0199d5ef-c7d4-7cab-a194-b2c3afbaf8e8","","null","<div style=""display: flex; justify-content: center; align-items: center;"">
                     <img src=""images/semantic/semantic_series_5/semantic_series_5_d.png"" style=""width: 300px; height: 300px;"" />
                   </div>","null","5","2","D","",""
"","","","","","html-keyboard-response","200","1056725","0.0-161.0-1.0-1.0","2C0C9B8E7BC24D5685941ABEC8123C20","0199d603-4733-7eb8-8e79-f55b3b1a9e65","0199d5ef-c7d4-7cab-a194-b2c3afbaf8e8","","null","<div style=""display: flex; justify-content: center; align-items: center;"">
                     <img src=""images/semantic/semantic_series_5/semantic_series_5_e.png"" style=""width: 300px; height: 300px;"" />
                   </div>","null","5","2","E","",""
"","","","","","html-keyboard-response","201","1062732","0.0-161.0-1.0-2.0","2C0C9B8E7BC24D5685941ABEC8123C20","0199d603-4733-7eb8-8e79-f55b3b1a9e65","0199d5ef-c7d4-7cab-a194-b2c3afbaf8e8","","null","<div style=""display: flex; justify-content: center; align-items: center;"">
                     <img src=""images/semantic/semantic_series_5/semantic_series_5_f.png"" style=""width: 300px; height: 300px;"" />
                   </div>","null","5","2","F","",""
"","","","","","survey-likert","202","1065118","0.0-162.0","2C0C9B8E7BC24D5685941ABEC8123C20","0199d603-4733-7eb8-8e79-f55b3b1a9e65","0199d5ef-c7d4-7cab-a194-b2c3afbaf8e8","","2385","","{""Q0"":4}","5","2","surprise_rating","","[0]"
"","","","","","survey-likert","203","1067255","0.0-163.0","2C0C9B8E7BC24D5685941ABEC8123C20","0199d603-4733-7eb8-8e79-f55b3b1a9e65","0199d5ef-c7d4-7cab-a194-b2c3afbaf8e8","","2136","","{""Q0"":4}","5","2","enjoyment_rating","","[0]"
"","","","","","html-keyboard-response","204","1073270","0.0-164.0","2C0C9B8E7BC24D5685941ABEC8123C20","0199d603-4733-7eb8-8e79-f55b3b1a9e65","0199d5ef-c7d4-7cab-a194-b2c3afbaf8e8","","null","<div style=""display: flex; justify-content: center; align-items: center;"">
                     <img src=""images/other/blank.png"" style=""width: 300px; height: 300px;"" />
                   </div>","null","0","0","blank","",""
"","","","","","survey-text","205","1114186","0.0-165.0","2C0C9B8E7BC24D5685941ABEC8123C20","0199d603-4733-7eb8-8e79-f55b3b1a9e65","0199d5ef-c7d4-7cab-a194-b2c3afbaf8e8","","40911","","{""Q0"":""blue was more surprising and related to the first, the red was barely related""}","","","","",""
"","","","","","html-button-response","206","1118788","0.0-166.0","2C0C9B8E7BC24D5685941ABEC8123C20","0199d603-4733-7eb8-8e79-f55b3b1a9e65","0199d5ef-c7d4-7cab-a194-b2c3afbaf8e8","","4601","Which color deck do the following sentences continue the story from?","0","","","","",""
"","","","","","html-button-response","207","1120735","0.0-167.0","2C0C9B8E7BC24D5685941ABEC8123C20","0199d603-4733-7eb8-8e79-f55b3b1a9e65","0199d5ef-c7d4-7cab-a194-b2c3afbaf8e8","","1946","Which color deck do the following sentences NOT follow the story from?","1","","","","",""
"","","","","","html-button-response","208","1124186","0.0-168.0","2C0C9B8E7BC24D5685941ABEC8123C20","0199d603-4733-7eb8-8e79-f55b3b1a9e65","0199d5ef-c7d4-7cab-a194-b2c3afbaf8e8","","3451","Which type of deck did you prefer overall?","1","","","","",""
"","","","","","survey-text","209","1130581","0.0-169.0","2C0C9B8E7BC24D5685941ABEC8123C20","0199d603-4733-7eb8-8e79-f55b3b1a9e65","0199d5ef-c7d4-7cab-a194-b2c3afbaf8e8","","6391","","{""Q0"":""female"",""Q1"":""28""}","","","","",""
"","","","","","instructions","210","1135755","0.0-170.0","2C0C9B8E7BC24D5685941ABEC8123C20","0199d603-4733-7eb8-8e79-f55b3b1a9e65","0199d5ef-c7d4-7cab-a194-b2c3afbaf8e8","[{""page_index"":0,""viewing_time"":5173}]","5174","","","","","","",""
