"success","timeout","failed_images","failed_audio","failed_video","trial_type","trial_index","time_elapsed","internal_node_id","subject_id","study_id","session_id","view_history","rt","stimulus","response","choice"
"true","false","[]","[]","[]","preload","0","11027","0.0-0.0","AE8575E87DCF46DB9C086345F1D8748F","b698a8f1-4f6d-4f72-ae08-7300f8d128d8","23db58b9-63b0-4bce-8714-07ce439e665e","","","","",""
"","","","","","instructions","1","13030","0.0-1.0","AE8575E87DCF46DB9C086345F1D8748F","b698a8f1-4f6d-4f72-ae08-7300f8d128d8","23db58b9-63b0-4bce-8714-07ce439e665e","[{""page_index"":0,""viewing_time"":2002}]","2003","","",""
"","","","","","instructions","2","15429","0.0-2.0","AE8575E87DCF46DB9C086345F1D8748F","b698a8f1-4f6d-4f72-ae08-7300f8d128d8","23db58b9-63b0-4bce-8714-07ce439e665e","[{""page_index"":0,""viewing_time"":2398}]","2398","","",""
"true","","","","","fullscreen","3","17950","0.0-3.0","AE8575E87DCF46DB9C086345F1D8748F","b698a8f1-4f6d-4f72-ae08-7300f8d128d8","23db58b9-63b0-4bce-8714-07ce439e665e","","1503","","",""
"","","","","","instructions","4","22277","0.0-4.0","AE8575E87DCF46DB9C086345F1D8748F","b698a8f1-4f6d-4f72-ae08-7300f8d128d8","23db58b9-63b0-4bce-8714-07ce439e665e","[{""page_index"":0,""viewing_time"":4326}]","4327","","",""
"","","","","","html-keyboard-response","5","25289","0.0-5.0","AE8575E87DCF46DB9C086345F1D8748F","b698a8f1-4f6d-4f72-ae08-7300f8d128d8","23db58b9-63b0-4bce-8714-07ce439e665e","","null","<div style=""display: flex; justify-content: center; align-items: center;"">
                <img src=""images/causal/causal_series_11/causal_series_11_a.jpg"" style=""width: 300px; height: 300px;"" />
              </div>","null",""
"","","","","","html-button-response","6","26431","0.0-6.0","AE8575E87DCF46DB9C086345F1D8748F","b698a8f1-4f6d-4f72-ae08-7300f8d128d8","23db58b9-63b0-4bce-8714-07ce439e665e","","1141","
    <div style=""display: flex; justify-content: center; align-items: center;"">
      <img src=""images/red_deck_2.png"" style=""width: 300px; height: 300px; margin-right: 10px;"" />
      <img src=""images/blue_deck_1.png"" style=""width: 300px; height: 300px;"" />
    </div>","1","1"
"","","","","","html-keyboard-response","7","29443","0.0-7.0-1.0-0.0","AE8575E87DCF46DB9C086345F1D8748F","b698a8f1-4f6d-4f72-ae08-7300f8d128d8","23db58b9-63b0-4bce-8714-07ce439e665e","","null","<div style=""display: flex; justify-content: center; align-items: center;"">
                <img src=""images/semantic/semantic_series_12/semantic_series_12_d.jpg"" style=""width: 300px; height: 300px;"" />
              </div>","null",""
"","","","","","html-keyboard-response","8","32456","0.0-7.0-1.0-1.0","AE8575E87DCF46DB9C086345F1D8748F","b698a8f1-4f6d-4f72-ae08-7300f8d128d8","23db58b9-63b0-4bce-8714-07ce439e665e","","null","<div style=""display: flex; justify-content: center; align-items: center;"">
                <img src=""images/semantic/semantic_series_13/semantic_series_13_d.jpg"" style=""width: 300px; height: 300px;"" />
              </div>","null",""
"","","","","","html-keyboard-response","9","35469","0.0-7.0-1.0-2.0","AE8575E87DCF46DB9C086345F1D8748F","b698a8f1-4f6d-4f72-ae08-7300f8d128d8","23db58b9-63b0-4bce-8714-07ce439e665e","","null","<div style=""display: flex; justify-content: center; align-items: center;"">
                <img src=""images/semantic/semantic_series_14/semantic_series_14_d.jpg"" style=""width: 300px; height: 300px;"" />
              </div>","null",""
"","","","","","html-keyboard-response","10","38479","0.0-8.0","AE8575E87DCF46DB9C086345F1D8748F","b698a8f1-4f6d-4f72-ae08-7300f8d128d8","23db58b9-63b0-4bce-8714-07ce439e665e","","null","<div style=""display: flex; justify-content: center; align-items: center;"">
                <img src=""images/other/blank.jpg"" style=""width: 300px; height: 300px;"" />
              </div>","null",""
"","","","","","html-keyboard-response","11","41487","0.0-9.0","AE8575E87DCF46DB9C086345F1D8748F","b698a8f1-4f6d-4f72-ae08-7300f8d128d8","23db58b9-63b0-4bce-8714-07ce439e665e","","null","<div style=""display: flex; justify-content: center; align-items: center;"">
                <img src=""images/causal/causal_series_5/causal_series_5_a.jpg"" style=""width: 300px; height: 300px;"" />
              </div>","null",""
"","","","","","html-button-response","12","42581","0.0-10.0","AE8575E87DCF46DB9C086345F1D8748F","b698a8f1-4f6d-4f72-ae08-7300f8d128d8","23db58b9-63b0-4bce-8714-07ce439e665e","","1094","
    <div style=""display: flex; justify-content: center; align-items: center;"">
      <img src=""images/red_deck_2.png"" style=""width: 300px; height: 300px; margin-right: 10px;"" />
      <img src=""images/blue_deck_1.png"" style=""width: 300px; height: 300px;"" />
    </div>","1","1"
"","","","","","html-keyboard-response","13","45595","0.0-11.0-1.0-0.0","AE8575E87DCF46DB9C086345F1D8748F","b698a8f1-4f6d-4f72-ae08-7300f8d128d8","23db58b9-63b0-4bce-8714-07ce439e665e","","null","<div style=""display: flex; justify-content: center; align-items: center;"">
                <img src=""images/semantic/semantic_series_12/semantic_series_12_d.jpg"" style=""width: 300px; height: 300px;"" />
              </div>","null",""
"","","","","","html-keyboard-response","14","48611","0.0-11.0-1.0-1.0","AE8575E87DCF46DB9C086345F1D8748F","b698a8f1-4f6d-4f72-ae08-7300f8d128d8","23db58b9-63b0-4bce-8714-07ce439e665e","","null","<div style=""display: flex; justify-content: center; align-items: center;"">
                <img src=""images/semantic/semantic_series_13/semantic_series_13_d.jpg"" style=""width: 300px; height: 300px;"" />
              </div>","null",""
"","","","","","html-keyboard-response","15","51612","0.0-11.0-1.0-2.0","AE8575E87DCF46DB9C086345F1D8748F","b698a8f1-4f6d-4f72-ae08-7300f8d128d8","23db58b9-63b0-4bce-8714-07ce439e665e","","null","<div style=""display: flex; justify-content: center; align-items: center;"">
                <img src=""images/semantic/semantic_series_14/semantic_series_14_d.jpg"" style=""width: 300px; height: 300px;"" />
              </div>","null",""
"","","","","","html-keyboard-response","16","54619","0.0-12.0","AE8575E87DCF46DB9C086345F1D8748F","b698a8f1-4f6d-4f72-ae08-7300f8d128d8","23db58b9-63b0-4bce-8714-07ce439e665e","","null","<div style=""display: flex; justify-content: center; align-items: center;"">
                <img src=""images/other/blank.jpg"" style=""width: 300px; height: 300px;"" />
              </div>","null",""
"","","","","","html-keyboard-response","17","57624","0.0-13.0","AE8575E87DCF46DB9C086345F1D8748F","b698a8f1-4f6d-4f72-ae08-7300f8d128d8","23db58b9-63b0-4bce-8714-07ce439e665e","","null","<div style=""display: flex; justify-content: center; align-items: center;"">
                <img src=""images/causal/causal_series_13/causal_series_13_a.jpg"" style=""width: 300px; height: 300px;"" />
              </div>","null",""
"","","","","","html-button-response","18","58901","0.0-14.0","AE8575E87DCF46DB9C086345F1D8748F","b698a8f1-4f6d-4f72-ae08-7300f8d128d8","23db58b9-63b0-4bce-8714-07ce439e665e","","1276","
    <div style=""display: flex; justify-content: center; align-items: center;"">
      <img src=""images/red_deck_2.png"" style=""width: 300px; height: 300px; margin-right: 10px;"" />
      <img src=""images/blue_deck_1.png"" style=""width: 300px; height: 300px;"" />
    </div>","0","0"
"","","","","","html-keyboard-response","19","61907","0.0-15.0-0.0-0.0","AE8575E87DCF46DB9C086345F1D8748F","b698a8f1-4f6d-4f72-ae08-7300f8d128d8","23db58b9-63b0-4bce-8714-07ce439e665e","","null","<div style=""display: flex; justify-content: center; align-items: center;"">
                <img src=""images/causal/causal_series_13/causal_series_13_b.jpg"" style=""width: 300px; height: 300px;"" />
              </div>","null",""
"","","","","","html-keyboard-response","20","64909","0.0-15.0-0.0-1.0","AE8575E87DCF46DB9C086345F1D8748F","b698a8f1-4f6d-4f72-ae08-7300f8d128d8","23db58b9-63b0-4bce-8714-07ce439e665e","","null","<div style=""display: flex; justify-content: center; align-items: center;"">
                <img src=""images/causal/causal_series_13/causal_series_13_c.jpg"" style=""width: 300px; height: 300px;"" />
              </div>","null",""
"","","","","","html-keyboard-response","21","67913","0.0-15.0-0.0-2.0","AE8575E87DCF46DB9C086345F1D8748F","b698a8f1-4f6d-4f72-ae08-7300f8d128d8","23db58b9-63b0-4bce-8714-07ce439e665e","","null","<div style=""display: flex; justify-content: center; align-items: center;"">
                <img src=""images/causal/causal_series_13/causal_series_13_d.jpg"" style=""width: 300px; height: 300px;"" />
              </div>","null",""
"","","","","","html-keyboard-response","22","70927","0.0-16.0","AE8575E87DCF46DB9C086345F1D8748F","b698a8f1-4f6d-4f72-ae08-7300f8d128d8","23db58b9-63b0-4bce-8714-07ce439e665e","","null","<div style=""display: flex; justify-content: center; align-items: center;"">
                <img src=""images/other/blank.jpg"" style=""width: 300px; height: 300px;"" />
              </div>","null",""
"","","","","","html-keyboard-response","23","73939","0.0-17.0","AE8575E87DCF46DB9C086345F1D8748F","b698a8f1-4f6d-4f72-ae08-7300f8d128d8","23db58b9-63b0-4bce-8714-07ce439e665e","","null","<div style=""display: flex; justify-content: center; align-items: center;"">
                <img src=""images/causal/causal_series_6/causal_series_6_a.jpg"" style=""width: 300px; height: 300px;"" />
              </div>","null",""
"","","","","","html-button-response","24","75757","0.0-18.0","AE8575E87DCF46DB9C086345F1D8748F","b698a8f1-4f6d-4f72-ae08-7300f8d128d8","23db58b9-63b0-4bce-8714-07ce439e665e","","1818","
    <div style=""display: flex; justify-content: center; align-items: center;"">
      <img src=""images/red_deck_2.png"" style=""width: 300px; height: 300px; margin-right: 10px;"" />
      <img src=""images/blue_deck_1.png"" style=""width: 300px; height: 300px;"" />
    </div>","0","0"
"","","","","","html-keyboard-response","25","78767","0.0-19.0-0.0-0.0","AE8575E87DCF46DB9C086345F1D8748F","b698a8f1-4f6d-4f72-ae08-7300f8d128d8","23db58b9-63b0-4bce-8714-07ce439e665e","","null","<div style=""display: flex; justify-content: center; align-items: center;"">
                <img src=""images/causal/causal_series_6/causal_series_6_b.jpg"" style=""width: 300px; height: 300px;"" />
              </div>","null",""
"","","","","","html-keyboard-response","26","81772","0.0-19.0-0.0-1.0","AE8575E87DCF46DB9C086345F1D8748F","b698a8f1-4f6d-4f72-ae08-7300f8d128d8","23db58b9-63b0-4bce-8714-07ce439e665e","","null","<div style=""display: flex; justify-content: center; align-items: center;"">
                <img src=""images/causal/causal_series_6/causal_series_6_c.jpg"" style=""width: 300px; height: 300px;"" />
              </div>","null",""
"","","","","","html-keyboard-response","27","84780","0.0-19.0-0.0-2.0","AE8575E87DCF46DB9C086345F1D8748F","b698a8f1-4f6d-4f72-ae08-7300f8d128d8","23db58b9-63b0-4bce-8714-07ce439e665e","","null","<div style=""display: flex; justify-content: center; align-items: center;"">
                <img src=""images/causal/causal_series_6/causal_series_6_d.jpg"" style=""width: 300px; height: 300px;"" />
              </div>","null",""
"","","","","","html-keyboard-response","28","87796","0.0-20.0","AE8575E87DCF46DB9C086345F1D8748F","b698a8f1-4f6d-4f72-ae08-7300f8d128d8","23db58b9-63b0-4bce-8714-07ce439e665e","","null","<div style=""display: flex; justify-content: center; align-items: center;"">
                <img src=""images/other/blank.jpg"" style=""width: 300px; height: 300px;"" />
              </div>","null",""
"","","","","","html-keyboard-response","29","90800","0.0-21.0","AE8575E87DCF46DB9C086345F1D8748F","b698a8f1-4f6d-4f72-ae08-7300f8d128d8","23db58b9-63b0-4bce-8714-07ce439e665e","","null","<div style=""display: flex; justify-content: center; align-items: center;"">
                <img src=""images/causal/causal_series_4/causal_series_4_a.jpg"" style=""width: 300px; height: 300px;"" />
              </div>","null",""
"","","","","","html-button-response","30","92421","0.0-22.0","AE8575E87DCF46DB9C086345F1D8748F","b698a8f1-4f6d-4f72-ae08-7300f8d128d8","23db58b9-63b0-4bce-8714-07ce439e665e","","1621","
    <div style=""display: flex; justify-content: center; align-items: center;"">
      <img src=""images/red_deck_2.png"" style=""width: 300px; height: 300px; margin-right: 10px;"" />
      <img src=""images/blue_deck_1.png"" style=""width: 300px; height: 300px;"" />
    </div>","1","1"
"","","","","","html-keyboard-response","31","95435","0.0-23.0-1.0-0.0","AE8575E87DCF46DB9C086345F1D8748F","b698a8f1-4f6d-4f72-ae08-7300f8d128d8","23db58b9-63b0-4bce-8714-07ce439e665e","","null","<div style=""display: flex; justify-content: center; align-items: center;"">
                <img src=""images/semantic/semantic_series_9/semantic_series_9_d.jpg"" style=""width: 300px; height: 300px;"" />
              </div>","null",""
"","","","","","html-keyboard-response","32","98442","0.0-23.0-1.0-1.0","AE8575E87DCF46DB9C086345F1D8748F","b698a8f1-4f6d-4f72-ae08-7300f8d128d8","23db58b9-63b0-4bce-8714-07ce439e665e","","null","<div style=""display: flex; justify-content: center; align-items: center;"">
                <img src=""images/semantic/semantic_series_10/semantic_series_10_d.jpg"" style=""width: 300px; height: 300px;"" />
              </div>","null",""
"","","","","","html-keyboard-response","33","101447","0.0-23.0-1.0-2.0","AE8575E87DCF46DB9C086345F1D8748F","b698a8f1-4f6d-4f72-ae08-7300f8d128d8","23db58b9-63b0-4bce-8714-07ce439e665e","","null","<div style=""display: flex; justify-content: center; align-items: center;"">
                <img src=""images/semantic/semantic_series_11/semantic_series_11_d.jpg"" style=""width: 300px; height: 300px;"" />
              </div>","null",""
"","","","","","html-keyboard-response","34","104453","0.0-24.0","AE8575E87DCF46DB9C086345F1D8748F","b698a8f1-4f6d-4f72-ae08-7300f8d128d8","23db58b9-63b0-4bce-8714-07ce439e665e","","null","<div style=""display: flex; justify-content: center; align-items: center;"">
                <img src=""images/other/blank.jpg"" style=""width: 300px; height: 300px;"" />
              </div>","null",""
"","","","","","html-keyboard-response","35","107463","0.0-25.0","AE8575E87DCF46DB9C086345F1D8748F","b698a8f1-4f6d-4f72-ae08-7300f8d128d8","23db58b9-63b0-4bce-8714-07ce439e665e","","null","<div style=""display: flex; justify-content: center; align-items: center;"">
                <img src=""images/causal/causal_series_7/causal_series_7_a.jpg"" style=""width: 300px; height: 300px;"" />
              </div>","null",""
"","","","","","html-button-response","36","108917","0.0-26.0","AE8575E87DCF46DB9C086345F1D8748F","b698a8f1-4f6d-4f72-ae08-7300f8d128d8","23db58b9-63b0-4bce-8714-07ce439e665e","","1453","
    <div style=""display: flex; justify-content: center; align-items: center;"">
      <img src=""images/red_deck_2.png"" style=""width: 300px; height: 300px; margin-right: 10px;"" />
      <img src=""images/blue_deck_1.png"" style=""width: 300px; height: 300px;"" />
    </div>","0","0"
"","","","","","html-keyboard-response","37","111924","0.0-27.0-0.0-0.0","AE8575E87DCF46DB9C086345F1D8748F","b698a8f1-4f6d-4f72-ae08-7300f8d128d8","23db58b9-63b0-4bce-8714-07ce439e665e","","null","<div style=""display: flex; justify-content: center; align-items: center;"">
                <img src=""images/causal/causal_series_7/causal_series_7_b.jpg"" style=""width: 300px; height: 300px;"" />
              </div>","null",""
"","","","","","html-keyboard-response","38","114927","0.0-27.0-0.0-1.0","AE8575E87DCF46DB9C086345F1D8748F","b698a8f1-4f6d-4f72-ae08-7300f8d128d8","23db58b9-63b0-4bce-8714-07ce439e665e","","null","<div style=""display: flex; justify-content: center; align-items: center;"">
                <img src=""images/causal/causal_series_7/causal_series_7_c.jpg"" style=""width: 300px; height: 300px;"" />
              </div>","null",""
"","","","","","html-keyboard-response","39","117933","0.0-27.0-0.0-2.0","AE8575E87DCF46DB9C086345F1D8748F","b698a8f1-4f6d-4f72-ae08-7300f8d128d8","23db58b9-63b0-4bce-8714-07ce439e665e","","null","<div style=""display: flex; justify-content: center; align-items: center;"">
                <img src=""images/causal/causal_series_7/causal_series_7_d.jpg"" style=""width: 300px; height: 300px;"" />
              </div>","null",""
"","","","","","html-keyboard-response","40","120944","0.0-28.0","AE8575E87DCF46DB9C086345F1D8748F","b698a8f1-4f6d-4f72-ae08-7300f8d128d8","23db58b9-63b0-4bce-8714-07ce439e665e","","null","<div style=""display: flex; justify-content: center; align-items: center;"">
                <img src=""images/other/blank.jpg"" style=""width: 300px; height: 300px;"" />
              </div>","null",""
"","","","","","html-keyboard-response","41","123948","0.0-29.0","AE8575E87DCF46DB9C086345F1D8748F","b698a8f1-4f6d-4f72-ae08-7300f8d128d8","23db58b9-63b0-4bce-8714-07ce439e665e","","null","<div style=""display: flex; justify-content: center; align-items: center;"">
                <img src=""images/causal/causal_series_8/causal_series_8_a.jpg"" style=""width: 300px; height: 300px;"" />
              </div>","null",""
"","","","","","html-button-response","42","125286","0.0-30.0","AE8575E87DCF46DB9C086345F1D8748F","b698a8f1-4f6d-4f72-ae08-7300f8d128d8","23db58b9-63b0-4bce-8714-07ce439e665e","","1337","
    <div style=""display: flex; justify-content: center; align-items: center;"">
      <img src=""images/red_deck_2.png"" style=""width: 300px; height: 300px; margin-right: 10px;"" />
      <img src=""images/blue_deck_1.png"" style=""width: 300px; height: 300px;"" />
    </div>","1","1"
"","","","","","html-keyboard-response","43","128297","0.0-31.0-1.0-0.0","AE8575E87DCF46DB9C086345F1D8748F","b698a8f1-4f6d-4f72-ae08-7300f8d128d8","23db58b9-63b0-4bce-8714-07ce439e665e","","null","<div style=""display: flex; justify-content: center; align-items: center;"">
                <img src=""images/semantic/semantic_series_3/semantic_series_3_d.jpg"" style=""width: 300px; height: 300px;"" />
              </div>","null",""
"","","","","","html-keyboard-response","44","131308","0.0-31.0-1.0-1.0","AE8575E87DCF46DB9C086345F1D8748F","b698a8f1-4f6d-4f72-ae08-7300f8d128d8","23db58b9-63b0-4bce-8714-07ce439e665e","","null","<div style=""display: flex; justify-content: center; align-items: center;"">
                <img src=""images/semantic/semantic_series_4/semantic_series_4_d.jpg"" style=""width: 300px; height: 300px;"" />
              </div>","null",""
"","","","","","html-keyboard-response","45","134315","0.0-31.0-1.0-2.0","AE8575E87DCF46DB9C086345F1D8748F","b698a8f1-4f6d-4f72-ae08-7300f8d128d8","23db58b9-63b0-4bce-8714-07ce439e665e","","null","<div style=""display: flex; justify-content: center; align-items: center;"">
                <img src=""images/semantic/semantic_series_5/semantic_series_5_d.jpg"" style=""width: 300px; height: 300px;"" />
              </div>","null",""
"","","","","","html-keyboard-response","46","137326","0.0-32.0","AE8575E87DCF46DB9C086345F1D8748F","b698a8f1-4f6d-4f72-ae08-7300f8d128d8","23db58b9-63b0-4bce-8714-07ce439e665e","","null","<div style=""display: flex; justify-content: center; align-items: center;"">
                <img src=""images/other/blank.jpg"" style=""width: 300px; height: 300px;"" />
              </div>","null",""
"","","","","","html-keyboard-response","47","140338","0.0-33.0","AE8575E87DCF46DB9C086345F1D8748F","b698a8f1-4f6d-4f72-ae08-7300f8d128d8","23db58b9-63b0-4bce-8714-07ce439e665e","","null","<div style=""display: flex; justify-content: center; align-items: center;"">
                <img src=""images/causal/causal_series_9/causal_series_9_a.jpg"" style=""width: 300px; height: 300px;"" />
              </div>","null",""
"","","","","","html-button-response","48","142686","0.0-34.0","AE8575E87DCF46DB9C086345F1D8748F","b698a8f1-4f6d-4f72-ae08-7300f8d128d8","23db58b9-63b0-4bce-8714-07ce439e665e","","2348","
    <div style=""display: flex; justify-content: center; align-items: center;"">
      <img src=""images/red_deck_2.png"" style=""width: 300px; height: 300px; margin-right: 10px;"" />
      <img src=""images/blue_deck_1.png"" style=""width: 300px; height: 300px;"" />
    </div>","0","0"
"","","","","","html-keyboard-response","49","145689","0.0-35.0-0.0-0.0","AE8575E87DCF46DB9C086345F1D8748F","b698a8f1-4f6d-4f72-ae08-7300f8d128d8","23db58b9-63b0-4bce-8714-07ce439e665e","","null","<div style=""display: flex; justify-content: center; align-items: center;"">
                <img src=""images/causal/causal_series_9/causal_series_9_b.jpg"" style=""width: 300px; height: 300px;"" />
              </div>","null",""
"","","","","","html-keyboard-response","50","148697","0.0-35.0-0.0-1.0","AE8575E87DCF46DB9C086345F1D8748F","b698a8f1-4f6d-4f72-ae08-7300f8d128d8","23db58b9-63b0-4bce-8714-07ce439e665e","","null","<div style=""display: flex; justify-content: center; align-items: center;"">
                <img src=""images/causal/causal_series_9/causal_series_9_c.jpg"" style=""width: 300px; height: 300px;"" />
              </div>","null",""
"","","","","","html-keyboard-response","51","151699","0.0-35.0-0.0-2.0","AE8575E87DCF46DB9C086345F1D8748F","b698a8f1-4f6d-4f72-ae08-7300f8d128d8","23db58b9-63b0-4bce-8714-07ce439e665e","","null","<div style=""display: flex; justify-content: center; align-items: center;"">
                <img src=""images/causal/causal_series_9/causal_series_9_d.jpg"" style=""width: 300px; height: 300px;"" />
              </div>","null",""
"","","","","","html-keyboard-response","52","154704","0.0-36.0","AE8575E87DCF46DB9C086345F1D8748F","b698a8f1-4f6d-4f72-ae08-7300f8d128d8","23db58b9-63b0-4bce-8714-07ce439e665e","","null","<div style=""display: flex; justify-content: center; align-items: center;"">
                <img src=""images/other/blank.jpg"" style=""width: 300px; height: 300px;"" />
              </div>","null",""
"","","","","","html-keyboard-response","53","157707","0.0-37.0","AE8575E87DCF46DB9C086345F1D8748F","b698a8f1-4f6d-4f72-ae08-7300f8d128d8","23db58b9-63b0-4bce-8714-07ce439e665e","","null","<div style=""display: flex; justify-content: center; align-items: center;"">
                <img src=""images/causal/causal_series_3/causal_series_3_a.jpg"" style=""width: 300px; height: 300px;"" />
              </div>","null",""
"","","","","","html-button-response","54","163974","0.0-38.0","AE8575E87DCF46DB9C086345F1D8748F","b698a8f1-4f6d-4f72-ae08-7300f8d128d8","23db58b9-63b0-4bce-8714-07ce439e665e","","6266","
    <div style=""display: flex; justify-content: center; align-items: center;"">
      <img src=""images/red_deck_2.png"" style=""width: 300px; height: 300px; margin-right: 10px;"" />
      <img src=""images/blue_deck_1.png"" style=""width: 300px; height: 300px;"" />
    </div>","1","1"
"","","","","","html-keyboard-response","55","166988","0.0-39.0-1.0-0.0","AE8575E87DCF46DB9C086345F1D8748F","b698a8f1-4f6d-4f72-ae08-7300f8d128d8","23db58b9-63b0-4bce-8714-07ce439e665e","","null","<div style=""display: flex; justify-content: center; align-items: center;"">
                <img src=""images/semantic/semantic_series_6/semantic_series_6_d.jpg"" style=""width: 300px; height: 300px;"" />
              </div>","null",""
"","","","","","html-keyboard-response","56","169999","0.0-39.0-1.0-1.0","AE8575E87DCF46DB9C086345F1D8748F","b698a8f1-4f6d-4f72-ae08-7300f8d128d8","23db58b9-63b0-4bce-8714-07ce439e665e","","null","<div style=""display: flex; justify-content: center; align-items: center;"">
                <img src=""images/semantic/semantic_series_7/semantic_series_7_d.jpg"" style=""width: 300px; height: 300px;"" />
              </div>","null",""
"","","","","","html-keyboard-response","57","173014","0.0-39.0-1.0-2.0","AE8575E87DCF46DB9C086345F1D8748F","b698a8f1-4f6d-4f72-ae08-7300f8d128d8","23db58b9-63b0-4bce-8714-07ce439e665e","","null","<div style=""display: flex; justify-content: center; align-items: center;"">
                <img src=""images/semantic/semantic_series_8/semantic_series_8_d.jpg"" style=""width: 300px; height: 300px;"" />
              </div>","null",""
"","","","","","html-keyboard-response","58","176020","0.0-40.0","AE8575E87DCF46DB9C086345F1D8748F","b698a8f1-4f6d-4f72-ae08-7300f8d128d8","23db58b9-63b0-4bce-8714-07ce439e665e","","null","<div style=""display: flex; justify-content: center; align-items: center;"">
                <img src=""images/other/blank.jpg"" style=""width: 300px; height: 300px;"" />
              </div>","null",""
"","","","","","html-keyboard-response","59","179034","0.0-41.0","AE8575E87DCF46DB9C086345F1D8748F","b698a8f1-4f6d-4f72-ae08-7300f8d128d8","23db58b9-63b0-4bce-8714-07ce439e665e","","null","<div style=""display: flex; justify-content: center; align-items: center;"">
                <img src=""images/causal/causal_series_17/causal_series_17_a.jpg"" style=""width: 300px; height: 300px;"" />
              </div>","null",""
"","","","","","html-button-response","60","180206","0.0-42.0","AE8575E87DCF46DB9C086345F1D8748F","b698a8f1-4f6d-4f72-ae08-7300f8d128d8","23db58b9-63b0-4bce-8714-07ce439e665e","","1171","
    <div style=""display: flex; justify-content: center; align-items: center;"">
      <img src=""images/red_deck_2.png"" style=""width: 300px; height: 300px; margin-right: 10px;"" />
      <img src=""images/blue_deck_1.png"" style=""width: 300px; height: 300px;"" />
    </div>","0","0"
"","","","","","html-keyboard-response","61","183220","0.0-43.0-0.0-0.0","AE8575E87DCF46DB9C086345F1D8748F","b698a8f1-4f6d-4f72-ae08-7300f8d128d8","23db58b9-63b0-4bce-8714-07ce439e665e","","null","<div style=""display: flex; justify-content: center; align-items: center;"">
                <img src=""images/causal/causal_series_17/causal_series_17_b.jpg"" style=""width: 300px; height: 300px;"" />
              </div>","null",""
"","","","","","html-keyboard-response","62","186224","0.0-43.0-0.0-1.0","AE8575E87DCF46DB9C086345F1D8748F","b698a8f1-4f6d-4f72-ae08-7300f8d128d8","23db58b9-63b0-4bce-8714-07ce439e665e","","null","<div style=""display: flex; justify-content: center; align-items: center;"">
                <img src=""images/causal/causal_series_17/causal_series_17_c.jpg"" style=""width: 300px; height: 300px;"" />
              </div>","null",""
"","","","","","html-keyboard-response","63","189232","0.0-43.0-0.0-2.0","AE8575E87DCF46DB9C086345F1D8748F","b698a8f1-4f6d-4f72-ae08-7300f8d128d8","23db58b9-63b0-4bce-8714-07ce439e665e","","null","<div style=""display: flex; justify-content: center; align-items: center;"">
                <img src=""images/causal/causal_series_17/causal_series_17_d.jpg"" style=""width: 300px; height: 300px;"" />
              </div>","null",""
"","","","","","html-keyboard-response","64","192241","0.0-44.0","AE8575E87DCF46DB9C086345F1D8748F","b698a8f1-4f6d-4f72-ae08-7300f8d128d8","23db58b9-63b0-4bce-8714-07ce439e665e","","null","<div style=""display: flex; justify-content: center; align-items: center;"">
                <img src=""images/other/blank.jpg"" style=""width: 300px; height: 300px;"" />
              </div>","null",""
"","","","","","html-keyboard-response","65","195247","0.0-45.0","AE8575E87DCF46DB9C086345F1D8748F","b698a8f1-4f6d-4f72-ae08-7300f8d128d8","23db58b9-63b0-4bce-8714-07ce439e665e","","null","<div style=""display: flex; justify-content: center; align-items: center;"">
                <img src=""images/causal/causal_series_16/causal_series_16_a.jpg"" style=""width: 300px; height: 300px;"" />
              </div>","null",""
"","","","","","html-button-response","66","197502","0.0-46.0","AE8575E87DCF46DB9C086345F1D8748F","b698a8f1-4f6d-4f72-ae08-7300f8d128d8","23db58b9-63b0-4bce-8714-07ce439e665e","","2254","
    <div style=""display: flex; justify-content: center; align-items: center;"">
      <img src=""images/red_deck_2.png"" style=""width: 300px; height: 300px; margin-right: 10px;"" />
      <img src=""images/blue_deck_1.png"" style=""width: 300px; height: 300px;"" />
    </div>","1","1"
"","","","","","html-keyboard-response","67","200507","0.0-47.0-1.0-0.0","AE8575E87DCF46DB9C086345F1D8748F","b698a8f1-4f6d-4f72-ae08-7300f8d128d8","23db58b9-63b0-4bce-8714-07ce439e665e","","null","<div style=""display: flex; justify-content: center; align-items: center;"">
                <img src=""images/semantic/semantic_series_9/semantic_series_9_d.jpg"" style=""width: 300px; height: 300px;"" />
              </div>","null",""
"","","","","","html-keyboard-response","68","203514","0.0-47.0-1.0-1.0","AE8575E87DCF46DB9C086345F1D8748F","b698a8f1-4f6d-4f72-ae08-7300f8d128d8","23db58b9-63b0-4bce-8714-07ce439e665e","","null","<div style=""display: flex; justify-content: center; align-items: center;"">
                <img src=""images/semantic/semantic_series_10/semantic_series_10_d.jpg"" style=""width: 300px; height: 300px;"" />
              </div>","null",""
"","","","","","html-keyboard-response","69","206529","0.0-47.0-1.0-2.0","AE8575E87DCF46DB9C086345F1D8748F","b698a8f1-4f6d-4f72-ae08-7300f8d128d8","23db58b9-63b0-4bce-8714-07ce439e665e","","null","<div style=""display: flex; justify-content: center; align-items: center;"">
                <img src=""images/semantic/semantic_series_11/semantic_series_11_d.jpg"" style=""width: 300px; height: 300px;"" />
              </div>","null",""
"","","","","","html-keyboard-response","70","209534","0.0-48.0","AE8575E87DCF46DB9C086345F1D8748F","b698a8f1-4f6d-4f72-ae08-7300f8d128d8","23db58b9-63b0-4bce-8714-07ce439e665e","","null","<div style=""display: flex; justify-content: center; align-items: center;"">
                <img src=""images/other/blank.jpg"" style=""width: 300px; height: 300px;"" />
              </div>","null",""
"","","","","","html-keyboard-response","71","212539","0.0-49.0","AE8575E87DCF46DB9C086345F1D8748F","b698a8f1-4f6d-4f72-ae08-7300f8d128d8","23db58b9-63b0-4bce-8714-07ce439e665e","","null","<div style=""display: flex; justify-content: center; align-items: center;"">
                <img src=""images/causal/causal_series_1/causal_series_1_a.jpg"" style=""width: 300px; height: 300px;"" />
              </div>","null",""
"","","","","","html-button-response","72","213726","0.0-50.0","AE8575E87DCF46DB9C086345F1D8748F","b698a8f1-4f6d-4f72-ae08-7300f8d128d8","23db58b9-63b0-4bce-8714-07ce439e665e","","1186","
    <div style=""display: flex; justify-content: center; align-items: center;"">
      <img src=""images/red_deck_2.png"" style=""width: 300px; height: 300px; margin-right: 10px;"" />
      <img src=""images/blue_deck_1.png"" style=""width: 300px; height: 300px;"" />
    </div>","1","1"
"","","","","","html-keyboard-response","73","216732","0.0-51.0-1.0-0.0","AE8575E87DCF46DB9C086345F1D8748F","b698a8f1-4f6d-4f72-ae08-7300f8d128d8","23db58b9-63b0-4bce-8714-07ce439e665e","","null","<div style=""display: flex; justify-content: center; align-items: center;"">
                <img src=""images/semantic/semantic_series_18/semantic_series_18_d.jpg"" style=""width: 300px; height: 300px;"" />
              </div>","null",""
"","","","","","html-keyboard-response","74","219738","0.0-51.0-1.0-1.0","AE8575E87DCF46DB9C086345F1D8748F","b698a8f1-4f6d-4f72-ae08-7300f8d128d8","23db58b9-63b0-4bce-8714-07ce439e665e","","null","<div style=""display: flex; justify-content: center; align-items: center;"">
                <img src=""images/semantic/semantic_series_1/semantic_series_1_d.jpg"" style=""width: 300px; height: 300px;"" />
              </div>","null",""
"","","","","","html-keyboard-response","75","222746","0.0-51.0-1.0-2.0","AE8575E87DCF46DB9C086345F1D8748F","b698a8f1-4f6d-4f72-ae08-7300f8d128d8","23db58b9-63b0-4bce-8714-07ce439e665e","","null","<div style=""display: flex; justify-content: center; align-items: center;"">
                <img src=""images/semantic/semantic_series_2/semantic_series_2_d.jpg"" style=""width: 300px; height: 300px;"" />
              </div>","null",""
"","","","","","html-keyboard-response","76","225753","0.0-52.0","AE8575E87DCF46DB9C086345F1D8748F","b698a8f1-4f6d-4f72-ae08-7300f8d128d8","23db58b9-63b0-4bce-8714-07ce439e665e","","null","<div style=""display: flex; justify-content: center; align-items: center;"">
                <img src=""images/other/blank.jpg"" style=""width: 300px; height: 300px;"" />
              </div>","null",""
"","","","","","html-keyboard-response","77","228766","0.0-53.0","AE8575E87DCF46DB9C086345F1D8748F","b698a8f1-4f6d-4f72-ae08-7300f8d128d8","23db58b9-63b0-4bce-8714-07ce439e665e","","null","<div style=""display: flex; justify-content: center; align-items: center;"">
                <img src=""images/causal/causal_series_2/causal_series_2_a.jpg"" style=""width: 300px; height: 300px;"" />
              </div>","null",""
"","","","","","html-button-response","78","230614","0.0-54.0","AE8575E87DCF46DB9C086345F1D8748F","b698a8f1-4f6d-4f72-ae08-7300f8d128d8","23db58b9-63b0-4bce-8714-07ce439e665e","","1848","
    <div style=""display: flex; justify-content: center; align-items: center;"">
      <img src=""images/red_deck_2.png"" style=""width: 300px; height: 300px; margin-right: 10px;"" />
      <img src=""images/blue_deck_1.png"" style=""width: 300px; height: 300px;"" />
    </div>","0","0"
"","","","","","html-keyboard-response","79","233626","0.0-55.0-0.0-0.0","AE8575E87DCF46DB9C086345F1D8748F","b698a8f1-4f6d-4f72-ae08-7300f8d128d8","23db58b9-63b0-4bce-8714-07ce439e665e","","null","<div style=""display: flex; justify-content: center; align-items: center;"">
                <img src=""images/causal/causal_series_2/causal_series_2_b.jpg"" style=""width: 300px; height: 300px;"" />
              </div>","null",""
"","","","","","html-keyboard-response","80","236636","0.0-55.0-0.0-1.0","AE8575E87DCF46DB9C086345F1D8748F","b698a8f1-4f6d-4f72-ae08-7300f8d128d8","23db58b9-63b0-4bce-8714-07ce439e665e","","null","<div style=""display: flex; justify-content: center; align-items: center;"">
                <img src=""images/causal/causal_series_2/causal_series_2_c.jpg"" style=""width: 300px; height: 300px;"" />
              </div>","null",""
"","","","","","html-keyboard-response","81","239652","0.0-55.0-0.0-2.0","AE8575E87DCF46DB9C086345F1D8748F","b698a8f1-4f6d-4f72-ae08-7300f8d128d8","23db58b9-63b0-4bce-8714-07ce439e665e","","null","<div style=""display: flex; justify-content: center; align-items: center;"">
                <img src=""images/causal/causal_series_2/causal_series_2_d.jpg"" style=""width: 300px; height: 300px;"" />
              </div>","null",""
"","","","","","html-keyboard-response","82","242656","0.0-56.0","AE8575E87DCF46DB9C086345F1D8748F","b698a8f1-4f6d-4f72-ae08-7300f8d128d8","23db58b9-63b0-4bce-8714-07ce439e665e","","null","<div style=""display: flex; justify-content: center; align-items: center;"">
                <img src=""images/other/blank.jpg"" style=""width: 300px; height: 300px;"" />
              </div>","null",""
"","","","","","html-keyboard-response","83","245671","0.0-57.0","AE8575E87DCF46DB9C086345F1D8748F","b698a8f1-4f6d-4f72-ae08-7300f8d128d8","23db58b9-63b0-4bce-8714-07ce439e665e","","null","<div style=""display: flex; justify-content: center; align-items: center;"">
                <img src=""images/causal/causal_series_12/causal_series_12_a.jpg"" style=""width: 300px; height: 300px;"" />
              </div>","null",""
"","","","","","html-button-response","84","247327","0.0-58.0","AE8575E87DCF46DB9C086345F1D8748F","b698a8f1-4f6d-4f72-ae08-7300f8d128d8","23db58b9-63b0-4bce-8714-07ce439e665e","","1655","
    <div style=""display: flex; justify-content: center; align-items: center;"">
      <img src=""images/red_deck_2.png"" style=""width: 300px; height: 300px; margin-right: 10px;"" />
      <img src=""images/blue_deck_1.png"" style=""width: 300px; height: 300px;"" />
    </div>","1","1"
"","","","","","html-keyboard-response","85","250339","0.0-59.0-1.0-0.0","AE8575E87DCF46DB9C086345F1D8748F","b698a8f1-4f6d-4f72-ae08-7300f8d128d8","23db58b9-63b0-4bce-8714-07ce439e665e","","null","<div style=""display: flex; justify-content: center; align-items: center;"">
                <img src=""images/semantic/semantic_series_15/semantic_series_15_d.jpg"" style=""width: 300px; height: 300px;"" />
              </div>","null",""
"","","","","","html-keyboard-response","86","253349","0.0-59.0-1.0-1.0","AE8575E87DCF46DB9C086345F1D8748F","b698a8f1-4f6d-4f72-ae08-7300f8d128d8","23db58b9-63b0-4bce-8714-07ce439e665e","","null","<div style=""display: flex; justify-content: center; align-items: center;"">
                <img src=""images/semantic/semantic_series_16/semantic_series_16_d.jpg"" style=""width: 300px; height: 300px;"" />
              </div>","null",""
"","","","","","html-keyboard-response","87","256364","0.0-59.0-1.0-2.0","AE8575E87DCF46DB9C086345F1D8748F","b698a8f1-4f6d-4f72-ae08-7300f8d128d8","23db58b9-63b0-4bce-8714-07ce439e665e","","null","<div style=""display: flex; justify-content: center; align-items: center;"">
                <img src=""images/semantic/semantic_series_17/semantic_series_17_d.jpg"" style=""width: 300px; height: 300px;"" />
              </div>","null",""
"","","","","","html-keyboard-response","88","259373","0.0-60.0","AE8575E87DCF46DB9C086345F1D8748F","b698a8f1-4f6d-4f72-ae08-7300f8d128d8","23db58b9-63b0-4bce-8714-07ce439e665e","","null","<div style=""display: flex; justify-content: center; align-items: center;"">
                <img src=""images/other/blank.jpg"" style=""width: 300px; height: 300px;"" />
              </div>","null",""
"","","","","","html-keyboard-response","89","262384","0.0-61.0","AE8575E87DCF46DB9C086345F1D8748F","b698a8f1-4f6d-4f72-ae08-7300f8d128d8","23db58b9-63b0-4bce-8714-07ce439e665e","","null","<div style=""display: flex; justify-content: center; align-items: center;"">
                <img src=""images/causal/causal_series_15/causal_series_15_a.jpg"" style=""width: 300px; height: 300px;"" />
              </div>","null",""
"","","","","","html-button-response","90","264279","0.0-62.0","AE8575E87DCF46DB9C086345F1D8748F","b698a8f1-4f6d-4f72-ae08-7300f8d128d8","23db58b9-63b0-4bce-8714-07ce439e665e","","1894","
    <div style=""display: flex; justify-content: center; align-items: center;"">
      <img src=""images/red_deck_2.png"" style=""width: 300px; height: 300px; margin-right: 10px;"" />
      <img src=""images/blue_deck_1.png"" style=""width: 300px; height: 300px;"" />
    </div>","1","1"
"","","","","","html-keyboard-response","91","267280","0.0-63.0-1.0-0.0","AE8575E87DCF46DB9C086345F1D8748F","b698a8f1-4f6d-4f72-ae08-7300f8d128d8","23db58b9-63b0-4bce-8714-07ce439e665e","","null","<div style=""display: flex; justify-content: center; align-items: center;"">
                <img src=""images/semantic/semantic_series_6/semantic_series_6_d.jpg"" style=""width: 300px; height: 300px;"" />
              </div>","null",""
"","","","","","html-keyboard-response","92","270288","0.0-63.0-1.0-1.0","AE8575E87DCF46DB9C086345F1D8748F","b698a8f1-4f6d-4f72-ae08-7300f8d128d8","23db58b9-63b0-4bce-8714-07ce439e665e","","null","<div style=""display: flex; justify-content: center; align-items: center;"">
                <img src=""images/semantic/semantic_series_7/semantic_series_7_d.jpg"" style=""width: 300px; height: 300px;"" />
              </div>","null",""
"","","","","","html-keyboard-response","93","273303","0.0-63.0-1.0-2.0","AE8575E87DCF46DB9C086345F1D8748F","b698a8f1-4f6d-4f72-ae08-7300f8d128d8","23db58b9-63b0-4bce-8714-07ce439e665e","","null","<div style=""display: flex; justify-content: center; align-items: center;"">
                <img src=""images/semantic/semantic_series_8/semantic_series_8_d.jpg"" style=""width: 300px; height: 300px;"" />
              </div>","null",""
"","","","","","html-keyboard-response","94","276314","0.0-64.0","AE8575E87DCF46DB9C086345F1D8748F","b698a8f1-4f6d-4f72-ae08-7300f8d128d8","23db58b9-63b0-4bce-8714-07ce439e665e","","null","<div style=""display: flex; justify-content: center; align-items: center;"">
                <img src=""images/other/blank.jpg"" style=""width: 300px; height: 300px;"" />
              </div>","null",""
"","","","","","html-keyboard-response","95","279319","0.0-65.0","AE8575E87DCF46DB9C086345F1D8748F","b698a8f1-4f6d-4f72-ae08-7300f8d128d8","23db58b9-63b0-4bce-8714-07ce439e665e","","null","<div style=""display: flex; justify-content: center; align-items: center;"">
                <img src=""images/causal/causal_series_18/causal_series_18_a.jpg"" style=""width: 300px; height: 300px;"" />
              </div>","null",""
"","","","","","html-button-response","96","280223","0.0-66.0","AE8575E87DCF46DB9C086345F1D8748F","b698a8f1-4f6d-4f72-ae08-7300f8d128d8","23db58b9-63b0-4bce-8714-07ce439e665e","","903","
    <div style=""display: flex; justify-content: center; align-items: center;"">
      <img src=""images/red_deck_2.png"" style=""width: 300px; height: 300px; margin-right: 10px;"" />
      <img src=""images/blue_deck_1.png"" style=""width: 300px; height: 300px;"" />
    </div>","1","1"
"","","","","","html-keyboard-response","97","283226","0.0-67.0-1.0-0.0","AE8575E87DCF46DB9C086345F1D8748F","b698a8f1-4f6d-4f72-ae08-7300f8d128d8","23db58b9-63b0-4bce-8714-07ce439e665e","","null","<div style=""display: flex; justify-content: center; align-items: center;"">
                <img src=""images/semantic/semantic_series_15/semantic_series_15_d.jpg"" style=""width: 300px; height: 300px;"" />
              </div>","null",""
"","","","","","html-keyboard-response","98","286237","0.0-67.0-1.0-1.0","AE8575E87DCF46DB9C086345F1D8748F","b698a8f1-4f6d-4f72-ae08-7300f8d128d8","23db58b9-63b0-4bce-8714-07ce439e665e","","null","<div style=""display: flex; justify-content: center; align-items: center;"">
                <img src=""images/semantic/semantic_series_16/semantic_series_16_d.jpg"" style=""width: 300px; height: 300px;"" />
              </div>","null",""
"","","","","","html-keyboard-response","99","289243","0.0-67.0-1.0-2.0","AE8575E87DCF46DB9C086345F1D8748F","b698a8f1-4f6d-4f72-ae08-7300f8d128d8","23db58b9-63b0-4bce-8714-07ce439e665e","","null","<div style=""display: flex; justify-content: center; align-items: center;"">
                <img src=""images/semantic/semantic_series_17/semantic_series_17_d.jpg"" style=""width: 300px; height: 300px;"" />
              </div>","null",""
"","","","","","html-keyboard-response","100","292246","0.0-68.0","AE8575E87DCF46DB9C086345F1D8748F","b698a8f1-4f6d-4f72-ae08-7300f8d128d8","23db58b9-63b0-4bce-8714-07ce439e665e","","null","<div style=""display: flex; justify-content: center; align-items: center;"">
                <img src=""images/other/blank.jpg"" style=""width: 300px; height: 300px;"" />
              </div>","null",""
"","","","","","html-keyboard-response","101","295258","0.0-69.0","AE8575E87DCF46DB9C086345F1D8748F","b698a8f1-4f6d-4f72-ae08-7300f8d128d8","23db58b9-63b0-4bce-8714-07ce439e665e","","null","<div style=""display: flex; justify-content: center; align-items: center;"">
                <img src=""images/causal/causal_series_10/causal_series_10_a.jpg"" style=""width: 300px; height: 300px;"" />
              </div>","null",""
"","","","","","html-button-response","102","297951","0.0-70.0","AE8575E87DCF46DB9C086345F1D8748F","b698a8f1-4f6d-4f72-ae08-7300f8d128d8","23db58b9-63b0-4bce-8714-07ce439e665e","","2691","
    <div style=""display: flex; justify-content: center; align-items: center;"">
      <img src=""images/red_deck_2.png"" style=""width: 300px; height: 300px; margin-right: 10px;"" />
      <img src=""images/blue_deck_1.png"" style=""width: 300px; height: 300px;"" />
    </div>","1","1"
"","","","","","html-keyboard-response","103","300960","0.0-71.0-1.0-0.0","AE8575E87DCF46DB9C086345F1D8748F","b698a8f1-4f6d-4f72-ae08-7300f8d128d8","23db58b9-63b0-4bce-8714-07ce439e665e","","null","<div style=""display: flex; justify-content: center; align-items: center;"">
                <img src=""images/semantic/semantic_series_9/semantic_series_9_d.jpg"" style=""width: 300px; height: 300px;"" />
              </div>","null",""
"","","","","","html-keyboard-response","104","303965","0.0-71.0-1.0-1.0","AE8575E87DCF46DB9C086345F1D8748F","b698a8f1-4f6d-4f72-ae08-7300f8d128d8","23db58b9-63b0-4bce-8714-07ce439e665e","","null","<div style=""display: flex; justify-content: center; align-items: center;"">
                <img src=""images/semantic/semantic_series_10/semantic_series_10_d.jpg"" style=""width: 300px; height: 300px;"" />
              </div>","null",""
"","","","","","html-keyboard-response","105","306969","0.0-71.0-1.0-2.0","AE8575E87DCF46DB9C086345F1D8748F","b698a8f1-4f6d-4f72-ae08-7300f8d128d8","23db58b9-63b0-4bce-8714-07ce439e665e","","null","<div style=""display: flex; justify-content: center; align-items: center;"">
                <img src=""images/semantic/semantic_series_11/semantic_series_11_d.jpg"" style=""width: 300px; height: 300px;"" />
              </div>","null",""
"","","","","","html-keyboard-response","106","309975","0.0-72.0","AE8575E87DCF46DB9C086345F1D8748F","b698a8f1-4f6d-4f72-ae08-7300f8d128d8","23db58b9-63b0-4bce-8714-07ce439e665e","","null","<div style=""display: flex; justify-content: center; align-items: center;"">
                <img src=""images/other/blank.jpg"" style=""width: 300px; height: 300px;"" />
              </div>","null",""
"","","","","","html-keyboard-response","107","312987","0.0-73.0","AE8575E87DCF46DB9C086345F1D8748F","b698a8f1-4f6d-4f72-ae08-7300f8d128d8","23db58b9-63b0-4bce-8714-07ce439e665e","","null","<div style=""display: flex; justify-content: center; align-items: center;"">
                <img src=""images/causal/causal_series_14/causal_series_14_a.jpg"" style=""width: 300px; height: 300px;"" />
              </div>","null",""
"","","","","","html-button-response","108","315255","0.0-74.0","AE8575E87DCF46DB9C086345F1D8748F","b698a8f1-4f6d-4f72-ae08-7300f8d128d8","23db58b9-63b0-4bce-8714-07ce439e665e","","2267","
    <div style=""display: flex; justify-content: center; align-items: center;"">
      <img src=""images/red_deck_2.png"" style=""width: 300px; height: 300px; margin-right: 10px;"" />
      <img src=""images/blue_deck_1.png"" style=""width: 300px; height: 300px;"" />
    </div>","1","1"
"","","","","","html-keyboard-response","109","318258","0.0-75.0-1.0-0.0","AE8575E87DCF46DB9C086345F1D8748F","b698a8f1-4f6d-4f72-ae08-7300f8d128d8","23db58b9-63b0-4bce-8714-07ce439e665e","","null","<div style=""display: flex; justify-content: center; align-items: center;"">
                <img src=""images/semantic/semantic_series_3/semantic_series_3_d.jpg"" style=""width: 300px; height: 300px;"" />
              </div>","null",""
"","","","","","html-keyboard-response","110","321262","0.0-75.0-1.0-1.0","AE8575E87DCF46DB9C086345F1D8748F","b698a8f1-4f6d-4f72-ae08-7300f8d128d8","23db58b9-63b0-4bce-8714-07ce439e665e","","null","<div style=""display: flex; justify-content: center; align-items: center;"">
                <img src=""images/semantic/semantic_series_4/semantic_series_4_d.jpg"" style=""width: 300px; height: 300px;"" />
              </div>","null",""
"","","","","","html-keyboard-response","111","324268","0.0-75.0-1.0-2.0","AE8575E87DCF46DB9C086345F1D8748F","b698a8f1-4f6d-4f72-ae08-7300f8d128d8","23db58b9-63b0-4bce-8714-07ce439e665e","","null","<div style=""display: flex; justify-content: center; align-items: center;"">
                <img src=""images/semantic/semantic_series_5/semantic_series_5_d.jpg"" style=""width: 300px; height: 300px;"" />
              </div>","null",""
"","","","","","html-keyboard-response","112","327279","0.0-76.0","AE8575E87DCF46DB9C086345F1D8748F","b698a8f1-4f6d-4f72-ae08-7300f8d128d8","23db58b9-63b0-4bce-8714-07ce439e665e","","null","<div style=""display: flex; justify-content: center; align-items: center;"">
                <img src=""images/other/blank.jpg"" style=""width: 300px; height: 300px;"" />
              </div>","null",""
"","","","","","survey-text","113","336504","0.0-77.0","AE8575E87DCF46DB9C086345F1D8748F","b698a8f1-4f6d-4f72-ae08-7300f8d128d8","23db58b9-63b0-4bce-8714-07ce439e665e","","9221","","{""Q0"":""One was red and one was blue""}",""
"","","","","","survey-text","114","341047","0.0-78.0","AE8575E87DCF46DB9C086345F1D8748F","b698a8f1-4f6d-4f72-ae08-7300f8d128d8","23db58b9-63b0-4bce-8714-07ce439e665e","","4540","","{""Q0"":""Blue""}",""
"","","","","","html-button-response","115","347487","0.0-79.0","AE8575E87DCF46DB9C086345F1D8748F","b698a8f1-4f6d-4f72-ae08-7300f8d128d8","23db58b9-63b0-4bce-8714-07ce439e665e","","6439","Which color deck does the fourth image continue the story from the series?","1",""
"","","","","","html-button-response","116","352624","0.0-80.0","AE8575E87DCF46DB9C086345F1D8748F","b698a8f1-4f6d-4f72-ae08-7300f8d128d8","23db58b9-63b0-4bce-8714-07ce439e665e","","5136","Which color deck does the fourth image not follow the story from the series?","0",""
"","","","","","survey-text","117","357583","0.0-81.0","AE8575E87DCF46DB9C086345F1D8748F","b698a8f1-4f6d-4f72-ae08-7300f8d128d8","23db58b9-63b0-4bce-8714-07ce439e665e","","4957","","{""Q0"":""Female"",""Q1"":""26""}",""
"","","","","","instructions","118","361079","0.0-82.0","AE8575E87DCF46DB9C086345F1D8748F","b698a8f1-4f6d-4f72-ae08-7300f8d128d8","23db58b9-63b0-4bce-8714-07ce439e665e","[{""page_index"":0,""viewing_time"":3495}]","3495","","",""
