"success","timeout","failed_images","failed_audio","failed_video","trial_type","trial_index","time_elapsed","internal_node_id","subject_id","study_id","session_id","view_history","rt","stimulus","response","series","repetition","phase","choice","question_order"
"true","false","[]","[]","[]","preload","0","486","0.0-0.0","B7F0880DC2334F2A989B4FCAA3D9EB44","0199d694-5810-7e6c-89df-9ccd1b69e590","0199d675-8795-765b-adc2-c813de8cd3d1","","","","","","","","",""
"","","","","","instructions","1","2592","0.0-1.0","B7F0880DC2334F2A989B4FCAA3D9EB44","0199d694-5810-7e6c-89df-9ccd1b69e590","0199d675-8795-765b-adc2-c813de8cd3d1","[{""page_index"":0,""viewing_time"":2105}]","2105","","","","","","",""
"","","","","","instructions","2","10357","0.0-2.0","B7F0880DC2334F2A989B4FCAA3D9EB44","0199d694-5810-7e6c-89df-9ccd1b69e590","0199d675-8795-765b-adc2-c813de8cd3d1","[{""page_index"":0,""viewing_time"":7764}]","7764","","","","","","",""
"true","","","","","fullscreen","3","13158","0.0-3.0","B7F0880DC2334F2A989B4FCAA3D9EB44","0199d694-5810-7e6c-89df-9ccd1b69e590","0199d675-8795-765b-adc2-c813de8cd3d1","","1799","","","","","","",""
"","","","","","instructions","4","60656","0.0-4.0","B7F0880DC2334F2A989B4FCAA3D9EB44","0199d694-5810-7e6c-89df-9ccd1b69e590","0199d675-8795-765b-adc2-c813de8cd3d1","[{""page_index"":0,""viewing_time"":47498}]","47498","","","","","","",""
"","","","","","html-keyboard-response","5","66659","0.0-5.0","B7F0880DC2334F2A989B4FCAA3D9EB44","0199d694-5810-7e6c-89df-9ccd1b69e590","0199d675-8795-765b-adc2-c813de8cd3d1","","null","<div style=""display: flex; justify-content: center; align-items: center;"">
                     <img src=""images/causal/causal_series_2/causal_series_2_a.png"" style=""width: 300px; height: 300px;"" />
                   </div>","null","2","2","A","",""
"","","","","","html-button-response","6","69440","0.0-6.0","B7F0880DC2334F2A989B4FCAA3D9EB44","0199d694-5810-7e6c-89df-9ccd1b69e590","0199d675-8795-765b-adc2-c813de8cd3d1","","2779","
        <div style=""display: flex; justify-content: center; align-items: center;"">
          <img src=""images/red_deck_2.png"" style=""width: 300px; height: 300px; margin-right: 10px;"" />
          <img src=""images/blue_deck_1.png"" style=""width: 300px; height: 300px;"" />
        </div>","0","2","2","choice","0",""
"","","","","","html-keyboard-response","7","75443","0.0-7.0-0.0-0.0","B7F0880DC2334F2A989B4FCAA3D9EB44","0199d694-5810-7e6c-89df-9ccd1b69e590","0199d675-8795-765b-adc2-c813de8cd3d1","","null","<div style=""display: flex; justify-content: center; align-items: center;"">
                     <img src=""images/causal/causal_series_2/causal_series_2_b.png"" style=""width: 300px; height: 300px;"" />
                   </div>","null","2","2","B","",""
"","","","","","html-keyboard-response","8","81446","0.0-7.0-0.0-1.0","B7F0880DC2334F2A989B4FCAA3D9EB44","0199d694-5810-7e6c-89df-9ccd1b69e590","0199d675-8795-765b-adc2-c813de8cd3d1","","null","<div style=""display: flex; justify-content: center; align-items: center;"">
                     <img src=""images/causal/causal_series_2/causal_series_2_c.png"" style=""width: 300px; height: 300px;"" />
                   </div>","null","2","2","C","",""
"","","","","","html-keyboard-response","9","87448","0.0-7.0-0.0-2.0","B7F0880DC2334F2A989B4FCAA3D9EB44","0199d694-5810-7e6c-89df-9ccd1b69e590","0199d675-8795-765b-adc2-c813de8cd3d1","","null","<div style=""display: flex; justify-content: center; align-items: center;"">
                     <img src=""images/causal/causal_series_2/causal_series_2_d.png"" style=""width: 300px; height: 300px;"" />
                   </div>","null","2","2","D","",""
"","","","","","survey-likert","10","92010","0.0-8.0","B7F0880DC2334F2A989B4FCAA3D9EB44","0199d694-5810-7e6c-89df-9ccd1b69e590","0199d675-8795-765b-adc2-c813de8cd3d1","","4559","","{""Q0"":2}","2","2","surprise_rating","","[0]"
"","","","","","survey-likert","11","95138","0.0-9.0","B7F0880DC2334F2A989B4FCAA3D9EB44","0199d694-5810-7e6c-89df-9ccd1b69e590","0199d675-8795-765b-adc2-c813de8cd3d1","","3127","","{""Q0"":1}","2","2","enjoyment_rating","","[0]"
"","","","","","html-keyboard-response","12","101141","0.0-10.0","B7F0880DC2334F2A989B4FCAA3D9EB44","0199d694-5810-7e6c-89df-9ccd1b69e590","0199d675-8795-765b-adc2-c813de8cd3d1","","null","<div style=""display: flex; justify-content: center; align-items: center;"">
                     <img src=""images/other/blank.png"" style=""width: 300px; height: 300px;"" />
                   </div>","null","0","0","blank","",""
"","","","","","html-keyboard-response","13","107143","0.0-11.0","B7F0880DC2334F2A989B4FCAA3D9EB44","0199d694-5810-7e6c-89df-9ccd1b69e590","0199d675-8795-765b-adc2-c813de8cd3d1","","null","<div style=""display: flex; justify-content: center; align-items: center;"">
                     <img src=""images/causal/causal_series_4/causal_series_4_a.png"" style=""width: 300px; height: 300px;"" />
                   </div>","null","4","2","A","",""
"","","","","","html-button-response","14","108690","0.0-12.0","B7F0880DC2334F2A989B4FCAA3D9EB44","0199d694-5810-7e6c-89df-9ccd1b69e590","0199d675-8795-765b-adc2-c813de8cd3d1","","1546","
        <div style=""display: flex; justify-content: center; align-items: center;"">
          <img src=""images/red_deck_2.png"" style=""width: 300px; height: 300px; margin-right: 10px;"" />
          <img src=""images/blue_deck_1.png"" style=""width: 300px; height: 300px;"" />
        </div>","1","4","2","choice","1",""
"","","","","","html-keyboard-response","15","114693","0.0-13.0-1.0-0.0","B7F0880DC2334F2A989B4FCAA3D9EB44","0199d694-5810-7e6c-89df-9ccd1b69e590","0199d675-8795-765b-adc2-c813de8cd3d1","","null","<div style=""display: flex; justify-content: center; align-items: center;"">
                     <img src=""images/semantic/semantic_series_4/semantic_series_4_b.png"" style=""width: 300px; height: 300px;"" />
                   </div>","null","4","2","B","",""
"","","","","","html-keyboard-response","16","120695","0.0-13.0-1.0-1.0","B7F0880DC2334F2A989B4FCAA3D9EB44","0199d694-5810-7e6c-89df-9ccd1b69e590","0199d675-8795-765b-adc2-c813de8cd3d1","","null","<div style=""display: flex; justify-content: center; align-items: center;"">
                     <img src=""images/semantic/semantic_series_4/semantic_series_4_c.png"" style=""width: 300px; height: 300px;"" />
                   </div>","null","4","2","C","",""
"","","","","","html-keyboard-response","17","126698","0.0-13.0-1.0-2.0","B7F0880DC2334F2A989B4FCAA3D9EB44","0199d694-5810-7e6c-89df-9ccd1b69e590","0199d675-8795-765b-adc2-c813de8cd3d1","","null","<div style=""display: flex; justify-content: center; align-items: center;"">
                     <img src=""images/semantic/semantic_series_4/semantic_series_4_d.png"" style=""width: 300px; height: 300px;"" />
                   </div>","null","4","2","D","",""
"","","","","","survey-likert","18","129905","0.0-14.0","B7F0880DC2334F2A989B4FCAA3D9EB44","0199d694-5810-7e6c-89df-9ccd1b69e590","0199d675-8795-765b-adc2-c813de8cd3d1","","3206","","{""Q0"":3}","4","2","surprise_rating","","[0]"
"","","","","","survey-likert","19","132688","0.0-15.0","B7F0880DC2334F2A989B4FCAA3D9EB44","0199d694-5810-7e6c-89df-9ccd1b69e590","0199d675-8795-765b-adc2-c813de8cd3d1","","2782","","{""Q0"":0}","4","2","enjoyment_rating","","[0]"
"","","","","","html-keyboard-response","20","138691","0.0-16.0","B7F0880DC2334F2A989B4FCAA3D9EB44","0199d694-5810-7e6c-89df-9ccd1b69e590","0199d675-8795-765b-adc2-c813de8cd3d1","","null","<div style=""display: flex; justify-content: center; align-items: center;"">
                     <img src=""images/other/blank.png"" style=""width: 300px; height: 300px;"" />
                   </div>","null","0","0","blank","",""
"","","","","","html-keyboard-response","21","144693","0.0-17.0","B7F0880DC2334F2A989B4FCAA3D9EB44","0199d694-5810-7e6c-89df-9ccd1b69e590","0199d675-8795-765b-adc2-c813de8cd3d1","","null","<div style=""display: flex; justify-content: center; align-items: center;"">
                     <img src=""images/causal/causal_series_8/causal_series_8_a.png"" style=""width: 300px; height: 300px;"" />
                   </div>","null","8","2","A","",""
"","","","","","html-button-response","22","146005","0.0-18.0","B7F0880DC2334F2A989B4FCAA3D9EB44","0199d694-5810-7e6c-89df-9ccd1b69e590","0199d675-8795-765b-adc2-c813de8cd3d1","","1311","
        <div style=""display: flex; justify-content: center; align-items: center;"">
          <img src=""images/red_deck_2.png"" style=""width: 300px; height: 300px; margin-right: 10px;"" />
          <img src=""images/blue_deck_1.png"" style=""width: 300px; height: 300px;"" />
        </div>","0","8","2","choice","0",""
"","","","","","html-keyboard-response","23","152007","0.0-19.0-0.0-0.0","B7F0880DC2334F2A989B4FCAA3D9EB44","0199d694-5810-7e6c-89df-9ccd1b69e590","0199d675-8795-765b-adc2-c813de8cd3d1","","null","<div style=""display: flex; justify-content: center; align-items: center;"">
                     <img src=""images/causal/causal_series_8/causal_series_8_b.png"" style=""width: 300px; height: 300px;"" />
                   </div>","null","8","2","B","",""
"","","","","","html-keyboard-response","24","158009","0.0-19.0-0.0-1.0","B7F0880DC2334F2A989B4FCAA3D9EB44","0199d694-5810-7e6c-89df-9ccd1b69e590","0199d675-8795-765b-adc2-c813de8cd3d1","","null","<div style=""display: flex; justify-content: center; align-items: center;"">
                     <img src=""images/causal/causal_series_8/causal_series_8_c.png"" style=""width: 300px; height: 300px;"" />
                   </div>","null","8","2","C","",""
"","","","","","html-keyboard-response","25","164012","0.0-19.0-0.0-2.0","B7F0880DC2334F2A989B4FCAA3D9EB44","0199d694-5810-7e6c-89df-9ccd1b69e590","0199d675-8795-765b-adc2-c813de8cd3d1","","null","<div style=""display: flex; justify-content: center; align-items: center;"">
                     <img src=""images/causal/causal_series_8/causal_series_8_d.png"" style=""width: 300px; height: 300px;"" />
                   </div>","null","8","2","D","",""
"","","","","","survey-likert","26","167620","0.0-20.0","B7F0880DC2334F2A989B4FCAA3D9EB44","0199d694-5810-7e6c-89df-9ccd1b69e590","0199d675-8795-765b-adc2-c813de8cd3d1","","3607","","{""Q0"":3}","8","2","surprise_rating","","[0]"
"","","","","","survey-likert","27","169772","0.0-21.0","B7F0880DC2334F2A989B4FCAA3D9EB44","0199d694-5810-7e6c-89df-9ccd1b69e590","0199d675-8795-765b-adc2-c813de8cd3d1","","2150","","{""Q0"":3}","8","2","enjoyment_rating","","[0]"
"","","","","","html-keyboard-response","28","175775","0.0-22.0","B7F0880DC2334F2A989B4FCAA3D9EB44","0199d694-5810-7e6c-89df-9ccd1b69e590","0199d675-8795-765b-adc2-c813de8cd3d1","","null","<div style=""display: flex; justify-content: center; align-items: center;"">
                     <img src=""images/other/blank.png"" style=""width: 300px; height: 300px;"" />
                   </div>","null","0","0","blank","",""
"","","","","","html-keyboard-response","29","181777","0.0-23.0","B7F0880DC2334F2A989B4FCAA3D9EB44","0199d694-5810-7e6c-89df-9ccd1b69e590","0199d675-8795-765b-adc2-c813de8cd3d1","","null","<div style=""display: flex; justify-content: center; align-items: center;"">
                     <img src=""images/causal/causal_series_1/causal_series_1_a.png"" style=""width: 300px; height: 300px;"" />
                   </div>","null","1","1","A","",""
"","","","","","html-button-response","30","183356","0.0-24.0","B7F0880DC2334F2A989B4FCAA3D9EB44","0199d694-5810-7e6c-89df-9ccd1b69e590","0199d675-8795-765b-adc2-c813de8cd3d1","","1578","
        <div style=""display: flex; justify-content: center; align-items: center;"">
          <img src=""images/red_deck_2.png"" style=""width: 300px; height: 300px; margin-right: 10px;"" />
          <img src=""images/blue_deck_1.png"" style=""width: 300px; height: 300px;"" />
        </div>","0","1","1","choice","0",""
"","","","","","html-keyboard-response","31","189358","0.0-25.0-0.0-0.0","B7F0880DC2334F2A989B4FCAA3D9EB44","0199d694-5810-7e6c-89df-9ccd1b69e590","0199d675-8795-765b-adc2-c813de8cd3d1","","null","<div style=""display: flex; justify-content: center; align-items: center;"">
                     <img src=""images/causal/causal_series_1/causal_series_1_b.png"" style=""width: 300px; height: 300px;"" />
                   </div>","null","1","1","B","",""
"","","","","","html-keyboard-response","32","195361","0.0-25.0-0.0-1.0","B7F0880DC2334F2A989B4FCAA3D9EB44","0199d694-5810-7e6c-89df-9ccd1b69e590","0199d675-8795-765b-adc2-c813de8cd3d1","","null","<div style=""display: flex; justify-content: center; align-items: center;"">
                     <img src=""images/causal/causal_series_1/causal_series_1_c.png"" style=""width: 300px; height: 300px;"" />
                   </div>","null","1","1","C","",""
"","","","","","html-keyboard-response","33","201363","0.0-25.0-0.0-2.0","B7F0880DC2334F2A989B4FCAA3D9EB44","0199d694-5810-7e6c-89df-9ccd1b69e590","0199d675-8795-765b-adc2-c813de8cd3d1","","null","<div style=""display: flex; justify-content: center; align-items: center;"">
                     <img src=""images/causal/causal_series_1/causal_series_1_d.png"" style=""width: 300px; height: 300px;"" />
                   </div>","null","1","1","D","",""
"","","","","","survey-likert","34","204288","0.0-26.0","B7F0880DC2334F2A989B4FCAA3D9EB44","0199d694-5810-7e6c-89df-9ccd1b69e590","0199d675-8795-765b-adc2-c813de8cd3d1","","2924","","{""Q0"":2}","1","1","surprise_rating","","[0]"
"","","","","","survey-likert","35","207435","0.0-27.0","B7F0880DC2334F2A989B4FCAA3D9EB44","0199d694-5810-7e6c-89df-9ccd1b69e590","0199d675-8795-765b-adc2-c813de8cd3d1","","3146","","{""Q0"":1}","1","1","enjoyment_rating","","[0]"
"","","","","","html-keyboard-response","36","213438","0.0-28.0","B7F0880DC2334F2A989B4FCAA3D9EB44","0199d694-5810-7e6c-89df-9ccd1b69e590","0199d675-8795-765b-adc2-c813de8cd3d1","","null","<div style=""display: flex; justify-content: center; align-items: center;"">
                     <img src=""images/other/blank.png"" style=""width: 300px; height: 300px;"" />
                   </div>","null","0","0","blank","",""
"","","","","","html-keyboard-response","37","219440","0.0-29.0","B7F0880DC2334F2A989B4FCAA3D9EB44","0199d694-5810-7e6c-89df-9ccd1b69e590","0199d675-8795-765b-adc2-c813de8cd3d1","","null","<div style=""display: flex; justify-content: center; align-items: center;"">
                     <img src=""images/causal/causal_series_2/causal_series_2_a.png"" style=""width: 300px; height: 300px;"" />
                   </div>","null","2","1","A","",""
"","","","","","html-button-response","38","222454","0.0-30.0","B7F0880DC2334F2A989B4FCAA3D9EB44","0199d694-5810-7e6c-89df-9ccd1b69e590","0199d675-8795-765b-adc2-c813de8cd3d1","","3012","
        <div style=""display: flex; justify-content: center; align-items: center;"">
          <img src=""images/red_deck_2.png"" style=""width: 300px; height: 300px; margin-right: 10px;"" />
          <img src=""images/blue_deck_1.png"" style=""width: 300px; height: 300px;"" />
        </div>","0","2","1","choice","0",""
"","","","","","html-keyboard-response","39","228456","0.0-31.0-0.0-0.0","B7F0880DC2334F2A989B4FCAA3D9EB44","0199d694-5810-7e6c-89df-9ccd1b69e590","0199d675-8795-765b-adc2-c813de8cd3d1","","null","<div style=""display: flex; justify-content: center; align-items: center;"">
                     <img src=""images/causal/causal_series_2/causal_series_2_b.png"" style=""width: 300px; height: 300px;"" />
                   </div>","null","2","1","B","",""
"","","","","","html-keyboard-response","40","234458","0.0-31.0-0.0-1.0","B7F0880DC2334F2A989B4FCAA3D9EB44","0199d694-5810-7e6c-89df-9ccd1b69e590","0199d675-8795-765b-adc2-c813de8cd3d1","","null","<div style=""display: flex; justify-content: center; align-items: center;"">
                     <img src=""images/causal/causal_series_2/causal_series_2_c.png"" style=""width: 300px; height: 300px;"" />
                   </div>","null","2","1","C","",""
"","","","","","html-keyboard-response","41","240459","0.0-31.0-0.0-2.0","B7F0880DC2334F2A989B4FCAA3D9EB44","0199d694-5810-7e6c-89df-9ccd1b69e590","0199d675-8795-765b-adc2-c813de8cd3d1","","null","<div style=""display: flex; justify-content: center; align-items: center;"">
                     <img src=""images/causal/causal_series_2/causal_series_2_d.png"" style=""width: 300px; height: 300px;"" />
                   </div>","null","2","1","D","",""
"","","","","","survey-likert","42","242952","0.0-32.0","B7F0880DC2334F2A989B4FCAA3D9EB44","0199d694-5810-7e6c-89df-9ccd1b69e590","0199d675-8795-765b-adc2-c813de8cd3d1","","2492","","{""Q0"":1}","2","1","surprise_rating","","[0]"
"","","","","","survey-likert","43","244786","0.0-33.0","B7F0880DC2334F2A989B4FCAA3D9EB44","0199d694-5810-7e6c-89df-9ccd1b69e590","0199d675-8795-765b-adc2-c813de8cd3d1","","1832","","{""Q0"":1}","2","1","enjoyment_rating","","[0]"
"","","","","","html-keyboard-response","44","250789","0.0-34.0","B7F0880DC2334F2A989B4FCAA3D9EB44","0199d694-5810-7e6c-89df-9ccd1b69e590","0199d675-8795-765b-adc2-c813de8cd3d1","","null","<div style=""display: flex; justify-content: center; align-items: center;"">
                     <img src=""images/other/blank.png"" style=""width: 300px; height: 300px;"" />
                   </div>","null","0","0","blank","",""
"","","","","","html-keyboard-response","45","256791","0.0-35.0","B7F0880DC2334F2A989B4FCAA3D9EB44","0199d694-5810-7e6c-89df-9ccd1b69e590","0199d675-8795-765b-adc2-c813de8cd3d1","","null","<div style=""display: flex; justify-content: center; align-items: center;"">
                     <img src=""images/causal/causal_series_1/causal_series_1_a.png"" style=""width: 300px; height: 300px;"" />
                   </div>","null","1","2","A","",""
"","","","","","html-button-response","46","258587","0.0-36.0","B7F0880DC2334F2A989B4FCAA3D9EB44","0199d694-5810-7e6c-89df-9ccd1b69e590","0199d675-8795-765b-adc2-c813de8cd3d1","","1795","
        <div style=""display: flex; justify-content: center; align-items: center;"">
          <img src=""images/red_deck_2.png"" style=""width: 300px; height: 300px; margin-right: 10px;"" />
          <img src=""images/blue_deck_1.png"" style=""width: 300px; height: 300px;"" />
        </div>","1","1","2","choice","1",""
"","","","","","html-keyboard-response","47","264589","0.0-37.0-1.0-0.0","B7F0880DC2334F2A989B4FCAA3D9EB44","0199d694-5810-7e6c-89df-9ccd1b69e590","0199d675-8795-765b-adc2-c813de8cd3d1","","null","<div style=""display: flex; justify-content: center; align-items: center;"">
                     <img src=""images/semantic/semantic_series_1/semantic_series_1_b.png"" style=""width: 300px; height: 300px;"" />
                   </div>","null","1","2","B","",""
"","","","","","html-keyboard-response","48","270591","0.0-37.0-1.0-1.0","B7F0880DC2334F2A989B4FCAA3D9EB44","0199d694-5810-7e6c-89df-9ccd1b69e590","0199d675-8795-765b-adc2-c813de8cd3d1","","null","<div style=""display: flex; justify-content: center; align-items: center;"">
                     <img src=""images/semantic/semantic_series_1/semantic_series_1_c.png"" style=""width: 300px; height: 300px;"" />
                   </div>","null","1","2","C","",""
"","","","","","html-keyboard-response","49","276594","0.0-37.0-1.0-2.0","B7F0880DC2334F2A989B4FCAA3D9EB44","0199d694-5810-7e6c-89df-9ccd1b69e590","0199d675-8795-765b-adc2-c813de8cd3d1","","null","<div style=""display: flex; justify-content: center; align-items: center;"">
                     <img src=""images/semantic/semantic_series_1/semantic_series_1_d.png"" style=""width: 300px; height: 300px;"" />
                   </div>","null","1","2","D","",""
"","","","","","survey-likert","50","279352","0.0-38.0","B7F0880DC2334F2A989B4FCAA3D9EB44","0199d694-5810-7e6c-89df-9ccd1b69e590","0199d675-8795-765b-adc2-c813de8cd3d1","","2757","","{""Q0"":3}","1","2","surprise_rating","","[0]"
"","","","","","survey-likert","51","281252","0.0-39.0","B7F0880DC2334F2A989B4FCAA3D9EB44","0199d694-5810-7e6c-89df-9ccd1b69e590","0199d675-8795-765b-adc2-c813de8cd3d1","","1898","","{""Q0"":0}","1","2","enjoyment_rating","","[0]"
"","","","","","html-keyboard-response","52","287254","0.0-40.0","B7F0880DC2334F2A989B4FCAA3D9EB44","0199d694-5810-7e6c-89df-9ccd1b69e590","0199d675-8795-765b-adc2-c813de8cd3d1","","null","<div style=""display: flex; justify-content: center; align-items: center;"">
                     <img src=""images/other/blank.png"" style=""width: 300px; height: 300px;"" />
                   </div>","null","0","0","blank","",""
"","","","","","html-keyboard-response","53","293257","0.0-41.0","B7F0880DC2334F2A989B4FCAA3D9EB44","0199d694-5810-7e6c-89df-9ccd1b69e590","0199d675-8795-765b-adc2-c813de8cd3d1","","null","<div style=""display: flex; justify-content: center; align-items: center;"">
                     <img src=""images/causal/causal_series_6/causal_series_6_a.png"" style=""width: 300px; height: 300px;"" />
                   </div>","null","6","2","A","",""
"","","","","","html-button-response","54","294936","0.0-42.0","B7F0880DC2334F2A989B4FCAA3D9EB44","0199d694-5810-7e6c-89df-9ccd1b69e590","0199d675-8795-765b-adc2-c813de8cd3d1","","1678","
        <div style=""display: flex; justify-content: center; align-items: center;"">
          <img src=""images/red_deck_2.png"" style=""width: 300px; height: 300px; margin-right: 10px;"" />
          <img src=""images/blue_deck_1.png"" style=""width: 300px; height: 300px;"" />
        </div>","0","6","2","choice","0",""
"","","","","","html-keyboard-response","55","300939","0.0-43.0-0.0-0.0","B7F0880DC2334F2A989B4FCAA3D9EB44","0199d694-5810-7e6c-89df-9ccd1b69e590","0199d675-8795-765b-adc2-c813de8cd3d1","","null","<div style=""display: flex; justify-content: center; align-items: center;"">
                     <img src=""images/causal/causal_series_6/causal_series_6_b.png"" style=""width: 300px; height: 300px;"" />
                   </div>","null","6","2","B","",""
"","","","","","html-keyboard-response","56","306941","0.0-43.0-0.0-1.0","B7F0880DC2334F2A989B4FCAA3D9EB44","0199d694-5810-7e6c-89df-9ccd1b69e590","0199d675-8795-765b-adc2-c813de8cd3d1","","null","<div style=""display: flex; justify-content: center; align-items: center;"">
                     <img src=""images/causal/causal_series_6/causal_series_6_c.png"" style=""width: 300px; height: 300px;"" />
                   </div>","null","6","2","C","",""
"","","","","","html-keyboard-response","57","312943","0.0-43.0-0.0-2.0","B7F0880DC2334F2A989B4FCAA3D9EB44","0199d694-5810-7e6c-89df-9ccd1b69e590","0199d675-8795-765b-adc2-c813de8cd3d1","","null","<div style=""display: flex; justify-content: center; align-items: center;"">
                     <img src=""images/causal/causal_series_6/causal_series_6_d.png"" style=""width: 300px; height: 300px;"" />
                   </div>","null","6","2","D","",""
"","","","","","survey-likert","58","315801","0.0-44.0","B7F0880DC2334F2A989B4FCAA3D9EB44","0199d694-5810-7e6c-89df-9ccd1b69e590","0199d675-8795-765b-adc2-c813de8cd3d1","","2857","","{""Q0"":2}","6","2","surprise_rating","","[0]"
"","","","","","survey-likert","59","317751","0.0-45.0","B7F0880DC2334F2A989B4FCAA3D9EB44","0199d694-5810-7e6c-89df-9ccd1b69e590","0199d675-8795-765b-adc2-c813de8cd3d1","","1948","","{""Q0"":0}","6","2","enjoyment_rating","","[0]"
"","","","","","html-keyboard-response","60","323754","0.0-46.0","B7F0880DC2334F2A989B4FCAA3D9EB44","0199d694-5810-7e6c-89df-9ccd1b69e590","0199d675-8795-765b-adc2-c813de8cd3d1","","null","<div style=""display: flex; justify-content: center; align-items: center;"">
                     <img src=""images/other/blank.png"" style=""width: 300px; height: 300px;"" />
                   </div>","null","0","0","blank","",""
"","","","","","html-keyboard-response","61","329755","0.0-47.0","B7F0880DC2334F2A989B4FCAA3D9EB44","0199d694-5810-7e6c-89df-9ccd1b69e590","0199d675-8795-765b-adc2-c813de8cd3d1","","null","<div style=""display: flex; justify-content: center; align-items: center;"">
                     <img src=""images/causal/causal_series_9/causal_series_9_a.png"" style=""width: 300px; height: 300px;"" />
                   </div>","null","9","1","A","",""
"","","","","","html-button-response","62","331769","0.0-48.0","B7F0880DC2334F2A989B4FCAA3D9EB44","0199d694-5810-7e6c-89df-9ccd1b69e590","0199d675-8795-765b-adc2-c813de8cd3d1","","2012","
        <div style=""display: flex; justify-content: center; align-items: center;"">
          <img src=""images/red_deck_2.png"" style=""width: 300px; height: 300px; margin-right: 10px;"" />
          <img src=""images/blue_deck_1.png"" style=""width: 300px; height: 300px;"" />
        </div>","0","9","1","choice","0",""
"","","","","","html-keyboard-response","63","337771","0.0-49.0-0.0-0.0","B7F0880DC2334F2A989B4FCAA3D9EB44","0199d694-5810-7e6c-89df-9ccd1b69e590","0199d675-8795-765b-adc2-c813de8cd3d1","","null","<div style=""display: flex; justify-content: center; align-items: center;"">
                     <img src=""images/causal/causal_series_9/causal_series_9_b.png"" style=""width: 300px; height: 300px;"" />
                   </div>","null","9","1","B","",""
"","","","","","html-keyboard-response","64","343774","0.0-49.0-0.0-1.0","B7F0880DC2334F2A989B4FCAA3D9EB44","0199d694-5810-7e6c-89df-9ccd1b69e590","0199d675-8795-765b-adc2-c813de8cd3d1","","null","<div style=""display: flex; justify-content: center; align-items: center;"">
                     <img src=""images/causal/causal_series_9/causal_series_9_c.png"" style=""width: 300px; height: 300px;"" />
                   </div>","null","9","1","C","",""
"","","","","","html-keyboard-response","65","349776","0.0-49.0-0.0-2.0","B7F0880DC2334F2A989B4FCAA3D9EB44","0199d694-5810-7e6c-89df-9ccd1b69e590","0199d675-8795-765b-adc2-c813de8cd3d1","","null","<div style=""display: flex; justify-content: center; align-items: center;"">
                     <img src=""images/causal/causal_series_9/causal_series_9_d.png"" style=""width: 300px; height: 300px;"" />
                   </div>","null","9","1","D","",""
"","","","","","survey-likert","66","352201","0.0-50.0","B7F0880DC2334F2A989B4FCAA3D9EB44","0199d694-5810-7e6c-89df-9ccd1b69e590","0199d675-8795-765b-adc2-c813de8cd3d1","","2424","","{""Q0"":3}","9","1","surprise_rating","","[0]"
"","","","","","survey-likert","67","354101","0.0-51.0","B7F0880DC2334F2A989B4FCAA3D9EB44","0199d694-5810-7e6c-89df-9ccd1b69e590","0199d675-8795-765b-adc2-c813de8cd3d1","","1899","","{""Q0"":1}","9","1","enjoyment_rating","","[0]"
"","","","","","html-keyboard-response","68","360104","0.0-52.0","B7F0880DC2334F2A989B4FCAA3D9EB44","0199d694-5810-7e6c-89df-9ccd1b69e590","0199d675-8795-765b-adc2-c813de8cd3d1","","null","<div style=""display: flex; justify-content: center; align-items: center;"">
                     <img src=""images/other/blank.png"" style=""width: 300px; height: 300px;"" />
                   </div>","null","0","0","blank","",""
"","","","","","html-keyboard-response","69","366106","0.0-53.0","B7F0880DC2334F2A989B4FCAA3D9EB44","0199d694-5810-7e6c-89df-9ccd1b69e590","0199d675-8795-765b-adc2-c813de8cd3d1","","null","<div style=""display: flex; justify-content: center; align-items: center;"">
                     <img src=""images/causal/causal_series_3/causal_series_3_a.png"" style=""width: 300px; height: 300px;"" />
                   </div>","null","3","2","A","",""
"","","","","","html-button-response","70","369901","0.0-54.0","B7F0880DC2334F2A989B4FCAA3D9EB44","0199d694-5810-7e6c-89df-9ccd1b69e590","0199d675-8795-765b-adc2-c813de8cd3d1","","3794","
        <div style=""display: flex; justify-content: center; align-items: center;"">
          <img src=""images/red_deck_2.png"" style=""width: 300px; height: 300px; margin-right: 10px;"" />
          <img src=""images/blue_deck_1.png"" style=""width: 300px; height: 300px;"" />
        </div>","1","3","2","choice","1",""
"","","","","","html-keyboard-response","71","375903","0.0-55.0-1.0-0.0","B7F0880DC2334F2A989B4FCAA3D9EB44","0199d694-5810-7e6c-89df-9ccd1b69e590","0199d675-8795-765b-adc2-c813de8cd3d1","","null","<div style=""display: flex; justify-content: center; align-items: center;"">
                     <img src=""images/semantic/semantic_series_3/semantic_series_3_b.png"" style=""width: 300px; height: 300px;"" />
                   </div>","null","3","2","B","",""
"","","","","","html-keyboard-response","72","381906","0.0-55.0-1.0-1.0","B7F0880DC2334F2A989B4FCAA3D9EB44","0199d694-5810-7e6c-89df-9ccd1b69e590","0199d675-8795-765b-adc2-c813de8cd3d1","","null","<div style=""display: flex; justify-content: center; align-items: center;"">
                     <img src=""images/semantic/semantic_series_3/semantic_series_3_c.png"" style=""width: 300px; height: 300px;"" />
                   </div>","null","3","2","C","",""
"","","","","","html-keyboard-response","73","387908","0.0-55.0-1.0-2.0","B7F0880DC2334F2A989B4FCAA3D9EB44","0199d694-5810-7e6c-89df-9ccd1b69e590","0199d675-8795-765b-adc2-c813de8cd3d1","","null","<div style=""display: flex; justify-content: center; align-items: center;"">
                     <img src=""images/semantic/semantic_series_3/semantic_series_3_d.png"" style=""width: 300px; height: 300px;"" />
                   </div>","null","3","2","D","",""
"","","","","","survey-likert","74","390667","0.0-56.0","B7F0880DC2334F2A989B4FCAA3D9EB44","0199d694-5810-7e6c-89df-9ccd1b69e590","0199d675-8795-765b-adc2-c813de8cd3d1","","2759","","{""Q0"":4}","3","2","surprise_rating","","[0]"
"","","","","","survey-likert","75","392600","0.0-57.0","B7F0880DC2334F2A989B4FCAA3D9EB44","0199d694-5810-7e6c-89df-9ccd1b69e590","0199d675-8795-765b-adc2-c813de8cd3d1","","1931","","{""Q0"":0}","3","2","enjoyment_rating","","[0]"
"","","","","","html-keyboard-response","76","398603","0.0-58.0","B7F0880DC2334F2A989B4FCAA3D9EB44","0199d694-5810-7e6c-89df-9ccd1b69e590","0199d675-8795-765b-adc2-c813de8cd3d1","","null","<div style=""display: flex; justify-content: center; align-items: center;"">
                     <img src=""images/other/blank.png"" style=""width: 300px; height: 300px;"" />
                   </div>","null","0","0","blank","",""
"","","","","","html-keyboard-response","77","404605","0.0-59.0","B7F0880DC2334F2A989B4FCAA3D9EB44","0199d694-5810-7e6c-89df-9ccd1b69e590","0199d675-8795-765b-adc2-c813de8cd3d1","","null","<div style=""display: flex; justify-content: center; align-items: center;"">
                     <img src=""images/causal/causal_series_7/causal_series_7_a.png"" style=""width: 300px; height: 300px;"" />
                   </div>","null","7","1","A","",""
"","","","","","html-button-response","78","405651","0.0-60.0","B7F0880DC2334F2A989B4FCAA3D9EB44","0199d694-5810-7e6c-89df-9ccd1b69e590","0199d675-8795-765b-adc2-c813de8cd3d1","","1045","
        <div style=""display: flex; justify-content: center; align-items: center;"">
          <img src=""images/red_deck_2.png"" style=""width: 300px; height: 300px; margin-right: 10px;"" />
          <img src=""images/blue_deck_1.png"" style=""width: 300px; height: 300px;"" />
        </div>","0","7","1","choice","0",""
"","","","","","html-keyboard-response","79","411654","0.0-61.0-0.0-0.0","B7F0880DC2334F2A989B4FCAA3D9EB44","0199d694-5810-7e6c-89df-9ccd1b69e590","0199d675-8795-765b-adc2-c813de8cd3d1","","null","<div style=""display: flex; justify-content: center; align-items: center;"">
                     <img src=""images/causal/causal_series_7/causal_series_7_b.png"" style=""width: 300px; height: 300px;"" />
                   </div>","null","7","1","B","",""
"","","","","","html-keyboard-response","80","417656","0.0-61.0-0.0-1.0","B7F0880DC2334F2A989B4FCAA3D9EB44","0199d694-5810-7e6c-89df-9ccd1b69e590","0199d675-8795-765b-adc2-c813de8cd3d1","","null","<div style=""display: flex; justify-content: center; align-items: center;"">
                     <img src=""images/causal/causal_series_7/causal_series_7_c.png"" style=""width: 300px; height: 300px;"" />
                   </div>","null","7","1","C","",""
"","","","","","html-keyboard-response","81","423656","0.0-61.0-0.0-2.0","B7F0880DC2334F2A989B4FCAA3D9EB44","0199d694-5810-7e6c-89df-9ccd1b69e590","0199d675-8795-765b-adc2-c813de8cd3d1","","null","<div style=""display: flex; justify-content: center; align-items: center;"">
                     <img src=""images/causal/causal_series_7/causal_series_7_d.png"" style=""width: 300px; height: 300px;"" />
                   </div>","null","7","1","D","",""
"","","","","","survey-likert","82","425651","0.0-62.0","B7F0880DC2334F2A989B4FCAA3D9EB44","0199d694-5810-7e6c-89df-9ccd1b69e590","0199d675-8795-765b-adc2-c813de8cd3d1","","1993","","{""Q0"":1}","7","1","surprise_rating","","[0]"
"","","","","","survey-likert","83","429883","0.0-63.0","B7F0880DC2334F2A989B4FCAA3D9EB44","0199d694-5810-7e6c-89df-9ccd1b69e590","0199d675-8795-765b-adc2-c813de8cd3d1","","4231","","{""Q0"":1}","7","1","enjoyment_rating","","[0]"
"","","","","","html-keyboard-response","84","435886","0.0-64.0","B7F0880DC2334F2A989B4FCAA3D9EB44","0199d694-5810-7e6c-89df-9ccd1b69e590","0199d675-8795-765b-adc2-c813de8cd3d1","","null","<div style=""display: flex; justify-content: center; align-items: center;"">
                     <img src=""images/other/blank.png"" style=""width: 300px; height: 300px;"" />
                   </div>","null","0","0","blank","",""
"","","","","","html-keyboard-response","85","441888","0.0-65.0","B7F0880DC2334F2A989B4FCAA3D9EB44","0199d694-5810-7e6c-89df-9ccd1b69e590","0199d675-8795-765b-adc2-c813de8cd3d1","","null","<div style=""display: flex; justify-content: center; align-items: center;"">
                     <img src=""images/causal/causal_series_8/causal_series_8_a.png"" style=""width: 300px; height: 300px;"" />
                   </div>","null","8","1","A","",""
"","","","","","html-button-response","86","451084","0.0-66.0","B7F0880DC2334F2A989B4FCAA3D9EB44","0199d694-5810-7e6c-89df-9ccd1b69e590","0199d675-8795-765b-adc2-c813de8cd3d1","","9194","
        <div style=""display: flex; justify-content: center; align-items: center;"">
          <img src=""images/red_deck_2.png"" style=""width: 300px; height: 300px; margin-right: 10px;"" />
          <img src=""images/blue_deck_1.png"" style=""width: 300px; height: 300px;"" />
        </div>","1","8","1","choice","1",""
"","","","","","html-keyboard-response","87","457086","0.0-67.0-1.0-0.0","B7F0880DC2334F2A989B4FCAA3D9EB44","0199d694-5810-7e6c-89df-9ccd1b69e590","0199d675-8795-765b-adc2-c813de8cd3d1","","null","<div style=""display: flex; justify-content: center; align-items: center;"">
                     <img src=""images/semantic/semantic_series_8/semantic_series_8_b.png"" style=""width: 300px; height: 300px;"" />
                   </div>","null","8","1","B","",""
"","","","","","html-keyboard-response","88","463089","0.0-67.0-1.0-1.0","B7F0880DC2334F2A989B4FCAA3D9EB44","0199d694-5810-7e6c-89df-9ccd1b69e590","0199d675-8795-765b-adc2-c813de8cd3d1","","null","<div style=""display: flex; justify-content: center; align-items: center;"">
                     <img src=""images/semantic/semantic_series_8/semantic_series_8_c.png"" style=""width: 300px; height: 300px;"" />
                   </div>","null","8","1","C","",""
"","","","","","html-keyboard-response","89","469091","0.0-67.0-1.0-2.0","B7F0880DC2334F2A989B4FCAA3D9EB44","0199d694-5810-7e6c-89df-9ccd1b69e590","0199d675-8795-765b-adc2-c813de8cd3d1","","null","<div style=""display: flex; justify-content: center; align-items: center;"">
                     <img src=""images/semantic/semantic_series_8/semantic_series_8_d.png"" style=""width: 300px; height: 300px;"" />
                   </div>","null","8","1","D","",""
"","","","","","survey-likert","90","471699","0.0-68.0","B7F0880DC2334F2A989B4FCAA3D9EB44","0199d694-5810-7e6c-89df-9ccd1b69e590","0199d675-8795-765b-adc2-c813de8cd3d1","","2608","","{""Q0"":3}","8","1","surprise_rating","","[0]"
"","","","","","survey-likert","91","473516","0.0-69.0","B7F0880DC2334F2A989B4FCAA3D9EB44","0199d694-5810-7e6c-89df-9ccd1b69e590","0199d675-8795-765b-adc2-c813de8cd3d1","","1816","","{""Q0"":0}","8","1","enjoyment_rating","","[0]"
"","","","","","html-keyboard-response","92","479519","0.0-70.0","B7F0880DC2334F2A989B4FCAA3D9EB44","0199d694-5810-7e6c-89df-9ccd1b69e590","0199d675-8795-765b-adc2-c813de8cd3d1","","null","<div style=""display: flex; justify-content: center; align-items: center;"">
                     <img src=""images/other/blank.png"" style=""width: 300px; height: 300px;"" />
                   </div>","null","0","0","blank","",""
"","","","","","html-keyboard-response","93","485521","0.0-71.0","B7F0880DC2334F2A989B4FCAA3D9EB44","0199d694-5810-7e6c-89df-9ccd1b69e590","0199d675-8795-765b-adc2-c813de8cd3d1","","null","<div style=""display: flex; justify-content: center; align-items: center;"">
                     <img src=""images/causal/causal_series_10/causal_series_10_a.png"" style=""width: 300px; height: 300px;"" />
                   </div>","null","10","2","A","",""
"","","","","","html-button-response","94","490366","0.0-72.0","B7F0880DC2334F2A989B4FCAA3D9EB44","0199d694-5810-7e6c-89df-9ccd1b69e590","0199d675-8795-765b-adc2-c813de8cd3d1","","4844","
        <div style=""display: flex; justify-content: center; align-items: center;"">
          <img src=""images/red_deck_2.png"" style=""width: 300px; height: 300px; margin-right: 10px;"" />
          <img src=""images/blue_deck_1.png"" style=""width: 300px; height: 300px;"" />
        </div>","0","10","2","choice","0",""
"","","","","","html-keyboard-response","95","496368","0.0-73.0-0.0-0.0","B7F0880DC2334F2A989B4FCAA3D9EB44","0199d694-5810-7e6c-89df-9ccd1b69e590","0199d675-8795-765b-adc2-c813de8cd3d1","","null","<div style=""display: flex; justify-content: center; align-items: center;"">
                     <img src=""images/causal/causal_series_10/causal_series_10_b.png"" style=""width: 300px; height: 300px;"" />
                   </div>","null","10","2","B","",""
"","","","","","html-keyboard-response","96","502370","0.0-73.0-0.0-1.0","B7F0880DC2334F2A989B4FCAA3D9EB44","0199d694-5810-7e6c-89df-9ccd1b69e590","0199d675-8795-765b-adc2-c813de8cd3d1","","null","<div style=""display: flex; justify-content: center; align-items: center;"">
                     <img src=""images/causal/causal_series_10/causal_series_10_c.png"" style=""width: 300px; height: 300px;"" />
                   </div>","null","10","2","C","",""
"","","","","","html-keyboard-response","97","508373","0.0-73.0-0.0-2.0","B7F0880DC2334F2A989B4FCAA3D9EB44","0199d694-5810-7e6c-89df-9ccd1b69e590","0199d675-8795-765b-adc2-c813de8cd3d1","","null","<div style=""display: flex; justify-content: center; align-items: center;"">
                     <img src=""images/causal/causal_series_10/causal_series_10_d.png"" style=""width: 300px; height: 300px;"" />
                   </div>","null","10","2","D","",""
"","","","","","survey-likert","98","515301","0.0-74.0","B7F0880DC2334F2A989B4FCAA3D9EB44","0199d694-5810-7e6c-89df-9ccd1b69e590","0199d675-8795-765b-adc2-c813de8cd3d1","","6927","","{""Q0"":3}","10","2","surprise_rating","","[0]"
"","","","","","survey-likert","99","517651","0.0-75.0","B7F0880DC2334F2A989B4FCAA3D9EB44","0199d694-5810-7e6c-89df-9ccd1b69e590","0199d675-8795-765b-adc2-c813de8cd3d1","","2349","","{""Q0"":2}","10","2","enjoyment_rating","","[0]"
"","","","","","html-keyboard-response","100","523653","0.0-76.0","B7F0880DC2334F2A989B4FCAA3D9EB44","0199d694-5810-7e6c-89df-9ccd1b69e590","0199d675-8795-765b-adc2-c813de8cd3d1","","null","<div style=""display: flex; justify-content: center; align-items: center;"">
                     <img src=""images/other/blank.png"" style=""width: 300px; height: 300px;"" />
                   </div>","null","0","0","blank","",""
"","","","","","html-keyboard-response","101","529656","0.0-77.0","B7F0880DC2334F2A989B4FCAA3D9EB44","0199d694-5810-7e6c-89df-9ccd1b69e590","0199d675-8795-765b-adc2-c813de8cd3d1","","null","<div style=""display: flex; justify-content: center; align-items: center;"">
                     <img src=""images/causal/causal_series_5/causal_series_5_a.png"" style=""width: 300px; height: 300px;"" />
                   </div>","null","5","2","A","",""
"","","","","","html-button-response","102","531133","0.0-78.0","B7F0880DC2334F2A989B4FCAA3D9EB44","0199d694-5810-7e6c-89df-9ccd1b69e590","0199d675-8795-765b-adc2-c813de8cd3d1","","1476","
        <div style=""display: flex; justify-content: center; align-items: center;"">
          <img src=""images/red_deck_2.png"" style=""width: 300px; height: 300px; margin-right: 10px;"" />
          <img src=""images/blue_deck_1.png"" style=""width: 300px; height: 300px;"" />
        </div>","1","5","2","choice","1",""
"","","","","","html-keyboard-response","103","537136","0.0-79.0-1.0-0.0","B7F0880DC2334F2A989B4FCAA3D9EB44","0199d694-5810-7e6c-89df-9ccd1b69e590","0199d675-8795-765b-adc2-c813de8cd3d1","","null","<div style=""display: flex; justify-content: center; align-items: center;"">
                     <img src=""images/semantic/semantic_series_5/semantic_series_5_b.png"" style=""width: 300px; height: 300px;"" />
                   </div>","null","5","2","B","",""
"","","","","","html-keyboard-response","104","543138","0.0-79.0-1.0-1.0","B7F0880DC2334F2A989B4FCAA3D9EB44","0199d694-5810-7e6c-89df-9ccd1b69e590","0199d675-8795-765b-adc2-c813de8cd3d1","","null","<div style=""display: flex; justify-content: center; align-items: center;"">
                     <img src=""images/semantic/semantic_series_5/semantic_series_5_c.png"" style=""width: 300px; height: 300px;"" />
                   </div>","null","5","2","C","",""
"","","","","","html-keyboard-response","105","549140","0.0-79.0-1.0-2.0","B7F0880DC2334F2A989B4FCAA3D9EB44","0199d694-5810-7e6c-89df-9ccd1b69e590","0199d675-8795-765b-adc2-c813de8cd3d1","","null","<div style=""display: flex; justify-content: center; align-items: center;"">
                     <img src=""images/semantic/semantic_series_5/semantic_series_5_d.png"" style=""width: 300px; height: 300px;"" />
                   </div>","null","5","2","D","",""
"","","","","","survey-likert","106","555583","0.0-80.0","B7F0880DC2334F2A989B4FCAA3D9EB44","0199d694-5810-7e6c-89df-9ccd1b69e590","0199d675-8795-765b-adc2-c813de8cd3d1","","6442","","{""Q0"":4}","5","2","surprise_rating","","[0]"
"","","","","","survey-likert","107","557814","0.0-81.0","B7F0880DC2334F2A989B4FCAA3D9EB44","0199d694-5810-7e6c-89df-9ccd1b69e590","0199d675-8795-765b-adc2-c813de8cd3d1","","2231","","{""Q0"":0}","5","2","enjoyment_rating","","[0]"
"","","","","","html-keyboard-response","108","563817","0.0-82.0","B7F0880DC2334F2A989B4FCAA3D9EB44","0199d694-5810-7e6c-89df-9ccd1b69e590","0199d675-8795-765b-adc2-c813de8cd3d1","","null","<div style=""display: flex; justify-content: center; align-items: center;"">
                     <img src=""images/other/blank.png"" style=""width: 300px; height: 300px;"" />
                   </div>","null","0","0","blank","",""
"","","","","","html-keyboard-response","109","569818","0.0-83.0","B7F0880DC2334F2A989B4FCAA3D9EB44","0199d694-5810-7e6c-89df-9ccd1b69e590","0199d675-8795-765b-adc2-c813de8cd3d1","","null","<div style=""display: flex; justify-content: center; align-items: center;"">
                     <img src=""images/causal/causal_series_6/causal_series_6_a.png"" style=""width: 300px; height: 300px;"" />
                   </div>","null","6","1","A","",""
"","","","","","html-button-response","110","570717","0.0-84.0","B7F0880DC2334F2A989B4FCAA3D9EB44","0199d694-5810-7e6c-89df-9ccd1b69e590","0199d675-8795-765b-adc2-c813de8cd3d1","","897","
        <div style=""display: flex; justify-content: center; align-items: center;"">
          <img src=""images/red_deck_2.png"" style=""width: 300px; height: 300px; margin-right: 10px;"" />
          <img src=""images/blue_deck_1.png"" style=""width: 300px; height: 300px;"" />
        </div>","1","6","1","choice","1",""
"","","","","","html-keyboard-response","111","576719","0.0-85.0-1.0-0.0","B7F0880DC2334F2A989B4FCAA3D9EB44","0199d694-5810-7e6c-89df-9ccd1b69e590","0199d675-8795-765b-adc2-c813de8cd3d1","","null","<div style=""display: flex; justify-content: center; align-items: center;"">
                     <img src=""images/semantic/semantic_series_6/semantic_series_6_b.png"" style=""width: 300px; height: 300px;"" />
                   </div>","null","6","1","B","",""
"","","","","","html-keyboard-response","112","582721","0.0-85.0-1.0-1.0","B7F0880DC2334F2A989B4FCAA3D9EB44","0199d694-5810-7e6c-89df-9ccd1b69e590","0199d675-8795-765b-adc2-c813de8cd3d1","","null","<div style=""display: flex; justify-content: center; align-items: center;"">
                     <img src=""images/semantic/semantic_series_6/semantic_series_6_c.png"" style=""width: 300px; height: 300px;"" />
                   </div>","null","6","1","C","",""
"","","","","","html-keyboard-response","113","588723","0.0-85.0-1.0-2.0","B7F0880DC2334F2A989B4FCAA3D9EB44","0199d694-5810-7e6c-89df-9ccd1b69e590","0199d675-8795-765b-adc2-c813de8cd3d1","","null","<div style=""display: flex; justify-content: center; align-items: center;"">
                     <img src=""images/semantic/semantic_series_6/semantic_series_6_d.png"" style=""width: 300px; height: 300px;"" />
                   </div>","null","6","1","D","",""
"","","","","","survey-likert","114","590414","0.0-86.0","B7F0880DC2334F2A989B4FCAA3D9EB44","0199d694-5810-7e6c-89df-9ccd1b69e590","0199d675-8795-765b-adc2-c813de8cd3d1","","1690","","{""Q0"":3}","6","1","surprise_rating","","[0]"
"","","","","","survey-likert","115","592299","0.0-87.0","B7F0880DC2334F2A989B4FCAA3D9EB44","0199d694-5810-7e6c-89df-9ccd1b69e590","0199d675-8795-765b-adc2-c813de8cd3d1","","1883","","{""Q0"":0}","6","1","enjoyment_rating","","[0]"
"","","","","","html-keyboard-response","116","598302","0.0-88.0","B7F0880DC2334F2A989B4FCAA3D9EB44","0199d694-5810-7e6c-89df-9ccd1b69e590","0199d675-8795-765b-adc2-c813de8cd3d1","","null","<div style=""display: flex; justify-content: center; align-items: center;"">
                     <img src=""images/other/blank.png"" style=""width: 300px; height: 300px;"" />
                   </div>","null","0","0","blank","",""
"","","","","","html-keyboard-response","117","604304","0.0-89.0","B7F0880DC2334F2A989B4FCAA3D9EB44","0199d694-5810-7e6c-89df-9ccd1b69e590","0199d675-8795-765b-adc2-c813de8cd3d1","","null","<div style=""display: flex; justify-content: center; align-items: center;"">
                     <img src=""images/causal/causal_series_3/causal_series_3_a.png"" style=""width: 300px; height: 300px;"" />
                   </div>","null","3","1","A","",""
"","","","","","html-button-response","118","605615","0.0-90.0","B7F0880DC2334F2A989B4FCAA3D9EB44","0199d694-5810-7e6c-89df-9ccd1b69e590","0199d675-8795-765b-adc2-c813de8cd3d1","","1309","
        <div style=""display: flex; justify-content: center; align-items: center;"">
          <img src=""images/red_deck_2.png"" style=""width: 300px; height: 300px; margin-right: 10px;"" />
          <img src=""images/blue_deck_1.png"" style=""width: 300px; height: 300px;"" />
        </div>","0","3","1","choice","0",""
"","","","","","html-keyboard-response","119","611617","0.0-91.0-0.0-0.0","B7F0880DC2334F2A989B4FCAA3D9EB44","0199d694-5810-7e6c-89df-9ccd1b69e590","0199d675-8795-765b-adc2-c813de8cd3d1","","null","<div style=""display: flex; justify-content: center; align-items: center;"">
                     <img src=""images/causal/causal_series_3/causal_series_3_b.png"" style=""width: 300px; height: 300px;"" />
                   </div>","null","3","1","B","",""
"","","","","","html-keyboard-response","120","617620","0.0-91.0-0.0-1.0","B7F0880DC2334F2A989B4FCAA3D9EB44","0199d694-5810-7e6c-89df-9ccd1b69e590","0199d675-8795-765b-adc2-c813de8cd3d1","","null","<div style=""display: flex; justify-content: center; align-items: center;"">
                     <img src=""images/causal/causal_series_3/causal_series_3_c.png"" style=""width: 300px; height: 300px;"" />
                   </div>","null","3","1","C","",""
"","","","","","html-keyboard-response","121","623622","0.0-91.0-0.0-2.0","B7F0880DC2334F2A989B4FCAA3D9EB44","0199d694-5810-7e6c-89df-9ccd1b69e590","0199d675-8795-765b-adc2-c813de8cd3d1","","null","<div style=""display: flex; justify-content: center; align-items: center;"">
                     <img src=""images/causal/causal_series_3/causal_series_3_d.png"" style=""width: 300px; height: 300px;"" />
                   </div>","null","3","1","D","",""
"","","","","","survey-likert","122","626198","0.0-92.0","B7F0880DC2334F2A989B4FCAA3D9EB44","0199d694-5810-7e6c-89df-9ccd1b69e590","0199d675-8795-765b-adc2-c813de8cd3d1","","2575","","{""Q0"":2}","3","1","surprise_rating","","[0]"
"","","","","","survey-likert","123","628799","0.0-93.0","B7F0880DC2334F2A989B4FCAA3D9EB44","0199d694-5810-7e6c-89df-9ccd1b69e590","0199d675-8795-765b-adc2-c813de8cd3d1","","2599","","{""Q0"":0}","3","1","enjoyment_rating","","[0]"
"","","","","","html-keyboard-response","124","634801","0.0-94.0","B7F0880DC2334F2A989B4FCAA3D9EB44","0199d694-5810-7e6c-89df-9ccd1b69e590","0199d675-8795-765b-adc2-c813de8cd3d1","","null","<div style=""display: flex; justify-content: center; align-items: center;"">
                     <img src=""images/other/blank.png"" style=""width: 300px; height: 300px;"" />
                   </div>","null","0","0","blank","",""
"","","","","","html-keyboard-response","125","640804","0.0-95.0","B7F0880DC2334F2A989B4FCAA3D9EB44","0199d694-5810-7e6c-89df-9ccd1b69e590","0199d675-8795-765b-adc2-c813de8cd3d1","","null","<div style=""display: flex; justify-content: center; align-items: center;"">
                     <img src=""images/causal/causal_series_4/causal_series_4_a.png"" style=""width: 300px; height: 300px;"" />
                   </div>","null","4","1","A","",""
"","","","","","html-button-response","126","642033","0.0-96.0","B7F0880DC2334F2A989B4FCAA3D9EB44","0199d694-5810-7e6c-89df-9ccd1b69e590","0199d675-8795-765b-adc2-c813de8cd3d1","","1228","
        <div style=""display: flex; justify-content: center; align-items: center;"">
          <img src=""images/red_deck_2.png"" style=""width: 300px; height: 300px; margin-right: 10px;"" />
          <img src=""images/blue_deck_1.png"" style=""width: 300px; height: 300px;"" />
        </div>","0","4","1","choice","0",""
"","","","","","html-keyboard-response","127","648036","0.0-97.0-0.0-0.0","B7F0880DC2334F2A989B4FCAA3D9EB44","0199d694-5810-7e6c-89df-9ccd1b69e590","0199d675-8795-765b-adc2-c813de8cd3d1","","null","<div style=""display: flex; justify-content: center; align-items: center;"">
                     <img src=""images/causal/causal_series_4/causal_series_4_b.png"" style=""width: 300px; height: 300px;"" />
                   </div>","null","4","1","B","",""
"","","","","","html-keyboard-response","128","654038","0.0-97.0-0.0-1.0","B7F0880DC2334F2A989B4FCAA3D9EB44","0199d694-5810-7e6c-89df-9ccd1b69e590","0199d675-8795-765b-adc2-c813de8cd3d1","","null","<div style=""display: flex; justify-content: center; align-items: center;"">
                     <img src=""images/causal/causal_series_4/causal_series_4_c.png"" style=""width: 300px; height: 300px;"" />
                   </div>","null","4","1","C","",""
"","","","","","html-keyboard-response","129","660040","0.0-97.0-0.0-2.0","B7F0880DC2334F2A989B4FCAA3D9EB44","0199d694-5810-7e6c-89df-9ccd1b69e590","0199d675-8795-765b-adc2-c813de8cd3d1","","null","<div style=""display: flex; justify-content: center; align-items: center;"">
                     <img src=""images/causal/causal_series_4/causal_series_4_d.png"" style=""width: 300px; height: 300px;"" />
                   </div>","null","4","1","D","",""
"","","","","","survey-likert","130","662013","0.0-98.0","B7F0880DC2334F2A989B4FCAA3D9EB44","0199d694-5810-7e6c-89df-9ccd1b69e590","0199d675-8795-765b-adc2-c813de8cd3d1","","1972","","{""Q0"":2}","4","1","surprise_rating","","[0]"
"","","","","","survey-likert","131","663831","0.0-99.0","B7F0880DC2334F2A989B4FCAA3D9EB44","0199d694-5810-7e6c-89df-9ccd1b69e590","0199d675-8795-765b-adc2-c813de8cd3d1","","1817","","{""Q0"":0}","4","1","enjoyment_rating","","[0]"
"","","","","","html-keyboard-response","132","669834","0.0-100.0","B7F0880DC2334F2A989B4FCAA3D9EB44","0199d694-5810-7e6c-89df-9ccd1b69e590","0199d675-8795-765b-adc2-c813de8cd3d1","","null","<div style=""display: flex; justify-content: center; align-items: center;"">
                     <img src=""images/other/blank.png"" style=""width: 300px; height: 300px;"" />
                   </div>","null","0","0","blank","",""
"","","","","","html-keyboard-response","133","676108","0.0-101.0","B7F0880DC2334F2A989B4FCAA3D9EB44","0199d694-5810-7e6c-89df-9ccd1b69e590","0199d675-8795-765b-adc2-c813de8cd3d1","","null","<div style=""display: flex; justify-content: center; align-items: center;"">
                     <img src=""images/causal/causal_series_9/causal_series_9_a.png"" style=""width: 300px; height: 300px;"" />
                   </div>","null","9","2","A","",""
"","","","","","html-button-response","134","678414","0.0-102.0","B7F0880DC2334F2A989B4FCAA3D9EB44","0199d694-5810-7e6c-89df-9ccd1b69e590","0199d675-8795-765b-adc2-c813de8cd3d1","","2304","
        <div style=""display: flex; justify-content: center; align-items: center;"">
          <img src=""images/red_deck_2.png"" style=""width: 300px; height: 300px; margin-right: 10px;"" />
          <img src=""images/blue_deck_1.png"" style=""width: 300px; height: 300px;"" />
        </div>","1","9","2","choice","1",""
"","","","","","html-keyboard-response","135","684416","0.0-103.0-1.0-0.0","B7F0880DC2334F2A989B4FCAA3D9EB44","0199d694-5810-7e6c-89df-9ccd1b69e590","0199d675-8795-765b-adc2-c813de8cd3d1","","null","<div style=""display: flex; justify-content: center; align-items: center;"">
                     <img src=""images/semantic/semantic_series_9/semantic_series_9_b.png"" style=""width: 300px; height: 300px;"" />
                   </div>","null","9","2","B","",""
"","","","","","html-keyboard-response","136","690418","0.0-103.0-1.0-1.0","B7F0880DC2334F2A989B4FCAA3D9EB44","0199d694-5810-7e6c-89df-9ccd1b69e590","0199d675-8795-765b-adc2-c813de8cd3d1","","null","<div style=""display: flex; justify-content: center; align-items: center;"">
                     <img src=""images/semantic/semantic_series_9/semantic_series_9_c.png"" style=""width: 300px; height: 300px;"" />
                   </div>","null","9","2","C","",""
"","","","","","html-keyboard-response","137","696420","0.0-103.0-1.0-2.0","B7F0880DC2334F2A989B4FCAA3D9EB44","0199d694-5810-7e6c-89df-9ccd1b69e590","0199d675-8795-765b-adc2-c813de8cd3d1","","null","<div style=""display: flex; justify-content: center; align-items: center;"">
                     <img src=""images/semantic/semantic_series_9/semantic_series_9_d.png"" style=""width: 300px; height: 300px;"" />
                   </div>","null","9","2","D","",""
"","","","","","survey-likert","138","700448","0.0-104.0","B7F0880DC2334F2A989B4FCAA3D9EB44","0199d694-5810-7e6c-89df-9ccd1b69e590","0199d675-8795-765b-adc2-c813de8cd3d1","","4027","","{""Q0"":3}","9","2","surprise_rating","","[0]"
"","","","","","survey-likert","139","702213","0.0-105.0","B7F0880DC2334F2A989B4FCAA3D9EB44","0199d694-5810-7e6c-89df-9ccd1b69e590","0199d675-8795-765b-adc2-c813de8cd3d1","","1764","","{""Q0"":0}","9","2","enjoyment_rating","","[0]"
"","","","","","html-keyboard-response","140","708216","0.0-106.0","B7F0880DC2334F2A989B4FCAA3D9EB44","0199d694-5810-7e6c-89df-9ccd1b69e590","0199d675-8795-765b-adc2-c813de8cd3d1","","null","<div style=""display: flex; justify-content: center; align-items: center;"">
                     <img src=""images/other/blank.png"" style=""width: 300px; height: 300px;"" />
                   </div>","null","0","0","blank","",""
"","","","","","html-keyboard-response","141","714218","0.0-107.0","B7F0880DC2334F2A989B4FCAA3D9EB44","0199d694-5810-7e6c-89df-9ccd1b69e590","0199d675-8795-765b-adc2-c813de8cd3d1","","null","<div style=""display: flex; justify-content: center; align-items: center;"">
                     <img src=""images/causal/causal_series_10/causal_series_10_a.png"" style=""width: 300px; height: 300px;"" />
                   </div>","null","10","1","A","",""
"","","","","","html-button-response","142","715964","0.0-108.0","B7F0880DC2334F2A989B4FCAA3D9EB44","0199d694-5810-7e6c-89df-9ccd1b69e590","0199d675-8795-765b-adc2-c813de8cd3d1","","1745","
        <div style=""display: flex; justify-content: center; align-items: center;"">
          <img src=""images/red_deck_2.png"" style=""width: 300px; height: 300px; margin-right: 10px;"" />
          <img src=""images/blue_deck_1.png"" style=""width: 300px; height: 300px;"" />
        </div>","1","10","1","choice","1",""
"","","","","","html-keyboard-response","143","721967","0.0-109.0-1.0-0.0","B7F0880DC2334F2A989B4FCAA3D9EB44","0199d694-5810-7e6c-89df-9ccd1b69e590","0199d675-8795-765b-adc2-c813de8cd3d1","","null","<div style=""display: flex; justify-content: center; align-items: center;"">
                     <img src=""images/semantic/semantic_series_10/semantic_series_10_b.png"" style=""width: 300px; height: 300px;"" />
                   </div>","null","10","1","B","",""
"","","","","","html-keyboard-response","144","727969","0.0-109.0-1.0-1.0","B7F0880DC2334F2A989B4FCAA3D9EB44","0199d694-5810-7e6c-89df-9ccd1b69e590","0199d675-8795-765b-adc2-c813de8cd3d1","","null","<div style=""display: flex; justify-content: center; align-items: center;"">
                     <img src=""images/semantic/semantic_series_10/semantic_series_10_c.png"" style=""width: 300px; height: 300px;"" />
                   </div>","null","10","1","C","",""
"","","","","","html-keyboard-response","145","733972","0.0-109.0-1.0-2.0","B7F0880DC2334F2A989B4FCAA3D9EB44","0199d694-5810-7e6c-89df-9ccd1b69e590","0199d675-8795-765b-adc2-c813de8cd3d1","","null","<div style=""display: flex; justify-content: center; align-items: center;"">
                     <img src=""images/semantic/semantic_series_10/semantic_series_10_d.png"" style=""width: 300px; height: 300px;"" />
                   </div>","null","10","1","D","",""
"","","","","","survey-likert","146","736465","0.0-110.0","B7F0880DC2334F2A989B4FCAA3D9EB44","0199d694-5810-7e6c-89df-9ccd1b69e590","0199d675-8795-765b-adc2-c813de8cd3d1","","2492","","{""Q0"":4}","10","1","surprise_rating","","[0]"
"","","","","","survey-likert","147","738129","0.0-111.0","B7F0880DC2334F2A989B4FCAA3D9EB44","0199d694-5810-7e6c-89df-9ccd1b69e590","0199d675-8795-765b-adc2-c813de8cd3d1","","1663","","{""Q0"":0}","10","1","enjoyment_rating","","[0]"
"","","","","","html-keyboard-response","148","744131","0.0-112.0","B7F0880DC2334F2A989B4FCAA3D9EB44","0199d694-5810-7e6c-89df-9ccd1b69e590","0199d675-8795-765b-adc2-c813de8cd3d1","","null","<div style=""display: flex; justify-content: center; align-items: center;"">
                     <img src=""images/other/blank.png"" style=""width: 300px; height: 300px;"" />
                   </div>","null","0","0","blank","",""
"","","","","","html-keyboard-response","149","750132","0.0-113.0","B7F0880DC2334F2A989B4FCAA3D9EB44","0199d694-5810-7e6c-89df-9ccd1b69e590","0199d675-8795-765b-adc2-c813de8cd3d1","","null","<div style=""display: flex; justify-content: center; align-items: center;"">
                     <img src=""images/causal/causal_series_5/causal_series_5_a.png"" style=""width: 300px; height: 300px;"" />
                   </div>","null","5","1","A","",""
"","","","","","html-button-response","150","751496","0.0-114.0","B7F0880DC2334F2A989B4FCAA3D9EB44","0199d694-5810-7e6c-89df-9ccd1b69e590","0199d675-8795-765b-adc2-c813de8cd3d1","","1363","
        <div style=""display: flex; justify-content: center; align-items: center;"">
          <img src=""images/red_deck_2.png"" style=""width: 300px; height: 300px; margin-right: 10px;"" />
          <img src=""images/blue_deck_1.png"" style=""width: 300px; height: 300px;"" />
        </div>","1","5","1","choice","1",""
"","","","","","html-keyboard-response","151","757498","0.0-115.0-1.0-0.0","B7F0880DC2334F2A989B4FCAA3D9EB44","0199d694-5810-7e6c-89df-9ccd1b69e590","0199d675-8795-765b-adc2-c813de8cd3d1","","null","<div style=""display: flex; justify-content: center; align-items: center;"">
                     <img src=""images/semantic/semantic_series_5/semantic_series_5_b.png"" style=""width: 300px; height: 300px;"" />
                   </div>","null","5","1","B","",""
"","","","","","html-keyboard-response","152","763501","0.0-115.0-1.0-1.0","B7F0880DC2334F2A989B4FCAA3D9EB44","0199d694-5810-7e6c-89df-9ccd1b69e590","0199d675-8795-765b-adc2-c813de8cd3d1","","null","<div style=""display: flex; justify-content: center; align-items: center;"">
                     <img src=""images/semantic/semantic_series_5/semantic_series_5_c.png"" style=""width: 300px; height: 300px;"" />
                   </div>","null","5","1","C","",""
"","","","","","html-keyboard-response","153","769503","0.0-115.0-1.0-2.0","B7F0880DC2334F2A989B4FCAA3D9EB44","0199d694-5810-7e6c-89df-9ccd1b69e590","0199d675-8795-765b-adc2-c813de8cd3d1","","null","<div style=""display: flex; justify-content: center; align-items: center;"">
                     <img src=""images/semantic/semantic_series_5/semantic_series_5_d.png"" style=""width: 300px; height: 300px;"" />
                   </div>","null","5","1","D","",""
"","","","","","survey-likert","154","774863","0.0-116.0","B7F0880DC2334F2A989B4FCAA3D9EB44","0199d694-5810-7e6c-89df-9ccd1b69e590","0199d675-8795-765b-adc2-c813de8cd3d1","","5359","","{""Q0"":4}","5","1","surprise_rating","","[0]"
"","","","","","survey-likert","155","776663","0.0-117.0","B7F0880DC2334F2A989B4FCAA3D9EB44","0199d694-5810-7e6c-89df-9ccd1b69e590","0199d675-8795-765b-adc2-c813de8cd3d1","","1798","","{""Q0"":0}","5","1","enjoyment_rating","","[0]"
"","","","","","html-keyboard-response","156","782665","0.0-118.0","B7F0880DC2334F2A989B4FCAA3D9EB44","0199d694-5810-7e6c-89df-9ccd1b69e590","0199d675-8795-765b-adc2-c813de8cd3d1","","null","<div style=""display: flex; justify-content: center; align-items: center;"">
                     <img src=""images/other/blank.png"" style=""width: 300px; height: 300px;"" />
                   </div>","null","0","0","blank","",""
"","","","","","html-keyboard-response","157","788668","0.0-119.0","B7F0880DC2334F2A989B4FCAA3D9EB44","0199d694-5810-7e6c-89df-9ccd1b69e590","0199d675-8795-765b-adc2-c813de8cd3d1","","null","<div style=""display: flex; justify-content: center; align-items: center;"">
                     <img src=""images/causal/causal_series_7/causal_series_7_a.png"" style=""width: 300px; height: 300px;"" />
                   </div>","null","7","2","A","",""
"","","","","","html-button-response","158","789811","0.0-120.0","B7F0880DC2334F2A989B4FCAA3D9EB44","0199d694-5810-7e6c-89df-9ccd1b69e590","0199d675-8795-765b-adc2-c813de8cd3d1","","1143","
        <div style=""display: flex; justify-content: center; align-items: center;"">
          <img src=""images/red_deck_2.png"" style=""width: 300px; height: 300px; margin-right: 10px;"" />
          <img src=""images/blue_deck_1.png"" style=""width: 300px; height: 300px;"" />
        </div>","1","7","2","choice","1",""
"","","","","","html-keyboard-response","159","795814","0.0-121.0-1.0-0.0","B7F0880DC2334F2A989B4FCAA3D9EB44","0199d694-5810-7e6c-89df-9ccd1b69e590","0199d675-8795-765b-adc2-c813de8cd3d1","","null","<div style=""display: flex; justify-content: center; align-items: center;"">
                     <img src=""images/semantic/semantic_series_7/semantic_series_7_b.png"" style=""width: 300px; height: 300px;"" />
                   </div>","null","7","2","B","",""
"","","","","","html-keyboard-response","160","801816","0.0-121.0-1.0-1.0","B7F0880DC2334F2A989B4FCAA3D9EB44","0199d694-5810-7e6c-89df-9ccd1b69e590","0199d675-8795-765b-adc2-c813de8cd3d1","","null","<div style=""display: flex; justify-content: center; align-items: center;"">
                     <img src=""images/semantic/semantic_series_7/semantic_series_7_c.png"" style=""width: 300px; height: 300px;"" />
                   </div>","null","7","2","C","",""
"","","","","","html-keyboard-response","161","807818","0.0-121.0-1.0-2.0","B7F0880DC2334F2A989B4FCAA3D9EB44","0199d694-5810-7e6c-89df-9ccd1b69e590","0199d675-8795-765b-adc2-c813de8cd3d1","","null","<div style=""display: flex; justify-content: center; align-items: center;"">
                     <img src=""images/semantic/semantic_series_7/semantic_series_7_d.png"" style=""width: 300px; height: 300px;"" />
                   </div>","null","7","2","D","",""
"","","","","","survey-likert","162","810613","0.0-122.0","B7F0880DC2334F2A989B4FCAA3D9EB44","0199d694-5810-7e6c-89df-9ccd1b69e590","0199d675-8795-765b-adc2-c813de8cd3d1","","2794","","{""Q0"":4}","7","2","surprise_rating","","[0]"
"","","","","","survey-likert","163","812729","0.0-123.0","B7F0880DC2334F2A989B4FCAA3D9EB44","0199d694-5810-7e6c-89df-9ccd1b69e590","0199d675-8795-765b-adc2-c813de8cd3d1","","2115","","{""Q0"":0}","7","2","enjoyment_rating","","[0]"
"","","","","","html-keyboard-response","164","818731","0.0-124.0","B7F0880DC2334F2A989B4FCAA3D9EB44","0199d694-5810-7e6c-89df-9ccd1b69e590","0199d675-8795-765b-adc2-c813de8cd3d1","","null","<div style=""display: flex; justify-content: center; align-items: center;"">
                     <img src=""images/other/blank.png"" style=""width: 300px; height: 300px;"" />
                   </div>","null","0","0","blank","",""
"","","","","","survey-text","165","845994","0.0-125.0","B7F0880DC2334F2A989B4FCAA3D9EB44","0199d694-5810-7e6c-89df-9ccd1b69e590","0199d675-8795-765b-adc2-c813de8cd3d1","","27259","","{""Q0"":""blue was a sequence of events that told a cohesive story while red was random events that did not make up a story""}","","","","",""
"","","","","","html-button-response","166","851711","0.0-126.0","B7F0880DC2334F2A989B4FCAA3D9EB44","0199d694-5810-7e6c-89df-9ccd1b69e590","0199d675-8795-765b-adc2-c813de8cd3d1","","5716","Which color deck do the following sentences continue the story from?","0","","","","",""
"","","","","","html-button-response","167","853929","0.0-127.0","B7F0880DC2334F2A989B4FCAA3D9EB44","0199d694-5810-7e6c-89df-9ccd1b69e590","0199d675-8795-765b-adc2-c813de8cd3d1","","2217","Which color deck do the following sentences NOT follow the story from?","1","","","","",""
"","","","","","html-button-response","168","857961","0.0-128.0","B7F0880DC2334F2A989B4FCAA3D9EB44","0199d694-5810-7e6c-89df-9ccd1b69e590","0199d675-8795-765b-adc2-c813de8cd3d1","","4031","Which type of deck did you prefer overall?","1","","","","",""
"","","","","","survey-text","169","864311","0.0-129.0","B7F0880DC2334F2A989B4FCAA3D9EB44","0199d694-5810-7e6c-89df-9ccd1b69e590","0199d675-8795-765b-adc2-c813de8cd3d1","","6348","","{""Q0"":""MALE"",""Q1"":""35""}","","","","",""
"","","","","","instructions","170","868061","0.0-130.0","B7F0880DC2334F2A989B4FCAA3D9EB44","0199d694-5810-7e6c-89df-9ccd1b69e590","0199d675-8795-765b-adc2-c813de8cd3d1","[{""page_index"":0,""viewing_time"":3749}]","3749","","","","","","",""
