"success","timeout","failed_images","failed_audio","failed_video","trial_type","trial_index","time_elapsed","internal_node_id","subject_id","study_id","session_id","view_history","rt","stimulus","response","series","repetition","phase","choice","question_order"
"true","false","[]","[]","[]","preload","0","457","0.0-0.0","143A508813DA45C2852DC6A78FD99FC0","0199d67f-9806-7843-96b0-d93991388752","0199d675-8795-765b-adc2-c813de8cd3d1","","","","","","","","",""
"","","","","","instructions","1","13108","0.0-1.0","143A508813DA45C2852DC6A78FD99FC0","0199d67f-9806-7843-96b0-d93991388752","0199d675-8795-765b-adc2-c813de8cd3d1","[{""page_index"":0,""viewing_time"":12650}]","12651","","","","","","",""
"","","","","","instructions","2","22402","0.0-2.0","143A508813DA45C2852DC6A78FD99FC0","0199d67f-9806-7843-96b0-d93991388752","0199d675-8795-765b-adc2-c813de8cd3d1","[{""page_index"":0,""viewing_time"":9294}]","9294","","","","","","",""
"true","","","","","fullscreen","3","24978","0.0-3.0","143A508813DA45C2852DC6A78FD99FC0","0199d67f-9806-7843-96b0-d93991388752","0199d675-8795-765b-adc2-c813de8cd3d1","","1567","","","","","","",""
"","","","","","instructions","4","31811","0.0-4.0","143A508813DA45C2852DC6A78FD99FC0","0199d67f-9806-7843-96b0-d93991388752","0199d675-8795-765b-adc2-c813de8cd3d1","[{""page_index"":0,""viewing_time"":6833}]","6833","","","","","","",""
"","","","","","html-keyboard-response","5","37823","0.0-5.0","143A508813DA45C2852DC6A78FD99FC0","0199d67f-9806-7843-96b0-d93991388752","0199d675-8795-765b-adc2-c813de8cd3d1","","null","<div style=""display: flex; justify-content: center; align-items: center;"">
                     <img src=""images/causal/causal_series_1/causal_series_1_a.png"" style=""width: 300px; height: 300px;"" />
                   </div>","null","1","1","A","",""
"","","","","","html-button-response","6","48718","0.0-6.0","143A508813DA45C2852DC6A78FD99FC0","0199d67f-9806-7843-96b0-d93991388752","0199d675-8795-765b-adc2-c813de8cd3d1","","10893","
        <div style=""display: flex; justify-content: center; align-items: center;"">
          <img src=""images/red_deck_2.png"" style=""width: 300px; height: 300px; margin-right: 10px;"" />
          <img src=""images/blue_deck_1.png"" style=""width: 300px; height: 300px;"" />
        </div>","0","1","1","choice","0",""
"","","","","","html-keyboard-response","7","54725","0.0-7.0-0.0-0.0","143A508813DA45C2852DC6A78FD99FC0","0199d67f-9806-7843-96b0-d93991388752","0199d675-8795-765b-adc2-c813de8cd3d1","","null","<div style=""display: flex; justify-content: center; align-items: center;"">
                     <img src=""images/causal/causal_series_1/causal_series_1_b.png"" style=""width: 300px; height: 300px;"" />
                   </div>","null","1","1","B","",""
"","","","","","html-keyboard-response","8","60728","0.0-7.0-0.0-1.0","143A508813DA45C2852DC6A78FD99FC0","0199d67f-9806-7843-96b0-d93991388752","0199d675-8795-765b-adc2-c813de8cd3d1","","null","<div style=""display: flex; justify-content: center; align-items: center;"">
                     <img src=""images/causal/causal_series_1/causal_series_1_c.png"" style=""width: 300px; height: 300px;"" />
                   </div>","null","1","1","C","",""
"","","","","","html-keyboard-response","9","66744","0.0-7.0-0.0-2.0","143A508813DA45C2852DC6A78FD99FC0","0199d67f-9806-7843-96b0-d93991388752","0199d675-8795-765b-adc2-c813de8cd3d1","","null","<div style=""display: flex; justify-content: center; align-items: center;"">
                     <img src=""images/causal/causal_series_1/causal_series_1_d.png"" style=""width: 300px; height: 300px;"" />
                   </div>","null","1","1","D","",""
"","","","","","survey-likert","10","70392","0.0-8.0","143A508813DA45C2852DC6A78FD99FC0","0199d67f-9806-7843-96b0-d93991388752","0199d675-8795-765b-adc2-c813de8cd3d1","","3647","","{""Q0"":2}","1","1","surprise_rating","","[0]"
"","","","","","survey-likert","11","71896","0.0-9.0","143A508813DA45C2852DC6A78FD99FC0","0199d67f-9806-7843-96b0-d93991388752","0199d675-8795-765b-adc2-c813de8cd3d1","","1503","","{""Q0"":3}","1","1","enjoyment_rating","","[0]"
"","","","","","html-keyboard-response","12","77897","0.0-10.0","143A508813DA45C2852DC6A78FD99FC0","0199d67f-9806-7843-96b0-d93991388752","0199d675-8795-765b-adc2-c813de8cd3d1","","null","<div style=""display: flex; justify-content: center; align-items: center;"">
                     <img src=""images/other/blank.png"" style=""width: 300px; height: 300px;"" />
                   </div>","null","0","0","blank","",""
"","","","","","html-keyboard-response","13","83910","0.0-11.0","143A508813DA45C2852DC6A78FD99FC0","0199d67f-9806-7843-96b0-d93991388752","0199d675-8795-765b-adc2-c813de8cd3d1","","null","<div style=""display: flex; justify-content: center; align-items: center;"">
                     <img src=""images/causal/causal_series_9/causal_series_9_a.png"" style=""width: 300px; height: 300px;"" />
                   </div>","null","9","2","A","",""
"","","","","","html-button-response","14","96429","0.0-12.0","143A508813DA45C2852DC6A78FD99FC0","0199d67f-9806-7843-96b0-d93991388752","0199d675-8795-765b-adc2-c813de8cd3d1","","12518","
        <div style=""display: flex; justify-content: center; align-items: center;"">
          <img src=""images/red_deck_2.png"" style=""width: 300px; height: 300px; margin-right: 10px;"" />
          <img src=""images/blue_deck_1.png"" style=""width: 300px; height: 300px;"" />
        </div>","1","9","2","choice","1",""
"","","","","","html-keyboard-response","15","102436","0.0-13.0-1.0-0.0","143A508813DA45C2852DC6A78FD99FC0","0199d67f-9806-7843-96b0-d93991388752","0199d675-8795-765b-adc2-c813de8cd3d1","","null","<div style=""display: flex; justify-content: center; align-items: center;"">
                     <img src=""images/semantic/semantic_series_9/semantic_series_9_b.png"" style=""width: 300px; height: 300px;"" />
                   </div>","null","9","2","B","",""
"","","","","","html-keyboard-response","16","108447","0.0-13.0-1.0-1.0","143A508813DA45C2852DC6A78FD99FC0","0199d67f-9806-7843-96b0-d93991388752","0199d675-8795-765b-adc2-c813de8cd3d1","","null","<div style=""display: flex; justify-content: center; align-items: center;"">
                     <img src=""images/semantic/semantic_series_9/semantic_series_9_c.png"" style=""width: 300px; height: 300px;"" />
                   </div>","null","9","2","C","",""
"","","","","","html-keyboard-response","17","114462","0.0-13.0-1.0-2.0","143A508813DA45C2852DC6A78FD99FC0","0199d67f-9806-7843-96b0-d93991388752","0199d675-8795-765b-adc2-c813de8cd3d1","","null","<div style=""display: flex; justify-content: center; align-items: center;"">
                     <img src=""images/semantic/semantic_series_9/semantic_series_9_d.png"" style=""width: 300px; height: 300px;"" />
                   </div>","null","9","2","D","",""
"","","","","","survey-likert","18","117208","0.0-14.0","143A508813DA45C2852DC6A78FD99FC0","0199d67f-9806-7843-96b0-d93991388752","0199d675-8795-765b-adc2-c813de8cd3d1","","2745","","{""Q0"":1}","9","2","surprise_rating","","[0]"
"","","","","","survey-likert","19","118478","0.0-15.0","143A508813DA45C2852DC6A78FD99FC0","0199d67f-9806-7843-96b0-d93991388752","0199d675-8795-765b-adc2-c813de8cd3d1","","1269","","{""Q0"":2}","9","2","enjoyment_rating","","[0]"
"","","","","","html-keyboard-response","20","124484","0.0-16.0","143A508813DA45C2852DC6A78FD99FC0","0199d67f-9806-7843-96b0-d93991388752","0199d675-8795-765b-adc2-c813de8cd3d1","","null","<div style=""display: flex; justify-content: center; align-items: center;"">
                     <img src=""images/other/blank.png"" style=""width: 300px; height: 300px;"" />
                   </div>","null","0","0","blank","",""
"","","","","","html-keyboard-response","21","130486","0.0-17.0","143A508813DA45C2852DC6A78FD99FC0","0199d67f-9806-7843-96b0-d93991388752","0199d675-8795-765b-adc2-c813de8cd3d1","","null","<div style=""display: flex; justify-content: center; align-items: center;"">
                     <img src=""images/causal/causal_series_5/causal_series_5_a.png"" style=""width: 300px; height: 300px;"" />
                   </div>","null","5","2","A","",""
"","","","","","html-button-response","22","145430","0.0-18.0","143A508813DA45C2852DC6A78FD99FC0","0199d67f-9806-7843-96b0-d93991388752","0199d675-8795-765b-adc2-c813de8cd3d1","","14943","
        <div style=""display: flex; justify-content: center; align-items: center;"">
          <img src=""images/red_deck_2.png"" style=""width: 300px; height: 300px; margin-right: 10px;"" />
          <img src=""images/blue_deck_1.png"" style=""width: 300px; height: 300px;"" />
        </div>","0","5","2","choice","0",""
"","","","","","html-keyboard-response","23","151434","0.0-19.0-0.0-0.0","143A508813DA45C2852DC6A78FD99FC0","0199d67f-9806-7843-96b0-d93991388752","0199d675-8795-765b-adc2-c813de8cd3d1","","null","<div style=""display: flex; justify-content: center; align-items: center;"">
                     <img src=""images/causal/causal_series_5/causal_series_5_b.png"" style=""width: 300px; height: 300px;"" />
                   </div>","null","5","2","B","",""
"","","","","","html-keyboard-response","24","157445","0.0-19.0-0.0-1.0","143A508813DA45C2852DC6A78FD99FC0","0199d67f-9806-7843-96b0-d93991388752","0199d675-8795-765b-adc2-c813de8cd3d1","","null","<div style=""display: flex; justify-content: center; align-items: center;"">
                     <img src=""images/causal/causal_series_5/causal_series_5_c.png"" style=""width: 300px; height: 300px;"" />
                   </div>","null","5","2","C","",""
"","","","","","html-keyboard-response","25","163457","0.0-19.0-0.0-2.0","143A508813DA45C2852DC6A78FD99FC0","0199d67f-9806-7843-96b0-d93991388752","0199d675-8795-765b-adc2-c813de8cd3d1","","null","<div style=""display: flex; justify-content: center; align-items: center;"">
                     <img src=""images/causal/causal_series_5/causal_series_5_d.png"" style=""width: 300px; height: 300px;"" />
                   </div>","null","5","2","D","",""
"","","","","","survey-likert","26","168512","0.0-20.0","143A508813DA45C2852DC6A78FD99FC0","0199d67f-9806-7843-96b0-d93991388752","0199d675-8795-765b-adc2-c813de8cd3d1","","5054","","{""Q0"":1}","5","2","surprise_rating","","[0]"
"","","","","","survey-likert","27","171162","0.0-21.0","143A508813DA45C2852DC6A78FD99FC0","0199d67f-9806-7843-96b0-d93991388752","0199d675-8795-765b-adc2-c813de8cd3d1","","2649","","{""Q0"":0}","5","2","enjoyment_rating","","[0]"
"","","","","","html-keyboard-response","28","177176","0.0-22.0","143A508813DA45C2852DC6A78FD99FC0","0199d67f-9806-7843-96b0-d93991388752","0199d675-8795-765b-adc2-c813de8cd3d1","","null","<div style=""display: flex; justify-content: center; align-items: center;"">
                     <img src=""images/other/blank.png"" style=""width: 300px; height: 300px;"" />
                   </div>","null","0","0","blank","",""
"","","","","","html-keyboard-response","29","183181","0.0-23.0","143A508813DA45C2852DC6A78FD99FC0","0199d67f-9806-7843-96b0-d93991388752","0199d675-8795-765b-adc2-c813de8cd3d1","","null","<div style=""display: flex; justify-content: center; align-items: center;"">
                     <img src=""images/causal/causal_series_2/causal_series_2_a.png"" style=""width: 300px; height: 300px;"" />
                   </div>","null","2","1","A","",""
"","","","","","html-button-response","30","185648","0.0-24.0","143A508813DA45C2852DC6A78FD99FC0","0199d67f-9806-7843-96b0-d93991388752","0199d675-8795-765b-adc2-c813de8cd3d1","","2465","
        <div style=""display: flex; justify-content: center; align-items: center;"">
          <img src=""images/red_deck_2.png"" style=""width: 300px; height: 300px; margin-right: 10px;"" />
          <img src=""images/blue_deck_1.png"" style=""width: 300px; height: 300px;"" />
        </div>","0","2","1","choice","0",""
"","","","","","html-keyboard-response","31","191659","0.0-25.0-0.0-0.0","143A508813DA45C2852DC6A78FD99FC0","0199d67f-9806-7843-96b0-d93991388752","0199d675-8795-765b-adc2-c813de8cd3d1","","null","<div style=""display: flex; justify-content: center; align-items: center;"">
                     <img src=""images/causal/causal_series_2/causal_series_2_b.png"" style=""width: 300px; height: 300px;"" />
                   </div>","null","2","1","B","",""
"","","","","","html-keyboard-response","32","197675","0.0-25.0-0.0-1.0","143A508813DA45C2852DC6A78FD99FC0","0199d67f-9806-7843-96b0-d93991388752","0199d675-8795-765b-adc2-c813de8cd3d1","","null","<div style=""display: flex; justify-content: center; align-items: center;"">
                     <img src=""images/causal/causal_series_2/causal_series_2_c.png"" style=""width: 300px; height: 300px;"" />
                   </div>","null","2","1","C","",""
"","","","","","html-keyboard-response","33","203691","0.0-25.0-0.0-2.0","143A508813DA45C2852DC6A78FD99FC0","0199d67f-9806-7843-96b0-d93991388752","0199d675-8795-765b-adc2-c813de8cd3d1","","null","<div style=""display: flex; justify-content: center; align-items: center;"">
                     <img src=""images/causal/causal_series_2/causal_series_2_d.png"" style=""width: 300px; height: 300px;"" />
                   </div>","null","2","1","D","",""
"","","","","","survey-likert","34","208921","0.0-26.0","143A508813DA45C2852DC6A78FD99FC0","0199d67f-9806-7843-96b0-d93991388752","0199d675-8795-765b-adc2-c813de8cd3d1","","5229","","{""Q0"":2}","2","1","surprise_rating","","[0]"
"","","","","","survey-likert","35","214132","0.0-27.0","143A508813DA45C2852DC6A78FD99FC0","0199d67f-9806-7843-96b0-d93991388752","0199d675-8795-765b-adc2-c813de8cd3d1","","5210","","{""Q0"":4}","2","1","enjoyment_rating","","[0]"
"","","","","","html-keyboard-response","36","220148","0.0-28.0","143A508813DA45C2852DC6A78FD99FC0","0199d67f-9806-7843-96b0-d93991388752","0199d675-8795-765b-adc2-c813de8cd3d1","","null","<div style=""display: flex; justify-content: center; align-items: center;"">
                     <img src=""images/other/blank.png"" style=""width: 300px; height: 300px;"" />
                   </div>","null","0","0","blank","",""
"","","","","","html-keyboard-response","37","226161","0.0-29.0","143A508813DA45C2852DC6A78FD99FC0","0199d67f-9806-7843-96b0-d93991388752","0199d675-8795-765b-adc2-c813de8cd3d1","","null","<div style=""display: flex; justify-content: center; align-items: center;"">
                     <img src=""images/causal/causal_series_4/causal_series_4_a.png"" style=""width: 300px; height: 300px;"" />
                   </div>","null","4","2","A","",""
"","","","","","html-button-response","38","231188","0.0-30.0","143A508813DA45C2852DC6A78FD99FC0","0199d67f-9806-7843-96b0-d93991388752","0199d675-8795-765b-adc2-c813de8cd3d1","","5026","
        <div style=""display: flex; justify-content: center; align-items: center;"">
          <img src=""images/red_deck_2.png"" style=""width: 300px; height: 300px; margin-right: 10px;"" />
          <img src=""images/blue_deck_1.png"" style=""width: 300px; height: 300px;"" />
        </div>","0","4","2","choice","0",""
"","","","","","html-keyboard-response","39","237198","0.0-31.0-0.0-0.0","143A508813DA45C2852DC6A78FD99FC0","0199d67f-9806-7843-96b0-d93991388752","0199d675-8795-765b-adc2-c813de8cd3d1","","null","<div style=""display: flex; justify-content: center; align-items: center;"">
                     <img src=""images/causal/causal_series_4/causal_series_4_b.png"" style=""width: 300px; height: 300px;"" />
                   </div>","null","4","2","B","",""
"","","","","","html-keyboard-response","40","243198","0.0-31.0-0.0-1.0","143A508813DA45C2852DC6A78FD99FC0","0199d67f-9806-7843-96b0-d93991388752","0199d675-8795-765b-adc2-c813de8cd3d1","","null","<div style=""display: flex; justify-content: center; align-items: center;"">
                     <img src=""images/causal/causal_series_4/causal_series_4_c.png"" style=""width: 300px; height: 300px;"" />
                   </div>","null","4","2","C","",""
"","","","","","html-keyboard-response","41","249212","0.0-31.0-0.0-2.0","143A508813DA45C2852DC6A78FD99FC0","0199d67f-9806-7843-96b0-d93991388752","0199d675-8795-765b-adc2-c813de8cd3d1","","null","<div style=""display: flex; justify-content: center; align-items: center;"">
                     <img src=""images/causal/causal_series_4/causal_series_4_d.png"" style=""width: 300px; height: 300px;"" />
                   </div>","null","4","2","D","",""
"","","","","","survey-likert","42","252714","0.0-32.0","143A508813DA45C2852DC6A78FD99FC0","0199d67f-9806-7843-96b0-d93991388752","0199d675-8795-765b-adc2-c813de8cd3d1","","3501","","{""Q0"":3}","4","2","surprise_rating","","[0]"
"","","","","","survey-likert","43","253974","0.0-33.0","143A508813DA45C2852DC6A78FD99FC0","0199d67f-9806-7843-96b0-d93991388752","0199d675-8795-765b-adc2-c813de8cd3d1","","1259","","{""Q0"":4}","4","2","enjoyment_rating","","[0]"
"","","","","","html-keyboard-response","44","259985","0.0-34.0","143A508813DA45C2852DC6A78FD99FC0","0199d67f-9806-7843-96b0-d93991388752","0199d675-8795-765b-adc2-c813de8cd3d1","","null","<div style=""display: flex; justify-content: center; align-items: center;"">
                     <img src=""images/other/blank.png"" style=""width: 300px; height: 300px;"" />
                   </div>","null","0","0","blank","",""
"","","","","","html-keyboard-response","45","265999","0.0-35.0","143A508813DA45C2852DC6A78FD99FC0","0199d67f-9806-7843-96b0-d93991388752","0199d675-8795-765b-adc2-c813de8cd3d1","","null","<div style=""display: flex; justify-content: center; align-items: center;"">
                     <img src=""images/causal/causal_series_5/causal_series_5_a.png"" style=""width: 300px; height: 300px;"" />
                   </div>","null","5","1","A","",""
"","","","","","html-button-response","46","278030","0.0-36.0","143A508813DA45C2852DC6A78FD99FC0","0199d67f-9806-7843-96b0-d93991388752","0199d675-8795-765b-adc2-c813de8cd3d1","","12029","
        <div style=""display: flex; justify-content: center; align-items: center;"">
          <img src=""images/red_deck_2.png"" style=""width: 300px; height: 300px; margin-right: 10px;"" />
          <img src=""images/blue_deck_1.png"" style=""width: 300px; height: 300px;"" />
        </div>","0","5","1","choice","0",""
"","","","","","html-keyboard-response","47","284039","0.0-37.0-0.0-0.0","143A508813DA45C2852DC6A78FD99FC0","0199d67f-9806-7843-96b0-d93991388752","0199d675-8795-765b-adc2-c813de8cd3d1","","null","<div style=""display: flex; justify-content: center; align-items: center;"">
                     <img src=""images/causal/causal_series_5/causal_series_5_b.png"" style=""width: 300px; height: 300px;"" />
                   </div>","null","5","1","B","",""
"","","","","","html-keyboard-response","48","290052","0.0-37.0-0.0-1.0","143A508813DA45C2852DC6A78FD99FC0","0199d67f-9806-7843-96b0-d93991388752","0199d675-8795-765b-adc2-c813de8cd3d1","","null","<div style=""display: flex; justify-content: center; align-items: center;"">
                     <img src=""images/causal/causal_series_5/causal_series_5_c.png"" style=""width: 300px; height: 300px;"" />
                   </div>","null","5","1","C","",""
"","","","","","html-keyboard-response","49","296064","0.0-37.0-0.0-2.0","143A508813DA45C2852DC6A78FD99FC0","0199d67f-9806-7843-96b0-d93991388752","0199d675-8795-765b-adc2-c813de8cd3d1","","null","<div style=""display: flex; justify-content: center; align-items: center;"">
                     <img src=""images/causal/causal_series_5/causal_series_5_d.png"" style=""width: 300px; height: 300px;"" />
                   </div>","null","5","1","D","",""
"","","","","","survey-likert","50","297842","0.0-38.0","143A508813DA45C2852DC6A78FD99FC0","0199d67f-9806-7843-96b0-d93991388752","0199d675-8795-765b-adc2-c813de8cd3d1","","1778","","{""Q0"":0}","5","1","surprise_rating","","[0]"
"","","","","","survey-likert","51","299145","0.0-39.0","143A508813DA45C2852DC6A78FD99FC0","0199d67f-9806-7843-96b0-d93991388752","0199d675-8795-765b-adc2-c813de8cd3d1","","1302","","{""Q0"":0}","5","1","enjoyment_rating","","[0]"
"","","","","","html-keyboard-response","52","305160","0.0-40.0","143A508813DA45C2852DC6A78FD99FC0","0199d67f-9806-7843-96b0-d93991388752","0199d675-8795-765b-adc2-c813de8cd3d1","","null","<div style=""display: flex; justify-content: center; align-items: center;"">
                     <img src=""images/other/blank.png"" style=""width: 300px; height: 300px;"" />
                   </div>","null","0","0","blank","",""
"","","","","","html-keyboard-response","53","311165","0.0-41.0","143A508813DA45C2852DC6A78FD99FC0","0199d67f-9806-7843-96b0-d93991388752","0199d675-8795-765b-adc2-c813de8cd3d1","","null","<div style=""display: flex; justify-content: center; align-items: center;"">
                     <img src=""images/causal/causal_series_1/causal_series_1_a.png"" style=""width: 300px; height: 300px;"" />
                   </div>","null","1","2","A","",""
"","","","","","html-button-response","54","373788","0.0-42.0","143A508813DA45C2852DC6A78FD99FC0","0199d67f-9806-7843-96b0-d93991388752","0199d675-8795-765b-adc2-c813de8cd3d1","","62622","
        <div style=""display: flex; justify-content: center; align-items: center;"">
          <img src=""images/red_deck_2.png"" style=""width: 300px; height: 300px; margin-right: 10px;"" />
          <img src=""images/blue_deck_1.png"" style=""width: 300px; height: 300px;"" />
        </div>","1","1","2","choice","1",""
"","","","","","html-keyboard-response","55","379789","0.0-43.0-1.0-0.0","143A508813DA45C2852DC6A78FD99FC0","0199d67f-9806-7843-96b0-d93991388752","0199d675-8795-765b-adc2-c813de8cd3d1","","null","<div style=""display: flex; justify-content: center; align-items: center;"">
                     <img src=""images/semantic/semantic_series_1/semantic_series_1_b.png"" style=""width: 300px; height: 300px;"" />
                   </div>","null","1","2","B","",""
"","","","","","html-keyboard-response","56","385804","0.0-43.0-1.0-1.0","143A508813DA45C2852DC6A78FD99FC0","0199d67f-9806-7843-96b0-d93991388752","0199d675-8795-765b-adc2-c813de8cd3d1","","null","<div style=""display: flex; justify-content: center; align-items: center;"">
                     <img src=""images/semantic/semantic_series_1/semantic_series_1_c.png"" style=""width: 300px; height: 300px;"" />
                   </div>","null","1","2","C","",""
"","","","","","html-keyboard-response","57","391809","0.0-43.0-1.0-2.0","143A508813DA45C2852DC6A78FD99FC0","0199d67f-9806-7843-96b0-d93991388752","0199d675-8795-765b-adc2-c813de8cd3d1","","null","<div style=""display: flex; justify-content: center; align-items: center;"">
                     <img src=""images/semantic/semantic_series_1/semantic_series_1_d.png"" style=""width: 300px; height: 300px;"" />
                   </div>","null","1","2","D","",""
"","","","","","survey-likert","58","395370","0.0-44.0","143A508813DA45C2852DC6A78FD99FC0","0199d67f-9806-7843-96b0-d93991388752","0199d675-8795-765b-adc2-c813de8cd3d1","","3560","","{""Q0"":3}","1","2","surprise_rating","","[0]"
"","","","","","survey-likert","59","397314","0.0-45.0","143A508813DA45C2852DC6A78FD99FC0","0199d67f-9806-7843-96b0-d93991388752","0199d675-8795-765b-adc2-c813de8cd3d1","","1943","","{""Q0"":1}","1","2","enjoyment_rating","","[0]"
"","","","","","html-keyboard-response","60","403323","0.0-46.0","143A508813DA45C2852DC6A78FD99FC0","0199d67f-9806-7843-96b0-d93991388752","0199d675-8795-765b-adc2-c813de8cd3d1","","null","<div style=""display: flex; justify-content: center; align-items: center;"">
                     <img src=""images/other/blank.png"" style=""width: 300px; height: 300px;"" />
                   </div>","null","0","0","blank","",""
"","","","","","html-keyboard-response","61","409326","0.0-47.0","143A508813DA45C2852DC6A78FD99FC0","0199d67f-9806-7843-96b0-d93991388752","0199d675-8795-765b-adc2-c813de8cd3d1","","null","<div style=""display: flex; justify-content: center; align-items: center;"">
                     <img src=""images/causal/causal_series_7/causal_series_7_a.png"" style=""width: 300px; height: 300px;"" />
                   </div>","null","7","1","A","",""
"","","","","","html-button-response","62","465467","0.0-48.0","143A508813DA45C2852DC6A78FD99FC0","0199d67f-9806-7843-96b0-d93991388752","0199d675-8795-765b-adc2-c813de8cd3d1","","56140","
        <div style=""display: flex; justify-content: center; align-items: center;"">
          <img src=""images/red_deck_2.png"" style=""width: 300px; height: 300px; margin-right: 10px;"" />
          <img src=""images/blue_deck_1.png"" style=""width: 300px; height: 300px;"" />
        </div>","0","7","1","choice","0",""
"","","","","","html-keyboard-response","63","471479","0.0-49.0-0.0-0.0","143A508813DA45C2852DC6A78FD99FC0","0199d67f-9806-7843-96b0-d93991388752","0199d675-8795-765b-adc2-c813de8cd3d1","","null","<div style=""display: flex; justify-content: center; align-items: center;"">
                     <img src=""images/causal/causal_series_7/causal_series_7_b.png"" style=""width: 300px; height: 300px;"" />
                   </div>","null","7","1","B","",""
"","","","","","html-keyboard-response","64","477492","0.0-49.0-0.0-1.0","143A508813DA45C2852DC6A78FD99FC0","0199d67f-9806-7843-96b0-d93991388752","0199d675-8795-765b-adc2-c813de8cd3d1","","null","<div style=""display: flex; justify-content: center; align-items: center;"">
                     <img src=""images/causal/causal_series_7/causal_series_7_c.png"" style=""width: 300px; height: 300px;"" />
                   </div>","null","7","1","C","",""
"","","","","","html-keyboard-response","65","483505","0.0-49.0-0.0-2.0","143A508813DA45C2852DC6A78FD99FC0","0199d67f-9806-7843-96b0-d93991388752","0199d675-8795-765b-adc2-c813de8cd3d1","","null","<div style=""display: flex; justify-content: center; align-items: center;"">
                     <img src=""images/causal/causal_series_7/causal_series_7_d.png"" style=""width: 300px; height: 300px;"" />
                   </div>","null","7","1","D","",""
"","","","","","survey-likert","66","486818","0.0-50.0","143A508813DA45C2852DC6A78FD99FC0","0199d67f-9806-7843-96b0-d93991388752","0199d675-8795-765b-adc2-c813de8cd3d1","","3312","","{""Q0"":2}","7","1","surprise_rating","","[0]"
"","","","","","survey-likert","67","488864","0.0-51.0","143A508813DA45C2852DC6A78FD99FC0","0199d67f-9806-7843-96b0-d93991388752","0199d675-8795-765b-adc2-c813de8cd3d1","","2045","","{""Q0"":4}","7","1","enjoyment_rating","","[0]"
"","","","","","html-keyboard-response","68","494864","0.0-52.0","143A508813DA45C2852DC6A78FD99FC0","0199d67f-9806-7843-96b0-d93991388752","0199d675-8795-765b-adc2-c813de8cd3d1","","null","<div style=""display: flex; justify-content: center; align-items: center;"">
                     <img src=""images/other/blank.png"" style=""width: 300px; height: 300px;"" />
                   </div>","null","0","0","blank","",""
"","","","","","html-keyboard-response","69","500879","0.0-53.0","143A508813DA45C2852DC6A78FD99FC0","0199d67f-9806-7843-96b0-d93991388752","0199d675-8795-765b-adc2-c813de8cd3d1","","null","<div style=""display: flex; justify-content: center; align-items: center;"">
                     <img src=""images/causal/causal_series_3/causal_series_3_a.png"" style=""width: 300px; height: 300px;"" />
                   </div>","null","3","1","A","",""
"","","","","","html-button-response","70","503588","0.0-54.0","143A508813DA45C2852DC6A78FD99FC0","0199d67f-9806-7843-96b0-d93991388752","0199d675-8795-765b-adc2-c813de8cd3d1","","2708","
        <div style=""display: flex; justify-content: center; align-items: center;"">
          <img src=""images/red_deck_2.png"" style=""width: 300px; height: 300px; margin-right: 10px;"" />
          <img src=""images/blue_deck_1.png"" style=""width: 300px; height: 300px;"" />
        </div>","0","3","1","choice","0",""
"","","","","","html-keyboard-response","71","509604","0.0-55.0-0.0-0.0","143A508813DA45C2852DC6A78FD99FC0","0199d67f-9806-7843-96b0-d93991388752","0199d675-8795-765b-adc2-c813de8cd3d1","","null","<div style=""display: flex; justify-content: center; align-items: center;"">
                     <img src=""images/causal/causal_series_3/causal_series_3_b.png"" style=""width: 300px; height: 300px;"" />
                   </div>","null","3","1","B","",""
"","","","","","html-keyboard-response","72","515614","0.0-55.0-0.0-1.0","143A508813DA45C2852DC6A78FD99FC0","0199d67f-9806-7843-96b0-d93991388752","0199d675-8795-765b-adc2-c813de8cd3d1","","null","<div style=""display: flex; justify-content: center; align-items: center;"">
                     <img src=""images/causal/causal_series_3/causal_series_3_c.png"" style=""width: 300px; height: 300px;"" />
                   </div>","null","3","1","C","",""
"","","","","","html-keyboard-response","73","521618","0.0-55.0-0.0-2.0","143A508813DA45C2852DC6A78FD99FC0","0199d67f-9806-7843-96b0-d93991388752","0199d675-8795-765b-adc2-c813de8cd3d1","","null","<div style=""display: flex; justify-content: center; align-items: center;"">
                     <img src=""images/causal/causal_series_3/causal_series_3_d.png"" style=""width: 300px; height: 300px;"" />
                   </div>","null","3","1","D","",""
"","","","","","survey-likert","74","523060","0.0-56.0","143A508813DA45C2852DC6A78FD99FC0","0199d67f-9806-7843-96b0-d93991388752","0199d675-8795-765b-adc2-c813de8cd3d1","","1441","","{""Q0"":3}","3","1","surprise_rating","","[0]"
"","","","","","survey-likert","75","524194","0.0-57.0","143A508813DA45C2852DC6A78FD99FC0","0199d67f-9806-7843-96b0-d93991388752","0199d675-8795-765b-adc2-c813de8cd3d1","","1134","","{""Q0"":3}","3","1","enjoyment_rating","","[0]"
"","","","","","html-keyboard-response","76","530203","0.0-58.0","143A508813DA45C2852DC6A78FD99FC0","0199d67f-9806-7843-96b0-d93991388752","0199d675-8795-765b-adc2-c813de8cd3d1","","null","<div style=""display: flex; justify-content: center; align-items: center;"">
                     <img src=""images/other/blank.png"" style=""width: 300px; height: 300px;"" />
                   </div>","null","0","0","blank","",""
"","","","","","html-keyboard-response","77","536204","0.0-59.0","143A508813DA45C2852DC6A78FD99FC0","0199d67f-9806-7843-96b0-d93991388752","0199d675-8795-765b-adc2-c813de8cd3d1","","null","<div style=""display: flex; justify-content: center; align-items: center;"">
                     <img src=""images/causal/causal_series_10/causal_series_10_a.png"" style=""width: 300px; height: 300px;"" />
                   </div>","null","10","2","A","",""
"","","","","","html-button-response","78","536940","0.0-60.0","143A508813DA45C2852DC6A78FD99FC0","0199d67f-9806-7843-96b0-d93991388752","0199d675-8795-765b-adc2-c813de8cd3d1","","735","
        <div style=""display: flex; justify-content: center; align-items: center;"">
          <img src=""images/red_deck_2.png"" style=""width: 300px; height: 300px; margin-right: 10px;"" />
          <img src=""images/blue_deck_1.png"" style=""width: 300px; height: 300px;"" />
        </div>","0","10","2","choice","0",""
"","","","","","html-keyboard-response","79","542955","0.0-61.0-0.0-0.0","143A508813DA45C2852DC6A78FD99FC0","0199d67f-9806-7843-96b0-d93991388752","0199d675-8795-765b-adc2-c813de8cd3d1","","null","<div style=""display: flex; justify-content: center; align-items: center;"">
                     <img src=""images/causal/causal_series_10/causal_series_10_b.png"" style=""width: 300px; height: 300px;"" />
                   </div>","null","10","2","B","",""
"","","","","","html-keyboard-response","80","548967","0.0-61.0-0.0-1.0","143A508813DA45C2852DC6A78FD99FC0","0199d67f-9806-7843-96b0-d93991388752","0199d675-8795-765b-adc2-c813de8cd3d1","","null","<div style=""display: flex; justify-content: center; align-items: center;"">
                     <img src=""images/causal/causal_series_10/causal_series_10_c.png"" style=""width: 300px; height: 300px;"" />
                   </div>","null","10","2","C","",""
"","","","","","html-keyboard-response","81","554975","0.0-61.0-0.0-2.0","143A508813DA45C2852DC6A78FD99FC0","0199d67f-9806-7843-96b0-d93991388752","0199d675-8795-765b-adc2-c813de8cd3d1","","null","<div style=""display: flex; justify-content: center; align-items: center;"">
                     <img src=""images/causal/causal_series_10/causal_series_10_d.png"" style=""width: 300px; height: 300px;"" />
                   </div>","null","10","2","D","",""
"","","","","","survey-likert","82","559174","0.0-62.0","143A508813DA45C2852DC6A78FD99FC0","0199d67f-9806-7843-96b0-d93991388752","0199d675-8795-765b-adc2-c813de8cd3d1","","4198","","{""Q0"":0}","10","2","surprise_rating","","[0]"
"","","","","","survey-likert","83","560036","0.0-63.0","143A508813DA45C2852DC6A78FD99FC0","0199d67f-9806-7843-96b0-d93991388752","0199d675-8795-765b-adc2-c813de8cd3d1","","861","","{""Q0"":2}","10","2","enjoyment_rating","","[0]"
"","","","","","html-keyboard-response","84","566045","0.0-64.0","143A508813DA45C2852DC6A78FD99FC0","0199d67f-9806-7843-96b0-d93991388752","0199d675-8795-765b-adc2-c813de8cd3d1","","null","<div style=""display: flex; justify-content: center; align-items: center;"">
                     <img src=""images/other/blank.png"" style=""width: 300px; height: 300px;"" />
                   </div>","null","0","0","blank","",""
"","","","","","html-keyboard-response","85","572052","0.0-65.0","143A508813DA45C2852DC6A78FD99FC0","0199d67f-9806-7843-96b0-d93991388752","0199d675-8795-765b-adc2-c813de8cd3d1","","null","<div style=""display: flex; justify-content: center; align-items: center;"">
                     <img src=""images/causal/causal_series_10/causal_series_10_a.png"" style=""width: 300px; height: 300px;"" />
                   </div>","null","10","1","A","",""
"","","","","","html-button-response","86","573818","0.0-66.0","143A508813DA45C2852DC6A78FD99FC0","0199d67f-9806-7843-96b0-d93991388752","0199d675-8795-765b-adc2-c813de8cd3d1","","1765","
        <div style=""display: flex; justify-content: center; align-items: center;"">
          <img src=""images/red_deck_2.png"" style=""width: 300px; height: 300px; margin-right: 10px;"" />
          <img src=""images/blue_deck_1.png"" style=""width: 300px; height: 300px;"" />
        </div>","0","10","1","choice","0",""
"","","","","","html-keyboard-response","87","579823","0.0-67.0-0.0-0.0","143A508813DA45C2852DC6A78FD99FC0","0199d67f-9806-7843-96b0-d93991388752","0199d675-8795-765b-adc2-c813de8cd3d1","","null","<div style=""display: flex; justify-content: center; align-items: center;"">
                     <img src=""images/causal/causal_series_10/causal_series_10_b.png"" style=""width: 300px; height: 300px;"" />
                   </div>","null","10","1","B","",""
"","","","","","html-keyboard-response","88","585839","0.0-67.0-0.0-1.0","143A508813DA45C2852DC6A78FD99FC0","0199d67f-9806-7843-96b0-d93991388752","0199d675-8795-765b-adc2-c813de8cd3d1","","null","<div style=""display: flex; justify-content: center; align-items: center;"">
                     <img src=""images/causal/causal_series_10/causal_series_10_c.png"" style=""width: 300px; height: 300px;"" />
                   </div>","null","10","1","C","",""
"","","","","","html-keyboard-response","89","591841","0.0-67.0-0.0-2.0","143A508813DA45C2852DC6A78FD99FC0","0199d67f-9806-7843-96b0-d93991388752","0199d675-8795-765b-adc2-c813de8cd3d1","","null","<div style=""display: flex; justify-content: center; align-items: center;"">
                     <img src=""images/causal/causal_series_10/causal_series_10_d.png"" style=""width: 300px; height: 300px;"" />
                   </div>","null","10","1","D","",""
"","","","","","survey-likert","90","593400","0.0-68.0","143A508813DA45C2852DC6A78FD99FC0","0199d67f-9806-7843-96b0-d93991388752","0199d675-8795-765b-adc2-c813de8cd3d1","","1558","","{""Q0"":0}","10","1","surprise_rating","","[0]"
"","","","","","survey-likert","91","594576","0.0-69.0","143A508813DA45C2852DC6A78FD99FC0","0199d67f-9806-7843-96b0-d93991388752","0199d675-8795-765b-adc2-c813de8cd3d1","","1175","","{""Q0"":0}","10","1","enjoyment_rating","","[0]"
"","","","","","html-keyboard-response","92","600588","0.0-70.0","143A508813DA45C2852DC6A78FD99FC0","0199d67f-9806-7843-96b0-d93991388752","0199d675-8795-765b-adc2-c813de8cd3d1","","null","<div style=""display: flex; justify-content: center; align-items: center;"">
                     <img src=""images/other/blank.png"" style=""width: 300px; height: 300px;"" />
                   </div>","null","0","0","blank","",""
"","","","","","html-keyboard-response","93","606592","0.0-71.0","143A508813DA45C2852DC6A78FD99FC0","0199d67f-9806-7843-96b0-d93991388752","0199d675-8795-765b-adc2-c813de8cd3d1","","null","<div style=""display: flex; justify-content: center; align-items: center;"">
                     <img src=""images/causal/causal_series_8/causal_series_8_a.png"" style=""width: 300px; height: 300px;"" />
                   </div>","null","8","1","A","",""
"","","","","","html-button-response","94","607980","0.0-72.0","143A508813DA45C2852DC6A78FD99FC0","0199d67f-9806-7843-96b0-d93991388752","0199d675-8795-765b-adc2-c813de8cd3d1","","1387","
        <div style=""display: flex; justify-content: center; align-items: center;"">
          <img src=""images/red_deck_2.png"" style=""width: 300px; height: 300px; margin-right: 10px;"" />
          <img src=""images/blue_deck_1.png"" style=""width: 300px; height: 300px;"" />
        </div>","0","8","1","choice","0",""
"","","","","","html-keyboard-response","95","613992","0.0-73.0-0.0-0.0","143A508813DA45C2852DC6A78FD99FC0","0199d67f-9806-7843-96b0-d93991388752","0199d675-8795-765b-adc2-c813de8cd3d1","","null","<div style=""display: flex; justify-content: center; align-items: center;"">
                     <img src=""images/causal/causal_series_8/causal_series_8_b.png"" style=""width: 300px; height: 300px;"" />
                   </div>","null","8","1","B","",""
"","","","","","html-keyboard-response","96","619999","0.0-73.0-0.0-1.0","143A508813DA45C2852DC6A78FD99FC0","0199d67f-9806-7843-96b0-d93991388752","0199d675-8795-765b-adc2-c813de8cd3d1","","null","<div style=""display: flex; justify-content: center; align-items: center;"">
                     <img src=""images/causal/causal_series_8/causal_series_8_c.png"" style=""width: 300px; height: 300px;"" />
                   </div>","null","8","1","C","",""
"","","","","","html-keyboard-response","97","626006","0.0-73.0-0.0-2.0","143A508813DA45C2852DC6A78FD99FC0","0199d67f-9806-7843-96b0-d93991388752","0199d675-8795-765b-adc2-c813de8cd3d1","","null","<div style=""display: flex; justify-content: center; align-items: center;"">
                     <img src=""images/causal/causal_series_8/causal_series_8_d.png"" style=""width: 300px; height: 300px;"" />
                   </div>","null","8","1","D","",""
"","","","","","survey-likert","98","627306","0.0-74.0","143A508813DA45C2852DC6A78FD99FC0","0199d67f-9806-7843-96b0-d93991388752","0199d675-8795-765b-adc2-c813de8cd3d1","","1300","","{""Q0"":3}","8","1","surprise_rating","","[0]"
"","","","","","survey-likert","99","628525","0.0-75.0","143A508813DA45C2852DC6A78FD99FC0","0199d67f-9806-7843-96b0-d93991388752","0199d675-8795-765b-adc2-c813de8cd3d1","","1218","","{""Q0"":3}","8","1","enjoyment_rating","","[0]"
"","","","","","html-keyboard-response","100","634528","0.0-76.0","143A508813DA45C2852DC6A78FD99FC0","0199d67f-9806-7843-96b0-d93991388752","0199d675-8795-765b-adc2-c813de8cd3d1","","null","<div style=""display: flex; justify-content: center; align-items: center;"">
                     <img src=""images/other/blank.png"" style=""width: 300px; height: 300px;"" />
                   </div>","null","0","0","blank","",""
"","","","","","html-keyboard-response","101","640541","0.0-77.0","143A508813DA45C2852DC6A78FD99FC0","0199d67f-9806-7843-96b0-d93991388752","0199d675-8795-765b-adc2-c813de8cd3d1","","null","<div style=""display: flex; justify-content: center; align-items: center;"">
                     <img src=""images/causal/causal_series_2/causal_series_2_a.png"" style=""width: 300px; height: 300px;"" />
                   </div>","null","2","2","A","",""
"","","","","","html-button-response","102","641506","0.0-78.0","143A508813DA45C2852DC6A78FD99FC0","0199d67f-9806-7843-96b0-d93991388752","0199d675-8795-765b-adc2-c813de8cd3d1","","964","
        <div style=""display: flex; justify-content: center; align-items: center;"">
          <img src=""images/red_deck_2.png"" style=""width: 300px; height: 300px; margin-right: 10px;"" />
          <img src=""images/blue_deck_1.png"" style=""width: 300px; height: 300px;"" />
        </div>","0","2","2","choice","0",""
"","","","","","html-keyboard-response","103","647518","0.0-79.0-0.0-0.0","143A508813DA45C2852DC6A78FD99FC0","0199d67f-9806-7843-96b0-d93991388752","0199d675-8795-765b-adc2-c813de8cd3d1","","null","<div style=""display: flex; justify-content: center; align-items: center;"">
                     <img src=""images/causal/causal_series_2/causal_series_2_b.png"" style=""width: 300px; height: 300px;"" />
                   </div>","null","2","2","B","",""
"","","","","","html-keyboard-response","104","653525","0.0-79.0-0.0-1.0","143A508813DA45C2852DC6A78FD99FC0","0199d67f-9806-7843-96b0-d93991388752","0199d675-8795-765b-adc2-c813de8cd3d1","","null","<div style=""display: flex; justify-content: center; align-items: center;"">
                     <img src=""images/causal/causal_series_2/causal_series_2_c.png"" style=""width: 300px; height: 300px;"" />
                   </div>","null","2","2","C","",""
"","","","","","html-keyboard-response","105","659528","0.0-79.0-0.0-2.0","143A508813DA45C2852DC6A78FD99FC0","0199d67f-9806-7843-96b0-d93991388752","0199d675-8795-765b-adc2-c813de8cd3d1","","null","<div style=""display: flex; justify-content: center; align-items: center;"">
                     <img src=""images/causal/causal_series_2/causal_series_2_d.png"" style=""width: 300px; height: 300px;"" />
                   </div>","null","2","2","D","",""
"","","","","","survey-likert","106","660868","0.0-80.0","143A508813DA45C2852DC6A78FD99FC0","0199d67f-9806-7843-96b0-d93991388752","0199d675-8795-765b-adc2-c813de8cd3d1","","1339","","{""Q0"":0}","2","2","surprise_rating","","[0]"
"","","","","","survey-likert","107","661968","0.0-81.0","143A508813DA45C2852DC6A78FD99FC0","0199d67f-9806-7843-96b0-d93991388752","0199d675-8795-765b-adc2-c813de8cd3d1","","1100","","{""Q0"":1}","2","2","enjoyment_rating","","[0]"
"","","","","","html-keyboard-response","108","667969","0.0-82.0","143A508813DA45C2852DC6A78FD99FC0","0199d67f-9806-7843-96b0-d93991388752","0199d675-8795-765b-adc2-c813de8cd3d1","","null","<div style=""display: flex; justify-content: center; align-items: center;"">
                     <img src=""images/other/blank.png"" style=""width: 300px; height: 300px;"" />
                   </div>","null","0","0","blank","",""
"","","","","","html-keyboard-response","109","673980","0.0-83.0","143A508813DA45C2852DC6A78FD99FC0","0199d67f-9806-7843-96b0-d93991388752","0199d675-8795-765b-adc2-c813de8cd3d1","","null","<div style=""display: flex; justify-content: center; align-items: center;"">
                     <img src=""images/causal/causal_series_8/causal_series_8_a.png"" style=""width: 300px; height: 300px;"" />
                   </div>","null","8","2","A","",""
"","","","","","html-button-response","110","675170","0.0-84.0","143A508813DA45C2852DC6A78FD99FC0","0199d67f-9806-7843-96b0-d93991388752","0199d675-8795-765b-adc2-c813de8cd3d1","","1188","
        <div style=""display: flex; justify-content: center; align-items: center;"">
          <img src=""images/red_deck_2.png"" style=""width: 300px; height: 300px; margin-right: 10px;"" />
          <img src=""images/blue_deck_1.png"" style=""width: 300px; height: 300px;"" />
        </div>","0","8","2","choice","0",""
"","","","","","html-keyboard-response","111","681182","0.0-85.0-0.0-0.0","143A508813DA45C2852DC6A78FD99FC0","0199d67f-9806-7843-96b0-d93991388752","0199d675-8795-765b-adc2-c813de8cd3d1","","null","<div style=""display: flex; justify-content: center; align-items: center;"">
                     <img src=""images/causal/causal_series_8/causal_series_8_b.png"" style=""width: 300px; height: 300px;"" />
                   </div>","null","8","2","B","",""
"","","","","","html-keyboard-response","112","687192","0.0-85.0-0.0-1.0","143A508813DA45C2852DC6A78FD99FC0","0199d67f-9806-7843-96b0-d93991388752","0199d675-8795-765b-adc2-c813de8cd3d1","","null","<div style=""display: flex; justify-content: center; align-items: center;"">
                     <img src=""images/causal/causal_series_8/causal_series_8_c.png"" style=""width: 300px; height: 300px;"" />
                   </div>","null","8","2","C","",""
"","","","","","html-keyboard-response","113","693193","0.0-85.0-0.0-2.0","143A508813DA45C2852DC6A78FD99FC0","0199d67f-9806-7843-96b0-d93991388752","0199d675-8795-765b-adc2-c813de8cd3d1","","null","<div style=""display: flex; justify-content: center; align-items: center;"">
                     <img src=""images/causal/causal_series_8/causal_series_8_d.png"" style=""width: 300px; height: 300px;"" />
                   </div>","null","8","2","D","",""
"","","","","","survey-likert","114","697750","0.0-86.0","143A508813DA45C2852DC6A78FD99FC0","0199d67f-9806-7843-96b0-d93991388752","0199d675-8795-765b-adc2-c813de8cd3d1","","4556","","{""Q0"":0}","8","2","surprise_rating","","[0]"
"","","","","","survey-likert","115","698974","0.0-87.0","143A508813DA45C2852DC6A78FD99FC0","0199d67f-9806-7843-96b0-d93991388752","0199d675-8795-765b-adc2-c813de8cd3d1","","1223","","{""Q0"":0}","8","2","enjoyment_rating","","[0]"
"","","","","","html-keyboard-response","116","704987","0.0-88.0","143A508813DA45C2852DC6A78FD99FC0","0199d67f-9806-7843-96b0-d93991388752","0199d675-8795-765b-adc2-c813de8cd3d1","","null","<div style=""display: flex; justify-content: center; align-items: center;"">
                     <img src=""images/other/blank.png"" style=""width: 300px; height: 300px;"" />
                   </div>","null","0","0","blank","",""
"","","","","","html-keyboard-response","117","710995","0.0-89.0","143A508813DA45C2852DC6A78FD99FC0","0199d67f-9806-7843-96b0-d93991388752","0199d675-8795-765b-adc2-c813de8cd3d1","","null","<div style=""display: flex; justify-content: center; align-items: center;"">
                     <img src=""images/causal/causal_series_3/causal_series_3_a.png"" style=""width: 300px; height: 300px;"" />
                   </div>","null","3","2","A","",""
"","","","","","html-button-response","118","712626","0.0-90.0","143A508813DA45C2852DC6A78FD99FC0","0199d67f-9806-7843-96b0-d93991388752","0199d675-8795-765b-adc2-c813de8cd3d1","","1630","
        <div style=""display: flex; justify-content: center; align-items: center;"">
          <img src=""images/red_deck_2.png"" style=""width: 300px; height: 300px; margin-right: 10px;"" />
          <img src=""images/blue_deck_1.png"" style=""width: 300px; height: 300px;"" />
        </div>","0","3","2","choice","0",""
"","","","","","html-keyboard-response","119","718632","0.0-91.0-0.0-0.0","143A508813DA45C2852DC6A78FD99FC0","0199d67f-9806-7843-96b0-d93991388752","0199d675-8795-765b-adc2-c813de8cd3d1","","null","<div style=""display: flex; justify-content: center; align-items: center;"">
                     <img src=""images/causal/causal_series_3/causal_series_3_b.png"" style=""width: 300px; height: 300px;"" />
                   </div>","null","3","2","B","",""
"","","","","","html-keyboard-response","120","724643","0.0-91.0-0.0-1.0","143A508813DA45C2852DC6A78FD99FC0","0199d67f-9806-7843-96b0-d93991388752","0199d675-8795-765b-adc2-c813de8cd3d1","","null","<div style=""display: flex; justify-content: center; align-items: center;"">
                     <img src=""images/causal/causal_series_3/causal_series_3_c.png"" style=""width: 300px; height: 300px;"" />
                   </div>","null","3","2","C","",""
"","","","","","html-keyboard-response","121","730650","0.0-91.0-0.0-2.0","143A508813DA45C2852DC6A78FD99FC0","0199d67f-9806-7843-96b0-d93991388752","0199d675-8795-765b-adc2-c813de8cd3d1","","null","<div style=""display: flex; justify-content: center; align-items: center;"">
                     <img src=""images/causal/causal_series_3/causal_series_3_d.png"" style=""width: 300px; height: 300px;"" />
                   </div>","null","3","2","D","",""
"","","","","","survey-likert","122","733858","0.0-92.0","143A508813DA45C2852DC6A78FD99FC0","0199d67f-9806-7843-96b0-d93991388752","0199d675-8795-765b-adc2-c813de8cd3d1","","3207","","{""Q0"":0}","3","2","surprise_rating","","[0]"
"","","","","","survey-likert","123","735061","0.0-93.0","143A508813DA45C2852DC6A78FD99FC0","0199d67f-9806-7843-96b0-d93991388752","0199d675-8795-765b-adc2-c813de8cd3d1","","1203","","{""Q0"":2}","3","2","enjoyment_rating","","[0]"
"","","","","","html-keyboard-response","124","741075","0.0-94.0","143A508813DA45C2852DC6A78FD99FC0","0199d67f-9806-7843-96b0-d93991388752","0199d675-8795-765b-adc2-c813de8cd3d1","","null","<div style=""display: flex; justify-content: center; align-items: center;"">
                     <img src=""images/other/blank.png"" style=""width: 300px; height: 300px;"" />
                   </div>","null","0","0","blank","",""
"","","","","","html-keyboard-response","125","747087","0.0-95.0","143A508813DA45C2852DC6A78FD99FC0","0199d67f-9806-7843-96b0-d93991388752","0199d675-8795-765b-adc2-c813de8cd3d1","","null","<div style=""display: flex; justify-content: center; align-items: center;"">
                     <img src=""images/causal/causal_series_6/causal_series_6_a.png"" style=""width: 300px; height: 300px;"" />
                   </div>","null","6","2","A","",""
"","","","","","html-button-response","126","753407","0.0-96.0","143A508813DA45C2852DC6A78FD99FC0","0199d67f-9806-7843-96b0-d93991388752","0199d675-8795-765b-adc2-c813de8cd3d1","","6320","
        <div style=""display: flex; justify-content: center; align-items: center;"">
          <img src=""images/red_deck_2.png"" style=""width: 300px; height: 300px; margin-right: 10px;"" />
          <img src=""images/blue_deck_1.png"" style=""width: 300px; height: 300px;"" />
        </div>","0","6","2","choice","0",""
"","","","","","html-keyboard-response","127","759424","0.0-97.0-0.0-0.0","143A508813DA45C2852DC6A78FD99FC0","0199d67f-9806-7843-96b0-d93991388752","0199d675-8795-765b-adc2-c813de8cd3d1","","null","<div style=""display: flex; justify-content: center; align-items: center;"">
                     <img src=""images/causal/causal_series_6/causal_series_6_b.png"" style=""width: 300px; height: 300px;"" />
                   </div>","null","6","2","B","",""
"","","","","","html-keyboard-response","128","765438","0.0-97.0-0.0-1.0","143A508813DA45C2852DC6A78FD99FC0","0199d67f-9806-7843-96b0-d93991388752","0199d675-8795-765b-adc2-c813de8cd3d1","","null","<div style=""display: flex; justify-content: center; align-items: center;"">
                     <img src=""images/causal/causal_series_6/causal_series_6_c.png"" style=""width: 300px; height: 300px;"" />
                   </div>","null","6","2","C","",""
"","","","","","html-keyboard-response","129","771439","0.0-97.0-0.0-2.0","143A508813DA45C2852DC6A78FD99FC0","0199d67f-9806-7843-96b0-d93991388752","0199d675-8795-765b-adc2-c813de8cd3d1","","null","<div style=""display: flex; justify-content: center; align-items: center;"">
                     <img src=""images/causal/causal_series_6/causal_series_6_d.png"" style=""width: 300px; height: 300px;"" />
                   </div>","null","6","2","D","",""
"","","","","","survey-likert","130","773356","0.0-98.0","143A508813DA45C2852DC6A78FD99FC0","0199d67f-9806-7843-96b0-d93991388752","0199d675-8795-765b-adc2-c813de8cd3d1","","1916","","{""Q0"":2}","6","2","surprise_rating","","[0]"
"","","","","","survey-likert","131","775081","0.0-99.0","143A508813DA45C2852DC6A78FD99FC0","0199d67f-9806-7843-96b0-d93991388752","0199d675-8795-765b-adc2-c813de8cd3d1","","1725","","{""Q0"":2}","6","2","enjoyment_rating","","[0]"
"","","","","","html-keyboard-response","132","781094","0.0-100.0","143A508813DA45C2852DC6A78FD99FC0","0199d67f-9806-7843-96b0-d93991388752","0199d675-8795-765b-adc2-c813de8cd3d1","","null","<div style=""display: flex; justify-content: center; align-items: center;"">
                     <img src=""images/other/blank.png"" style=""width: 300px; height: 300px;"" />
                   </div>","null","0","0","blank","",""
"","","","","","html-keyboard-response","133","787097","0.0-101.0","143A508813DA45C2852DC6A78FD99FC0","0199d67f-9806-7843-96b0-d93991388752","0199d675-8795-765b-adc2-c813de8cd3d1","","null","<div style=""display: flex; justify-content: center; align-items: center;"">
                     <img src=""images/causal/causal_series_9/causal_series_9_a.png"" style=""width: 300px; height: 300px;"" />
                   </div>","null","9","1","A","",""
"","","","","","html-button-response","134","788211","0.0-102.0","143A508813DA45C2852DC6A78FD99FC0","0199d67f-9806-7843-96b0-d93991388752","0199d675-8795-765b-adc2-c813de8cd3d1","","1113","
        <div style=""display: flex; justify-content: center; align-items: center;"">
          <img src=""images/red_deck_2.png"" style=""width: 300px; height: 300px; margin-right: 10px;"" />
          <img src=""images/blue_deck_1.png"" style=""width: 300px; height: 300px;"" />
        </div>","0","9","1","choice","0",""
"","","","","","html-keyboard-response","135","794226","0.0-103.0-0.0-0.0","143A508813DA45C2852DC6A78FD99FC0","0199d67f-9806-7843-96b0-d93991388752","0199d675-8795-765b-adc2-c813de8cd3d1","","null","<div style=""display: flex; justify-content: center; align-items: center;"">
                     <img src=""images/causal/causal_series_9/causal_series_9_b.png"" style=""width: 300px; height: 300px;"" />
                   </div>","null","9","1","B","",""
"","","","","","html-keyboard-response","136","800240","0.0-103.0-0.0-1.0","143A508813DA45C2852DC6A78FD99FC0","0199d67f-9806-7843-96b0-d93991388752","0199d675-8795-765b-adc2-c813de8cd3d1","","null","<div style=""display: flex; justify-content: center; align-items: center;"">
                     <img src=""images/causal/causal_series_9/causal_series_9_c.png"" style=""width: 300px; height: 300px;"" />
                   </div>","null","9","1","C","",""
"","","","","","html-keyboard-response","137","806251","0.0-103.0-0.0-2.0","143A508813DA45C2852DC6A78FD99FC0","0199d67f-9806-7843-96b0-d93991388752","0199d675-8795-765b-adc2-c813de8cd3d1","","null","<div style=""display: flex; justify-content: center; align-items: center;"">
                     <img src=""images/causal/causal_series_9/causal_series_9_d.png"" style=""width: 300px; height: 300px;"" />
                   </div>","null","9","1","D","",""
"","","","","","survey-likert","138","808328","0.0-104.0","143A508813DA45C2852DC6A78FD99FC0","0199d67f-9806-7843-96b0-d93991388752","0199d675-8795-765b-adc2-c813de8cd3d1","","2076","","{""Q0"":3}","9","1","surprise_rating","","[0]"
"","","","","","survey-likert","139","810852","0.0-105.0","143A508813DA45C2852DC6A78FD99FC0","0199d67f-9806-7843-96b0-d93991388752","0199d675-8795-765b-adc2-c813de8cd3d1","","2523","","{""Q0"":4}","9","1","enjoyment_rating","","[0]"
"","","","","","html-keyboard-response","140","816856","0.0-106.0","143A508813DA45C2852DC6A78FD99FC0","0199d67f-9806-7843-96b0-d93991388752","0199d675-8795-765b-adc2-c813de8cd3d1","","null","<div style=""display: flex; justify-content: center; align-items: center;"">
                     <img src=""images/other/blank.png"" style=""width: 300px; height: 300px;"" />
                   </div>","null","0","0","blank","",""
"","","","","","html-keyboard-response","141","822859","0.0-107.0","143A508813DA45C2852DC6A78FD99FC0","0199d67f-9806-7843-96b0-d93991388752","0199d675-8795-765b-adc2-c813de8cd3d1","","null","<div style=""display: flex; justify-content: center; align-items: center;"">
                     <img src=""images/causal/causal_series_7/causal_series_7_a.png"" style=""width: 300px; height: 300px;"" />
                   </div>","null","7","2","A","",""
"","","","","","html-button-response","142","823360","0.0-108.0","143A508813DA45C2852DC6A78FD99FC0","0199d67f-9806-7843-96b0-d93991388752","0199d675-8795-765b-adc2-c813de8cd3d1","","499","
        <div style=""display: flex; justify-content: center; align-items: center;"">
          <img src=""images/red_deck_2.png"" style=""width: 300px; height: 300px; margin-right: 10px;"" />
          <img src=""images/blue_deck_1.png"" style=""width: 300px; height: 300px;"" />
        </div>","0","7","2","choice","0",""
"","","","","","html-keyboard-response","143","829376","0.0-109.0-0.0-0.0","143A508813DA45C2852DC6A78FD99FC0","0199d67f-9806-7843-96b0-d93991388752","0199d675-8795-765b-adc2-c813de8cd3d1","","null","<div style=""display: flex; justify-content: center; align-items: center;"">
                     <img src=""images/causal/causal_series_7/causal_series_7_b.png"" style=""width: 300px; height: 300px;"" />
                   </div>","null","7","2","B","",""
"","","","","","html-keyboard-response","144","835378","0.0-109.0-0.0-1.0","143A508813DA45C2852DC6A78FD99FC0","0199d67f-9806-7843-96b0-d93991388752","0199d675-8795-765b-adc2-c813de8cd3d1","","null","<div style=""display: flex; justify-content: center; align-items: center;"">
                     <img src=""images/causal/causal_series_7/causal_series_7_c.png"" style=""width: 300px; height: 300px;"" />
                   </div>","null","7","2","C","",""
"","","","","","html-keyboard-response","145","841390","0.0-109.0-0.0-2.0","143A508813DA45C2852DC6A78FD99FC0","0199d67f-9806-7843-96b0-d93991388752","0199d675-8795-765b-adc2-c813de8cd3d1","","null","<div style=""display: flex; justify-content: center; align-items: center;"">
                     <img src=""images/causal/causal_series_7/causal_series_7_d.png"" style=""width: 300px; height: 300px;"" />
                   </div>","null","7","2","D","",""
"","","","","","survey-likert","146","843374","0.0-110.0","143A508813DA45C2852DC6A78FD99FC0","0199d67f-9806-7843-96b0-d93991388752","0199d675-8795-765b-adc2-c813de8cd3d1","","1983","","{""Q0"":0}","7","2","surprise_rating","","[0]"
"","","","","","survey-likert","147","844303","0.0-111.0","143A508813DA45C2852DC6A78FD99FC0","0199d67f-9806-7843-96b0-d93991388752","0199d675-8795-765b-adc2-c813de8cd3d1","","929","","{""Q0"":0}","7","2","enjoyment_rating","","[0]"
"","","","","","html-keyboard-response","148","850319","0.0-112.0","143A508813DA45C2852DC6A78FD99FC0","0199d67f-9806-7843-96b0-d93991388752","0199d675-8795-765b-adc2-c813de8cd3d1","","null","<div style=""display: flex; justify-content: center; align-items: center;"">
                     <img src=""images/other/blank.png"" style=""width: 300px; height: 300px;"" />
                   </div>","null","0","0","blank","",""
"","","","","","html-keyboard-response","149","856332","0.0-113.0","143A508813DA45C2852DC6A78FD99FC0","0199d67f-9806-7843-96b0-d93991388752","0199d675-8795-765b-adc2-c813de8cd3d1","","null","<div style=""display: flex; justify-content: center; align-items: center;"">
                     <img src=""images/causal/causal_series_4/causal_series_4_a.png"" style=""width: 300px; height: 300px;"" />
                   </div>","null","4","1","A","",""
"","","","","","html-button-response","150","857990","0.0-114.0","143A508813DA45C2852DC6A78FD99FC0","0199d67f-9806-7843-96b0-d93991388752","0199d675-8795-765b-adc2-c813de8cd3d1","","1657","
        <div style=""display: flex; justify-content: center; align-items: center;"">
          <img src=""images/red_deck_2.png"" style=""width: 300px; height: 300px; margin-right: 10px;"" />
          <img src=""images/blue_deck_1.png"" style=""width: 300px; height: 300px;"" />
        </div>","0","4","1","choice","0",""
"","","","","","html-keyboard-response","151","863991","0.0-115.0-0.0-0.0","143A508813DA45C2852DC6A78FD99FC0","0199d67f-9806-7843-96b0-d93991388752","0199d675-8795-765b-adc2-c813de8cd3d1","","null","<div style=""display: flex; justify-content: center; align-items: center;"">
                     <img src=""images/causal/causal_series_4/causal_series_4_b.png"" style=""width: 300px; height: 300px;"" />
                   </div>","null","4","1","B","",""
"","","","","","html-keyboard-response","152","870004","0.0-115.0-0.0-1.0","143A508813DA45C2852DC6A78FD99FC0","0199d67f-9806-7843-96b0-d93991388752","0199d675-8795-765b-adc2-c813de8cd3d1","","null","<div style=""display: flex; justify-content: center; align-items: center;"">
                     <img src=""images/causal/causal_series_4/causal_series_4_c.png"" style=""width: 300px; height: 300px;"" />
                   </div>","null","4","1","C","",""
"","","","","","html-keyboard-response","153","876018","0.0-115.0-0.0-2.0","143A508813DA45C2852DC6A78FD99FC0","0199d67f-9806-7843-96b0-d93991388752","0199d675-8795-765b-adc2-c813de8cd3d1","","null","<div style=""display: flex; justify-content: center; align-items: center;"">
                     <img src=""images/causal/causal_series_4/causal_series_4_d.png"" style=""width: 300px; height: 300px;"" />
                   </div>","null","4","1","D","",""
"","","","","","survey-likert","154","877038","0.0-116.0","143A508813DA45C2852DC6A78FD99FC0","0199d67f-9806-7843-96b0-d93991388752","0199d675-8795-765b-adc2-c813de8cd3d1","","1019","","{""Q0"":0}","4","1","surprise_rating","","[0]"
"","","","","","survey-likert","155","878045","0.0-117.0","143A508813DA45C2852DC6A78FD99FC0","0199d67f-9806-7843-96b0-d93991388752","0199d675-8795-765b-adc2-c813de8cd3d1","","1007","","{""Q0"":0}","4","1","enjoyment_rating","","[0]"
"","","","","","html-keyboard-response","156","884060","0.0-118.0","143A508813DA45C2852DC6A78FD99FC0","0199d67f-9806-7843-96b0-d93991388752","0199d675-8795-765b-adc2-c813de8cd3d1","","null","<div style=""display: flex; justify-content: center; align-items: center;"">
                     <img src=""images/other/blank.png"" style=""width: 300px; height: 300px;"" />
                   </div>","null","0","0","blank","",""
"","","","","","html-keyboard-response","157","890075","0.0-119.0","143A508813DA45C2852DC6A78FD99FC0","0199d67f-9806-7843-96b0-d93991388752","0199d675-8795-765b-adc2-c813de8cd3d1","","null","<div style=""display: flex; justify-content: center; align-items: center;"">
                     <img src=""images/causal/causal_series_6/causal_series_6_a.png"" style=""width: 300px; height: 300px;"" />
                   </div>","null","6","1","A","",""
"","","","","","html-button-response","158","907179","0.0-120.0","143A508813DA45C2852DC6A78FD99FC0","0199d67f-9806-7843-96b0-d93991388752","0199d675-8795-765b-adc2-c813de8cd3d1","","17103","
        <div style=""display: flex; justify-content: center; align-items: center;"">
          <img src=""images/red_deck_2.png"" style=""width: 300px; height: 300px; margin-right: 10px;"" />
          <img src=""images/blue_deck_1.png"" style=""width: 300px; height: 300px;"" />
        </div>","0","6","1","choice","0",""
"","","","","","html-keyboard-response","159","913185","0.0-121.0-0.0-0.0","143A508813DA45C2852DC6A78FD99FC0","0199d67f-9806-7843-96b0-d93991388752","0199d675-8795-765b-adc2-c813de8cd3d1","","null","<div style=""display: flex; justify-content: center; align-items: center;"">
                     <img src=""images/causal/causal_series_6/causal_series_6_b.png"" style=""width: 300px; height: 300px;"" />
                   </div>","null","6","1","B","",""
"","","","","","html-keyboard-response","160","919194","0.0-121.0-0.0-1.0","143A508813DA45C2852DC6A78FD99FC0","0199d67f-9806-7843-96b0-d93991388752","0199d675-8795-765b-adc2-c813de8cd3d1","","null","<div style=""display: flex; justify-content: center; align-items: center;"">
                     <img src=""images/causal/causal_series_6/causal_series_6_c.png"" style=""width: 300px; height: 300px;"" />
                   </div>","null","6","1","C","",""
"","","","","","html-keyboard-response","161","925209","0.0-121.0-0.0-2.0","143A508813DA45C2852DC6A78FD99FC0","0199d67f-9806-7843-96b0-d93991388752","0199d675-8795-765b-adc2-c813de8cd3d1","","null","<div style=""display: flex; justify-content: center; align-items: center;"">
                     <img src=""images/causal/causal_series_6/causal_series_6_d.png"" style=""width: 300px; height: 300px;"" />
                   </div>","null","6","1","D","",""
"","","","","","survey-likert","162","927603","0.0-122.0","143A508813DA45C2852DC6A78FD99FC0","0199d67f-9806-7843-96b0-d93991388752","0199d675-8795-765b-adc2-c813de8cd3d1","","2394","","{""Q0"":0}","6","1","surprise_rating","","[0]"
"","","","","","survey-likert","163","929819","0.0-123.0","143A508813DA45C2852DC6A78FD99FC0","0199d67f-9806-7843-96b0-d93991388752","0199d675-8795-765b-adc2-c813de8cd3d1","","2215","","{""Q0"":2}","6","1","enjoyment_rating","","[0]"
"","","","","","html-keyboard-response","164","935826","0.0-124.0","143A508813DA45C2852DC6A78FD99FC0","0199d67f-9806-7843-96b0-d93991388752","0199d675-8795-765b-adc2-c813de8cd3d1","","null","<div style=""display: flex; justify-content: center; align-items: center;"">
                     <img src=""images/other/blank.png"" style=""width: 300px; height: 300px;"" />
                   </div>","null","0","0","blank","",""
"","","","","","survey-text","165","946554","0.0-125.0","143A508813DA45C2852DC6A78FD99FC0","0199d67f-9806-7843-96b0-d93991388752","0199d675-8795-765b-adc2-c813de8cd3d1","","10726","","{""Q0"":""Unrelated events vs story""}","","","","",""
"","","","","","html-button-response","166","950683","0.0-126.0","143A508813DA45C2852DC6A78FD99FC0","0199d67f-9806-7843-96b0-d93991388752","0199d675-8795-765b-adc2-c813de8cd3d1","","4128","Which color deck do the following sentences continue the story from?","0","","","","",""
"","","","","","html-button-response","167","951902","0.0-127.0","143A508813DA45C2852DC6A78FD99FC0","0199d67f-9806-7843-96b0-d93991388752","0199d675-8795-765b-adc2-c813de8cd3d1","","1218","Which color deck do the following sentences NOT follow the story from?","1","","","","",""
"","","","","","html-button-response","168","953903","0.0-128.0","143A508813DA45C2852DC6A78FD99FC0","0199d67f-9806-7843-96b0-d93991388752","0199d675-8795-765b-adc2-c813de8cd3d1","","2001","Which type of deck did you prefer overall?","1","","","","",""
"","","","","","survey-text","169","958341","0.0-129.0","143A508813DA45C2852DC6A78FD99FC0","0199d67f-9806-7843-96b0-d93991388752","0199d675-8795-765b-adc2-c813de8cd3d1","","4436","","{""Q0"":""Male"",""Q1"":""24""}","","","","",""
"","","","","","instructions","170","961744","0.0-130.0","143A508813DA45C2852DC6A78FD99FC0","0199d67f-9806-7843-96b0-d93991388752","0199d675-8795-765b-adc2-c813de8cd3d1","[{""page_index"":0,""viewing_time"":3402}]","3402","","","","","","",""
