"success","timeout","failed_images","failed_audio","failed_video","trial_type","trial_index","time_elapsed","internal_node_id","subject_id","study_id","session_id","view_history","rt","stimulus","response","choice"
"true","false","[]","[]","[]","preload","0","36329","0.0-0.0","91AB7940965145ABA4FBD55A504CC349","0199b0b5-09c7-7f56-bc66-ffa0a4395a74","0199b0a1-e458-7c09-8b8a-a795043d6e93","","","","",""
"","","","","","instructions","1","48015","0.0-1.0","91AB7940965145ABA4FBD55A504CC349","0199b0b5-09c7-7f56-bc66-ffa0a4395a74","0199b0a1-e458-7c09-8b8a-a795043d6e93","[{""page_index"":0,""viewing_time"":11682}]","11683","","",""
"","","","","","instructions","2","366344","0.0-2.0","91AB7940965145ABA4FBD55A504CC349","0199b0b5-09c7-7f56-bc66-ffa0a4395a74","0199b0a1-e458-7c09-8b8a-a795043d6e93","[{""page_index"":0,""viewing_time"":318327}]","318328","","",""
"true","","","","","fullscreen","3","374594","0.0-3.0","91AB7940965145ABA4FBD55A504CC349","0199b0b5-09c7-7f56-bc66-ffa0a4395a74","0199b0a1-e458-7c09-8b8a-a795043d6e93","","7240","","",""
"","","","","","instructions","4","401199","0.0-4.0","91AB7940965145ABA4FBD55A504CC349","0199b0b5-09c7-7f56-bc66-ffa0a4395a74","0199b0a1-e458-7c09-8b8a-a795043d6e93","[{""page_index"":0,""viewing_time"":26601}]","26602","","",""
"","","","","","html-keyboard-response","5","408206","0.0-5.0","91AB7940965145ABA4FBD55A504CC349","0199b0b5-09c7-7f56-bc66-ffa0a4395a74","0199b0a1-e458-7c09-8b8a-a795043d6e93","","null","<div style=""display: flex; justify-content: center; align-items: center;"">
                     <img src=""images/causal/causal_series_10/causal_series_10_a.png"" style=""width: 300px; height: 300px;"" />
                   </div>","null",""
"","","","","","html-button-response","6","418647","0.0-6.0","91AB7940965145ABA4FBD55A504CC349","0199b0b5-09c7-7f56-bc66-ffa0a4395a74","0199b0a1-e458-7c09-8b8a-a795043d6e93","","10438","
        <div style=""display: flex; justify-content: center; align-items: center;"">
          <img src=""images/red_deck_2.png"" style=""width: 300px; height: 300px; margin-right: 10px;"" />
          <img src=""images/blue_deck_1.png"" style=""width: 300px; height: 300px;"" />
        </div>","0","0"
"","","","","","html-keyboard-response","7","425660","0.0-7.0-0.0-0.0","91AB7940965145ABA4FBD55A504CC349","0199b0b5-09c7-7f56-bc66-ffa0a4395a74","0199b0a1-e458-7c09-8b8a-a795043d6e93","","null","<div style=""display: flex; justify-content: center; align-items: center;"">
                     <img src=""images/causal/causal_series_10/causal_series_10_b.png"" style=""width: 300px; height: 300px;"" />
                   </div>","null",""
"","","","","","html-keyboard-response","8","432674","0.0-7.0-0.0-1.0","91AB7940965145ABA4FBD55A504CC349","0199b0b5-09c7-7f56-bc66-ffa0a4395a74","0199b0a1-e458-7c09-8b8a-a795043d6e93","","null","<div style=""display: flex; justify-content: center; align-items: center;"">
                     <img src=""images/causal/causal_series_10/causal_series_10_c.png"" style=""width: 300px; height: 300px;"" />
                   </div>","null",""
"","","","","","html-keyboard-response","9","439686","0.0-7.0-0.0-2.0","91AB7940965145ABA4FBD55A504CC349","0199b0b5-09c7-7f56-bc66-ffa0a4395a74","0199b0a1-e458-7c09-8b8a-a795043d6e93","","null","<div style=""display: flex; justify-content: center; align-items: center;"">
                     <img src=""images/causal/causal_series_10/causal_series_10_d.png"" style=""width: 300px; height: 300px;"" />
                   </div>","null",""
"","","","","","html-keyboard-response","10","446694","0.0-8.0","91AB7940965145ABA4FBD55A504CC349","0199b0b5-09c7-7f56-bc66-ffa0a4395a74","0199b0a1-e458-7c09-8b8a-a795043d6e93","","null","<div style=""display: flex; justify-content: center; align-items: center;"">
                     <img src=""images/other/blank.png"" style=""width: 300px; height: 300px;"" />
                   </div>","null",""
"","","","","","html-keyboard-response","11","453709","0.0-9.0","91AB7940965145ABA4FBD55A504CC349","0199b0b5-09c7-7f56-bc66-ffa0a4395a74","0199b0a1-e458-7c09-8b8a-a795043d6e93","","null","<div style=""display: flex; justify-content: center; align-items: center;"">
                     <img src=""images/causal/causal_series_6/causal_series_6_a.png"" style=""width: 300px; height: 300px;"" />
                   </div>","null",""
"","","","","","html-button-response","12","456387","0.0-10.0","91AB7940965145ABA4FBD55A504CC349","0199b0b5-09c7-7f56-bc66-ffa0a4395a74","0199b0a1-e458-7c09-8b8a-a795043d6e93","","2676","
        <div style=""display: flex; justify-content: center; align-items: center;"">
          <img src=""images/red_deck_2.png"" style=""width: 300px; height: 300px; margin-right: 10px;"" />
          <img src=""images/blue_deck_1.png"" style=""width: 300px; height: 300px;"" />
        </div>","1","1"
"","","","","","html-keyboard-response","13","463406","0.0-11.0-1.0-0.0","91AB7940965145ABA4FBD55A504CC349","0199b0b5-09c7-7f56-bc66-ffa0a4395a74","0199b0a1-e458-7c09-8b8a-a795043d6e93","","null","<div style=""display: flex; justify-content: center; align-items: center;"">
                     <img src=""images/semantic/semantic_series_6/semantic_series_6_b.png"" style=""width: 300px; height: 300px;"" />
                   </div>","null",""
"","","","","","html-keyboard-response","14","470413","0.0-11.0-1.0-1.0","91AB7940965145ABA4FBD55A504CC349","0199b0b5-09c7-7f56-bc66-ffa0a4395a74","0199b0a1-e458-7c09-8b8a-a795043d6e93","","null","<div style=""display: flex; justify-content: center; align-items: center;"">
                     <img src=""images/semantic/semantic_series_6/semantic_series_6_c.png"" style=""width: 300px; height: 300px;"" />
                   </div>","null",""
"","","","","","html-keyboard-response","15","477420","0.0-11.0-1.0-2.0","91AB7940965145ABA4FBD55A504CC349","0199b0b5-09c7-7f56-bc66-ffa0a4395a74","0199b0a1-e458-7c09-8b8a-a795043d6e93","","null","<div style=""display: flex; justify-content: center; align-items: center;"">
                     <img src=""images/semantic/semantic_series_6/semantic_series_6_d.png"" style=""width: 300px; height: 300px;"" />
                   </div>","null",""
"","","","","","html-keyboard-response","16","484428","0.0-12.0","91AB7940965145ABA4FBD55A504CC349","0199b0b5-09c7-7f56-bc66-ffa0a4395a74","0199b0a1-e458-7c09-8b8a-a795043d6e93","","null","<div style=""display: flex; justify-content: center; align-items: center;"">
                     <img src=""images/other/blank.png"" style=""width: 300px; height: 300px;"" />
                   </div>","null",""
"","","","","","html-keyboard-response","17","491441","0.0-13.0","91AB7940965145ABA4FBD55A504CC349","0199b0b5-09c7-7f56-bc66-ffa0a4395a74","0199b0a1-e458-7c09-8b8a-a795043d6e93","","null","<div style=""display: flex; justify-content: center; align-items: center;"">
                     <img src=""images/causal/causal_series_7/causal_series_7_a.png"" style=""width: 300px; height: 300px;"" />
                   </div>","null",""
"","","","","","html-button-response","18","497149","0.0-14.0","91AB7940965145ABA4FBD55A504CC349","0199b0b5-09c7-7f56-bc66-ffa0a4395a74","0199b0a1-e458-7c09-8b8a-a795043d6e93","","5705","
        <div style=""display: flex; justify-content: center; align-items: center;"">
          <img src=""images/red_deck_2.png"" style=""width: 300px; height: 300px; margin-right: 10px;"" />
          <img src=""images/blue_deck_1.png"" style=""width: 300px; height: 300px;"" />
        </div>","0","0"
"","","","","","html-keyboard-response","19","504161","0.0-15.0-0.0-0.0","91AB7940965145ABA4FBD55A504CC349","0199b0b5-09c7-7f56-bc66-ffa0a4395a74","0199b0a1-e458-7c09-8b8a-a795043d6e93","","null","<div style=""display: flex; justify-content: center; align-items: center;"">
                     <img src=""images/causal/causal_series_7/causal_series_7_b.png"" style=""width: 300px; height: 300px;"" />
                   </div>","null",""
"","","","","","html-keyboard-response","20","511173","0.0-15.0-0.0-1.0","91AB7940965145ABA4FBD55A504CC349","0199b0b5-09c7-7f56-bc66-ffa0a4395a74","0199b0a1-e458-7c09-8b8a-a795043d6e93","","null","<div style=""display: flex; justify-content: center; align-items: center;"">
                     <img src=""images/causal/causal_series_7/causal_series_7_c.png"" style=""width: 300px; height: 300px;"" />
                   </div>","null",""
"","","","","","html-keyboard-response","21","518177","0.0-15.0-0.0-2.0","91AB7940965145ABA4FBD55A504CC349","0199b0b5-09c7-7f56-bc66-ffa0a4395a74","0199b0a1-e458-7c09-8b8a-a795043d6e93","","null","<div style=""display: flex; justify-content: center; align-items: center;"">
                     <img src=""images/causal/causal_series_7/causal_series_7_d.png"" style=""width: 300px; height: 300px;"" />
                   </div>","null",""
"","","","","","html-keyboard-response","22","525188","0.0-16.0","91AB7940965145ABA4FBD55A504CC349","0199b0b5-09c7-7f56-bc66-ffa0a4395a74","0199b0a1-e458-7c09-8b8a-a795043d6e93","","null","<div style=""display: flex; justify-content: center; align-items: center;"">
                     <img src=""images/other/blank.png"" style=""width: 300px; height: 300px;"" />
                   </div>","null",""
"","","","","","html-keyboard-response","23","532195","0.0-17.0","91AB7940965145ABA4FBD55A504CC349","0199b0b5-09c7-7f56-bc66-ffa0a4395a74","0199b0a1-e458-7c09-8b8a-a795043d6e93","","null","<div style=""display: flex; justify-content: center; align-items: center;"">
                     <img src=""images/causal/causal_series_2/causal_series_2_a.png"" style=""width: 300px; height: 300px;"" />
                   </div>","null",""
"","","","","","html-button-response","24","534485","0.0-18.0","91AB7940965145ABA4FBD55A504CC349","0199b0b5-09c7-7f56-bc66-ffa0a4395a74","0199b0a1-e458-7c09-8b8a-a795043d6e93","","2286","
        <div style=""display: flex; justify-content: center; align-items: center;"">
          <img src=""images/red_deck_2.png"" style=""width: 300px; height: 300px; margin-right: 10px;"" />
          <img src=""images/blue_deck_1.png"" style=""width: 300px; height: 300px;"" />
        </div>","0","0"
"","","","","","html-keyboard-response","25","541499","0.0-19.0-0.0-0.0","91AB7940965145ABA4FBD55A504CC349","0199b0b5-09c7-7f56-bc66-ffa0a4395a74","0199b0a1-e458-7c09-8b8a-a795043d6e93","","null","<div style=""display: flex; justify-content: center; align-items: center;"">
                     <img src=""images/causal/causal_series_2/causal_series_2_b.png"" style=""width: 300px; height: 300px;"" />
                   </div>","null",""
"","","","","","html-keyboard-response","26","548508","0.0-19.0-0.0-1.0","91AB7940965145ABA4FBD55A504CC349","0199b0b5-09c7-7f56-bc66-ffa0a4395a74","0199b0a1-e458-7c09-8b8a-a795043d6e93","","null","<div style=""display: flex; justify-content: center; align-items: center;"">
                     <img src=""images/causal/causal_series_2/causal_series_2_c.png"" style=""width: 300px; height: 300px;"" />
                   </div>","null",""
"","","","","","html-keyboard-response","27","555520","0.0-19.0-0.0-2.0","91AB7940965145ABA4FBD55A504CC349","0199b0b5-09c7-7f56-bc66-ffa0a4395a74","0199b0a1-e458-7c09-8b8a-a795043d6e93","","null","<div style=""display: flex; justify-content: center; align-items: center;"">
                     <img src=""images/causal/causal_series_2/causal_series_2_d.png"" style=""width: 300px; height: 300px;"" />
                   </div>","null",""
"","","","","","html-keyboard-response","28","562532","0.0-20.0","91AB7940965145ABA4FBD55A504CC349","0199b0b5-09c7-7f56-bc66-ffa0a4395a74","0199b0a1-e458-7c09-8b8a-a795043d6e93","","null","<div style=""display: flex; justify-content: center; align-items: center;"">
                     <img src=""images/other/blank.png"" style=""width: 300px; height: 300px;"" />
                   </div>","null",""
"","","","","","html-keyboard-response","29","569544","0.0-21.0","91AB7940965145ABA4FBD55A504CC349","0199b0b5-09c7-7f56-bc66-ffa0a4395a74","0199b0a1-e458-7c09-8b8a-a795043d6e93","","null","<div style=""display: flex; justify-content: center; align-items: center;"">
                     <img src=""images/causal/causal_series_5/causal_series_5_a.png"" style=""width: 300px; height: 300px;"" />
                   </div>","null",""
"","","","","","html-button-response","30","571297","0.0-22.0","91AB7940965145ABA4FBD55A504CC349","0199b0b5-09c7-7f56-bc66-ffa0a4395a74","0199b0a1-e458-7c09-8b8a-a795043d6e93","","1750","
        <div style=""display: flex; justify-content: center; align-items: center;"">
          <img src=""images/red_deck_2.png"" style=""width: 300px; height: 300px; margin-right: 10px;"" />
          <img src=""images/blue_deck_1.png"" style=""width: 300px; height: 300px;"" />
        </div>","1","1"
"","","","","","html-keyboard-response","31","578300","0.0-23.0-1.0-0.0","91AB7940965145ABA4FBD55A504CC349","0199b0b5-09c7-7f56-bc66-ffa0a4395a74","0199b0a1-e458-7c09-8b8a-a795043d6e93","","null","<div style=""display: flex; justify-content: center; align-items: center;"">
                     <img src=""images/semantic/semantic_series_5/semantic_series_5_b.png"" style=""width: 300px; height: 300px;"" />
                   </div>","null",""
"","","","","","html-keyboard-response","32","585318","0.0-23.0-1.0-1.0","91AB7940965145ABA4FBD55A504CC349","0199b0b5-09c7-7f56-bc66-ffa0a4395a74","0199b0a1-e458-7c09-8b8a-a795043d6e93","","null","<div style=""display: flex; justify-content: center; align-items: center;"">
                     <img src=""images/semantic/semantic_series_5/semantic_series_5_c.png"" style=""width: 300px; height: 300px;"" />
                   </div>","null",""
"","","","","","html-keyboard-response","33","592322","0.0-23.0-1.0-2.0","91AB7940965145ABA4FBD55A504CC349","0199b0b5-09c7-7f56-bc66-ffa0a4395a74","0199b0a1-e458-7c09-8b8a-a795043d6e93","","null","<div style=""display: flex; justify-content: center; align-items: center;"">
                     <img src=""images/semantic/semantic_series_5/semantic_series_5_d.png"" style=""width: 300px; height: 300px;"" />
                   </div>","null",""
"","","","","","html-keyboard-response","34","599327","0.0-24.0","91AB7940965145ABA4FBD55A504CC349","0199b0b5-09c7-7f56-bc66-ffa0a4395a74","0199b0a1-e458-7c09-8b8a-a795043d6e93","","null","<div style=""display: flex; justify-content: center; align-items: center;"">
                     <img src=""images/other/blank.png"" style=""width: 300px; height: 300px;"" />
                   </div>","null",""
"","","","","","html-keyboard-response","35","606340","0.0-25.0","91AB7940965145ABA4FBD55A504CC349","0199b0b5-09c7-7f56-bc66-ffa0a4395a74","0199b0a1-e458-7c09-8b8a-a795043d6e93","","null","<div style=""display: flex; justify-content: center; align-items: center;"">
                     <img src=""images/causal/causal_series_1/causal_series_1_a.png"" style=""width: 300px; height: 300px;"" />
                   </div>","null",""
"","","","","","html-button-response","36","613374","0.0-26.0","91AB7940965145ABA4FBD55A504CC349","0199b0b5-09c7-7f56-bc66-ffa0a4395a74","0199b0a1-e458-7c09-8b8a-a795043d6e93","","7031","
        <div style=""display: flex; justify-content: center; align-items: center;"">
          <img src=""images/red_deck_2.png"" style=""width: 300px; height: 300px; margin-right: 10px;"" />
          <img src=""images/blue_deck_1.png"" style=""width: 300px; height: 300px;"" />
        </div>","1","1"
"","","","","","html-keyboard-response","37","620382","0.0-27.0-1.0-0.0","91AB7940965145ABA4FBD55A504CC349","0199b0b5-09c7-7f56-bc66-ffa0a4395a74","0199b0a1-e458-7c09-8b8a-a795043d6e93","","null","<div style=""display: flex; justify-content: center; align-items: center;"">
                     <img src=""images/semantic/semantic_series_1/semantic_series_1_b.png"" style=""width: 300px; height: 300px;"" />
                   </div>","null",""
"","","","","","html-keyboard-response","38","627390","0.0-27.0-1.0-1.0","91AB7940965145ABA4FBD55A504CC349","0199b0b5-09c7-7f56-bc66-ffa0a4395a74","0199b0a1-e458-7c09-8b8a-a795043d6e93","","null","<div style=""display: flex; justify-content: center; align-items: center;"">
                     <img src=""images/semantic/semantic_series_1/semantic_series_1_c.png"" style=""width: 300px; height: 300px;"" />
                   </div>","null",""
"","","","","","html-keyboard-response","39","634396","0.0-27.0-1.0-2.0","91AB7940965145ABA4FBD55A504CC349","0199b0b5-09c7-7f56-bc66-ffa0a4395a74","0199b0a1-e458-7c09-8b8a-a795043d6e93","","null","<div style=""display: flex; justify-content: center; align-items: center;"">
                     <img src=""images/semantic/semantic_series_1/semantic_series_1_d.png"" style=""width: 300px; height: 300px;"" />
                   </div>","null",""
"","","","","","html-keyboard-response","40","641405","0.0-28.0","91AB7940965145ABA4FBD55A504CC349","0199b0b5-09c7-7f56-bc66-ffa0a4395a74","0199b0a1-e458-7c09-8b8a-a795043d6e93","","null","<div style=""display: flex; justify-content: center; align-items: center;"">
                     <img src=""images/other/blank.png"" style=""width: 300px; height: 300px;"" />
                   </div>","null",""
"","","","","","html-keyboard-response","41","648411","0.0-29.0","91AB7940965145ABA4FBD55A504CC349","0199b0b5-09c7-7f56-bc66-ffa0a4395a74","0199b0a1-e458-7c09-8b8a-a795043d6e93","","null","<div style=""display: flex; justify-content: center; align-items: center;"">
                     <img src=""images/causal/causal_series_4/causal_series_4_a.png"" style=""width: 300px; height: 300px;"" />
                   </div>","null",""
"","","","","","html-button-response","42","654792","0.0-30.0","91AB7940965145ABA4FBD55A504CC349","0199b0b5-09c7-7f56-bc66-ffa0a4395a74","0199b0a1-e458-7c09-8b8a-a795043d6e93","","6378","
        <div style=""display: flex; justify-content: center; align-items: center;"">
          <img src=""images/red_deck_2.png"" style=""width: 300px; height: 300px; margin-right: 10px;"" />
          <img src=""images/blue_deck_1.png"" style=""width: 300px; height: 300px;"" />
        </div>","0","0"
"","","","","","html-keyboard-response","43","661809","0.0-31.0-0.0-0.0","91AB7940965145ABA4FBD55A504CC349","0199b0b5-09c7-7f56-bc66-ffa0a4395a74","0199b0a1-e458-7c09-8b8a-a795043d6e93","","null","<div style=""display: flex; justify-content: center; align-items: center;"">
                     <img src=""images/causal/causal_series_4/causal_series_4_b.png"" style=""width: 300px; height: 300px;"" />
                   </div>","null",""
"","","","","","html-keyboard-response","44","668821","0.0-31.0-0.0-1.0","91AB7940965145ABA4FBD55A504CC349","0199b0b5-09c7-7f56-bc66-ffa0a4395a74","0199b0a1-e458-7c09-8b8a-a795043d6e93","","null","<div style=""display: flex; justify-content: center; align-items: center;"">
                     <img src=""images/causal/causal_series_4/causal_series_4_c.png"" style=""width: 300px; height: 300px;"" />
                   </div>","null",""
"","","","","","html-keyboard-response","45","675827","0.0-31.0-0.0-2.0","91AB7940965145ABA4FBD55A504CC349","0199b0b5-09c7-7f56-bc66-ffa0a4395a74","0199b0a1-e458-7c09-8b8a-a795043d6e93","","null","<div style=""display: flex; justify-content: center; align-items: center;"">
                     <img src=""images/causal/causal_series_4/causal_series_4_d.png"" style=""width: 300px; height: 300px;"" />
                   </div>","null",""
"","","","","","html-keyboard-response","46","682846","0.0-32.0","91AB7940965145ABA4FBD55A504CC349","0199b0b5-09c7-7f56-bc66-ffa0a4395a74","0199b0a1-e458-7c09-8b8a-a795043d6e93","","null","<div style=""display: flex; justify-content: center; align-items: center;"">
                     <img src=""images/other/blank.png"" style=""width: 300px; height: 300px;"" />
                   </div>","null",""
"","","","","","html-keyboard-response","47","689848","0.0-33.0","91AB7940965145ABA4FBD55A504CC349","0199b0b5-09c7-7f56-bc66-ffa0a4395a74","0199b0a1-e458-7c09-8b8a-a795043d6e93","","null","<div style=""display: flex; justify-content: center; align-items: center;"">
                     <img src=""images/causal/causal_series_3/causal_series_3_a.png"" style=""width: 300px; height: 300px;"" />
                   </div>","null",""
"","","","","","html-button-response","48","692207","0.0-34.0","91AB7940965145ABA4FBD55A504CC349","0199b0b5-09c7-7f56-bc66-ffa0a4395a74","0199b0a1-e458-7c09-8b8a-a795043d6e93","","2357","
        <div style=""display: flex; justify-content: center; align-items: center;"">
          <img src=""images/red_deck_2.png"" style=""width: 300px; height: 300px; margin-right: 10px;"" />
          <img src=""images/blue_deck_1.png"" style=""width: 300px; height: 300px;"" />
        </div>","1","1"
"","","","","","html-keyboard-response","49","699211","0.0-35.0-1.0-0.0","91AB7940965145ABA4FBD55A504CC349","0199b0b5-09c7-7f56-bc66-ffa0a4395a74","0199b0a1-e458-7c09-8b8a-a795043d6e93","","null","<div style=""display: flex; justify-content: center; align-items: center;"">
                     <img src=""images/semantic/semantic_series_3/semantic_series_3_b.png"" style=""width: 300px; height: 300px;"" />
                   </div>","null",""
"","","","","","html-keyboard-response","50","706214","0.0-35.0-1.0-1.0","91AB7940965145ABA4FBD55A504CC349","0199b0b5-09c7-7f56-bc66-ffa0a4395a74","0199b0a1-e458-7c09-8b8a-a795043d6e93","","null","<div style=""display: flex; justify-content: center; align-items: center;"">
                     <img src=""images/semantic/semantic_series_3/semantic_series_3_c.png"" style=""width: 300px; height: 300px;"" />
                   </div>","null",""
"","","","","","html-keyboard-response","51","713219","0.0-35.0-1.0-2.0","91AB7940965145ABA4FBD55A504CC349","0199b0b5-09c7-7f56-bc66-ffa0a4395a74","0199b0a1-e458-7c09-8b8a-a795043d6e93","","null","<div style=""display: flex; justify-content: center; align-items: center;"">
                     <img src=""images/semantic/semantic_series_3/semantic_series_3_d.png"" style=""width: 300px; height: 300px;"" />
                   </div>","null",""
"","","","","","html-keyboard-response","52","720231","0.0-36.0","91AB7940965145ABA4FBD55A504CC349","0199b0b5-09c7-7f56-bc66-ffa0a4395a74","0199b0a1-e458-7c09-8b8a-a795043d6e93","","null","<div style=""display: flex; justify-content: center; align-items: center;"">
                     <img src=""images/other/blank.png"" style=""width: 300px; height: 300px;"" />
                   </div>","null",""
"","","","","","html-keyboard-response","53","727235","0.0-37.0","91AB7940965145ABA4FBD55A504CC349","0199b0b5-09c7-7f56-bc66-ffa0a4395a74","0199b0a1-e458-7c09-8b8a-a795043d6e93","","null","<div style=""display: flex; justify-content: center; align-items: center;"">
                     <img src=""images/causal/causal_series_8/causal_series_8_a.png"" style=""width: 300px; height: 300px;"" />
                   </div>","null",""
"","","","","","html-button-response","54","728899","0.0-38.0","91AB7940965145ABA4FBD55A504CC349","0199b0b5-09c7-7f56-bc66-ffa0a4395a74","0199b0a1-e458-7c09-8b8a-a795043d6e93","","1661","
        <div style=""display: flex; justify-content: center; align-items: center;"">
          <img src=""images/red_deck_2.png"" style=""width: 300px; height: 300px; margin-right: 10px;"" />
          <img src=""images/blue_deck_1.png"" style=""width: 300px; height: 300px;"" />
        </div>","1","1"
"","","","","","html-keyboard-response","55","735936","0.0-39.0-1.0-0.0","91AB7940965145ABA4FBD55A504CC349","0199b0b5-09c7-7f56-bc66-ffa0a4395a74","0199b0a1-e458-7c09-8b8a-a795043d6e93","","null","<div style=""display: flex; justify-content: center; align-items: center;"">
                     <img src=""images/semantic/semantic_series_8/semantic_series_8_b.png"" style=""width: 300px; height: 300px;"" />
                   </div>","null",""
"","","","","","html-keyboard-response","56","743937","0.0-39.0-1.0-1.0","91AB7940965145ABA4FBD55A504CC349","0199b0b5-09c7-7f56-bc66-ffa0a4395a74","0199b0a1-e458-7c09-8b8a-a795043d6e93","","null","<div style=""display: flex; justify-content: center; align-items: center;"">
                     <img src=""images/semantic/semantic_series_8/semantic_series_8_c.png"" style=""width: 300px; height: 300px;"" />
                   </div>","null",""
"","","","","","html-keyboard-response","57","751930","0.0-39.0-1.0-2.0","91AB7940965145ABA4FBD55A504CC349","0199b0b5-09c7-7f56-bc66-ffa0a4395a74","0199b0a1-e458-7c09-8b8a-a795043d6e93","","null","<div style=""display: flex; justify-content: center; align-items: center;"">
                     <img src=""images/semantic/semantic_series_8/semantic_series_8_d.png"" style=""width: 300px; height: 300px;"" />
                   </div>","null",""
"","","","","","html-keyboard-response","58","759936","0.0-40.0","91AB7940965145ABA4FBD55A504CC349","0199b0b5-09c7-7f56-bc66-ffa0a4395a74","0199b0a1-e458-7c09-8b8a-a795043d6e93","","null","<div style=""display: flex; justify-content: center; align-items: center;"">
                     <img src=""images/other/blank.png"" style=""width: 300px; height: 300px;"" />
                   </div>","null",""
"","","","","","html-keyboard-response","59","766951","0.0-41.0","91AB7940965145ABA4FBD55A504CC349","0199b0b5-09c7-7f56-bc66-ffa0a4395a74","0199b0a1-e458-7c09-8b8a-a795043d6e93","","null","<div style=""display: flex; justify-content: center; align-items: center;"">
                     <img src=""images/causal/causal_series_9/causal_series_9_a.png"" style=""width: 300px; height: 300px;"" />
                   </div>","null",""
"","","","","","html-button-response","60","769356","0.0-42.0","91AB7940965145ABA4FBD55A504CC349","0199b0b5-09c7-7f56-bc66-ffa0a4395a74","0199b0a1-e458-7c09-8b8a-a795043d6e93","","2401","
        <div style=""display: flex; justify-content: center; align-items: center;"">
          <img src=""images/red_deck_2.png"" style=""width: 300px; height: 300px; margin-right: 10px;"" />
          <img src=""images/blue_deck_1.png"" style=""width: 300px; height: 300px;"" />
        </div>","1","1"
"","","","","","html-keyboard-response","61","776363","0.0-43.0-1.0-0.0","91AB7940965145ABA4FBD55A504CC349","0199b0b5-09c7-7f56-bc66-ffa0a4395a74","0199b0a1-e458-7c09-8b8a-a795043d6e93","","null","<div style=""display: flex; justify-content: center; align-items: center;"">
                     <img src=""images/semantic/semantic_series_9/semantic_series_9_b.png"" style=""width: 300px; height: 300px;"" />
                   </div>","null",""
"","","","","","html-keyboard-response","62","783379","0.0-43.0-1.0-1.0","91AB7940965145ABA4FBD55A504CC349","0199b0b5-09c7-7f56-bc66-ffa0a4395a74","0199b0a1-e458-7c09-8b8a-a795043d6e93","","null","<div style=""display: flex; justify-content: center; align-items: center;"">
                     <img src=""images/semantic/semantic_series_9/semantic_series_9_c.png"" style=""width: 300px; height: 300px;"" />
                   </div>","null",""
"","","","","","html-keyboard-response","63","790393","0.0-43.0-1.0-2.0","91AB7940965145ABA4FBD55A504CC349","0199b0b5-09c7-7f56-bc66-ffa0a4395a74","0199b0a1-e458-7c09-8b8a-a795043d6e93","","null","<div style=""display: flex; justify-content: center; align-items: center;"">
                     <img src=""images/semantic/semantic_series_9/semantic_series_9_d.png"" style=""width: 300px; height: 300px;"" />
                   </div>","null",""
"","","","","","html-keyboard-response","64","797411","0.0-44.0","91AB7940965145ABA4FBD55A504CC349","0199b0b5-09c7-7f56-bc66-ffa0a4395a74","0199b0a1-e458-7c09-8b8a-a795043d6e93","","null","<div style=""display: flex; justify-content: center; align-items: center;"">
                     <img src=""images/other/blank.png"" style=""width: 300px; height: 300px;"" />
                   </div>","null",""
"","","","","","survey-text","65","840174","0.0-45.0","91AB7940965145ABA4FBD55A504CC349","0199b0b5-09c7-7f56-bc66-ffa0a4395a74","0199b0a1-e458-7c09-8b8a-a795043d6e93","","42748","","{""Q0"":""Blue gives continuous stories while red gives unconsistent stories""}",""
"","","","","","html-button-response","66","847714","0.0-46.0","91AB7940965145ABA4FBD55A504CC349","0199b0b5-09c7-7f56-bc66-ffa0a4395a74","0199b0a1-e458-7c09-8b8a-a795043d6e93","","7537","Which color deck does the following images continue the story from?","0",""
"","","","","","html-button-response","67","856985","0.0-47.0","91AB7940965145ABA4FBD55A504CC349","0199b0b5-09c7-7f56-bc66-ffa0a4395a74","0199b0a1-e458-7c09-8b8a-a795043d6e93","","9268","Which color deck do the following images NOT follow the story from?","1",""
"","","","","","html-button-response","68","864462","0.0-48.0","91AB7940965145ABA4FBD55A504CC349","0199b0b5-09c7-7f56-bc66-ffa0a4395a74","0199b0a1-e458-7c09-8b8a-a795043d6e93","","7473","Which type of deck did you prefer overall?","1",""
"","","","","","survey-text","69","873218","0.0-49.0","91AB7940965145ABA4FBD55A504CC349","0199b0b5-09c7-7f56-bc66-ffa0a4395a74","0199b0a1-e458-7c09-8b8a-a795043d6e93","","8735","","{""Q0"":""Female"",""Q1"":""22""}",""
"","","","","","instructions","70","885034","0.0-50.0","91AB7940965145ABA4FBD55A504CC349","0199b0b5-09c7-7f56-bc66-ffa0a4395a74","0199b0a1-e458-7c09-8b8a-a795043d6e93","[{""page_index"":0,""viewing_time"":11812}]","11813","","",""
