"success","timeout","failed_images","failed_audio","failed_video","trial_type","trial_index","time_elapsed","internal_node_id","subject_id","study_id","session_id","view_history","rt","stimulus","response","choice"
"true","false","[]","[]","[]","preload","0","1620","0.0-0.0","6BA87722024F425DA62A86EA204FAF32","e1382e50-cd00-4135-a281-dca524de2032","683bf07d-1a26-40b1-9cff-5abdc1eed0ee","","","","",""
"","","","","","instructions","1","29488","0.0-1.0","6BA87722024F425DA62A86EA204FAF32","e1382e50-cd00-4135-a281-dca524de2032","683bf07d-1a26-40b1-9cff-5abdc1eed0ee","[{""page_index"":0,""viewing_time"":27867}]","27867","","",""
"","","","","","instructions","2","34758","0.0-2.0","6BA87722024F425DA62A86EA204FAF32","e1382e50-cd00-4135-a281-dca524de2032","683bf07d-1a26-40b1-9cff-5abdc1eed0ee","[{""page_index"":0,""viewing_time"":5270}]","5270","","",""
"true","","","","","fullscreen","3","37778","0.0-3.0","6BA87722024F425DA62A86EA204FAF32","e1382e50-cd00-4135-a281-dca524de2032","683bf07d-1a26-40b1-9cff-5abdc1eed0ee","","2009","","",""
"","","","","","instructions","4","51321","0.0-4.0","6BA87722024F425DA62A86EA204FAF32","e1382e50-cd00-4135-a281-dca524de2032","683bf07d-1a26-40b1-9cff-5abdc1eed0ee","[{""page_index"":0,""viewing_time"":13542}]","13542","","",""
"","","","","","html-keyboard-response","5","54337","0.0-5.0","6BA87722024F425DA62A86EA204FAF32","e1382e50-cd00-4135-a281-dca524de2032","683bf07d-1a26-40b1-9cff-5abdc1eed0ee","","null","<div style=""display: flex; justify-content: center; align-items: center;"">
                <img src=""images/causal/causal_series_11/causal_series_11_a.jpg"" style=""width: 300px; height: 300px;"" />
              </div>","null",""
"","","","","","html-keyboard-response","6","57340","0.0-6.0","6BA87722024F425DA62A86EA204FAF32","e1382e50-cd00-4135-a281-dca524de2032","683bf07d-1a26-40b1-9cff-5abdc1eed0ee","","null","<div style=""display: flex; justify-content: center; align-items: center;"">
                <img src=""images/causal/causal_series_11/causal_series_11_b.jpg"" style=""width: 300px; height: 300px;"" />
              </div>","null",""
"","","","","","html-keyboard-response","7","60345","0.0-7.0","6BA87722024F425DA62A86EA204FAF32","e1382e50-cd00-4135-a281-dca524de2032","683bf07d-1a26-40b1-9cff-5abdc1eed0ee","","null","<div style=""display: flex; justify-content: center; align-items: center;"">
                <img src=""images/causal/causal_series_11/causal_series_11_c.jpg"" style=""width: 300px; height: 300px;"" />
              </div>","null",""
"","","","","","html-button-response","8","68728","0.0-8.0","6BA87722024F425DA62A86EA204FAF32","e1382e50-cd00-4135-a281-dca524de2032","683bf07d-1a26-40b1-9cff-5abdc1eed0ee","","8381","
    <div style=""display: flex; justify-content: center; align-items: center;"">
      <img src=""images/red_deck_2.png"" style=""width: 300px; height: 300px; margin-right: 10px;"" />
      <img src=""images/blue_deck_1.png"" style=""width: 300px; height: 300px;"" />
    </div>","1","1"
"","","","","","html-keyboard-response","9","71744","0.0-9.0-1.0-0.0","6BA87722024F425DA62A86EA204FAF32","e1382e50-cd00-4135-a281-dca524de2032","683bf07d-1a26-40b1-9cff-5abdc1eed0ee","","null","<div style=""display: flex; justify-content: center; align-items: center;"">
                <img src=""images/semantic/semantic_series_10/semantic_series_10_d.jpg"" style=""width: 300px; height: 300px;"" />
              </div>","null",""
"","","","","","html-keyboard-response","10","74761","0.0-10.0","6BA87722024F425DA62A86EA204FAF32","e1382e50-cd00-4135-a281-dca524de2032","683bf07d-1a26-40b1-9cff-5abdc1eed0ee","","null","<div style=""display: flex; justify-content: center; align-items: center;"">
                <img src=""images/other/blank.jpg"" style=""width: 300px; height: 300px;"" />
              </div>","null",""
"","","","","","html-keyboard-response","11","77776","0.0-11.0","6BA87722024F425DA62A86EA204FAF32","e1382e50-cd00-4135-a281-dca524de2032","683bf07d-1a26-40b1-9cff-5abdc1eed0ee","","null","<div style=""display: flex; justify-content: center; align-items: center;"">
                <img src=""images/causal/causal_series_14/causal_series_14_a.jpg"" style=""width: 300px; height: 300px;"" />
              </div>","null",""
"","","","","","html-keyboard-response","12","80789","0.0-12.0","6BA87722024F425DA62A86EA204FAF32","e1382e50-cd00-4135-a281-dca524de2032","683bf07d-1a26-40b1-9cff-5abdc1eed0ee","","null","<div style=""display: flex; justify-content: center; align-items: center;"">
                <img src=""images/causal/causal_series_14/causal_series_14_b.jpg"" style=""width: 300px; height: 300px;"" />
              </div>","null",""
"","","","","","html-keyboard-response","13","83804","0.0-13.0","6BA87722024F425DA62A86EA204FAF32","e1382e50-cd00-4135-a281-dca524de2032","683bf07d-1a26-40b1-9cff-5abdc1eed0ee","","null","<div style=""display: flex; justify-content: center; align-items: center;"">
                <img src=""images/causal/causal_series_14/causal_series_14_c.jpg"" style=""width: 300px; height: 300px;"" />
              </div>","null",""
"","","","","","html-button-response","14","86921","0.0-14.0","6BA87722024F425DA62A86EA204FAF32","e1382e50-cd00-4135-a281-dca524de2032","683bf07d-1a26-40b1-9cff-5abdc1eed0ee","","3116","
    <div style=""display: flex; justify-content: center; align-items: center;"">
      <img src=""images/red_deck_2.png"" style=""width: 300px; height: 300px; margin-right: 10px;"" />
      <img src=""images/blue_deck_1.png"" style=""width: 300px; height: 300px;"" />
    </div>","0","0"
"","","","","","html-keyboard-response","15","89936","0.0-15.0-0.0-0.0","6BA87722024F425DA62A86EA204FAF32","e1382e50-cd00-4135-a281-dca524de2032","683bf07d-1a26-40b1-9cff-5abdc1eed0ee","","null","<div style=""display: flex; justify-content: center; align-items: center;"">
                <img src=""images/causal/causal_series_14/causal_series_14_d.jpg"" style=""width: 300px; height: 300px;"" />
              </div>","null",""
"","","","","","html-keyboard-response","16","92951","0.0-16.0","6BA87722024F425DA62A86EA204FAF32","e1382e50-cd00-4135-a281-dca524de2032","683bf07d-1a26-40b1-9cff-5abdc1eed0ee","","null","<div style=""display: flex; justify-content: center; align-items: center;"">
                <img src=""images/other/blank.jpg"" style=""width: 300px; height: 300px;"" />
              </div>","null",""
"","","","","","html-keyboard-response","17","95966","0.0-17.0","6BA87722024F425DA62A86EA204FAF32","e1382e50-cd00-4135-a281-dca524de2032","683bf07d-1a26-40b1-9cff-5abdc1eed0ee","","null","<div style=""display: flex; justify-content: center; align-items: center;"">
                <img src=""images/causal/causal_series_12/causal_series_12_a.jpg"" style=""width: 300px; height: 300px;"" />
              </div>","null",""
"","","","","","html-keyboard-response","18","98979","0.0-18.0","6BA87722024F425DA62A86EA204FAF32","e1382e50-cd00-4135-a281-dca524de2032","683bf07d-1a26-40b1-9cff-5abdc1eed0ee","","null","<div style=""display: flex; justify-content: center; align-items: center;"">
                <img src=""images/causal/causal_series_12/causal_series_12_b.jpg"" style=""width: 300px; height: 300px;"" />
              </div>","null",""
"","","","","","html-keyboard-response","19","101995","0.0-19.0","6BA87722024F425DA62A86EA204FAF32","e1382e50-cd00-4135-a281-dca524de2032","683bf07d-1a26-40b1-9cff-5abdc1eed0ee","","null","<div style=""display: flex; justify-content: center; align-items: center;"">
                <img src=""images/causal/causal_series_12/causal_series_12_c.jpg"" style=""width: 300px; height: 300px;"" />
              </div>","null",""
"","","","","","html-button-response","20","103318","0.0-20.0","6BA87722024F425DA62A86EA204FAF32","e1382e50-cd00-4135-a281-dca524de2032","683bf07d-1a26-40b1-9cff-5abdc1eed0ee","","1322","
    <div style=""display: flex; justify-content: center; align-items: center;"">
      <img src=""images/red_deck_2.png"" style=""width: 300px; height: 300px; margin-right: 10px;"" />
      <img src=""images/blue_deck_1.png"" style=""width: 300px; height: 300px;"" />
    </div>","1","1"
"","","","","","html-keyboard-response","21","106327","0.0-21.0-1.0-0.0","6BA87722024F425DA62A86EA204FAF32","e1382e50-cd00-4135-a281-dca524de2032","683bf07d-1a26-40b1-9cff-5abdc1eed0ee","","null","<div style=""display: flex; justify-content: center; align-items: center;"">
                <img src=""images/semantic/semantic_series_11/semantic_series_11_d.jpg"" style=""width: 300px; height: 300px;"" />
              </div>","null",""
"","","","","","html-keyboard-response","22","109338","0.0-22.0","6BA87722024F425DA62A86EA204FAF32","e1382e50-cd00-4135-a281-dca524de2032","683bf07d-1a26-40b1-9cff-5abdc1eed0ee","","null","<div style=""display: flex; justify-content: center; align-items: center;"">
                <img src=""images/other/blank.jpg"" style=""width: 300px; height: 300px;"" />
              </div>","null",""
"","","","","","html-keyboard-response","23","112355","0.0-23.0","6BA87722024F425DA62A86EA204FAF32","e1382e50-cd00-4135-a281-dca524de2032","683bf07d-1a26-40b1-9cff-5abdc1eed0ee","","null","<div style=""display: flex; justify-content: center; align-items: center;"">
                <img src=""images/causal/causal_series_10/causal_series_10_a.jpg"" style=""width: 300px; height: 300px;"" />
              </div>","null",""
"","","","","","html-keyboard-response","24","115371","0.0-24.0","6BA87722024F425DA62A86EA204FAF32","e1382e50-cd00-4135-a281-dca524de2032","683bf07d-1a26-40b1-9cff-5abdc1eed0ee","","null","<div style=""display: flex; justify-content: center; align-items: center;"">
                <img src=""images/causal/causal_series_10/causal_series_10_b.jpg"" style=""width: 300px; height: 300px;"" />
              </div>","null",""
"","","","","","html-keyboard-response","25","118386","0.0-25.0","6BA87722024F425DA62A86EA204FAF32","e1382e50-cd00-4135-a281-dca524de2032","683bf07d-1a26-40b1-9cff-5abdc1eed0ee","","null","<div style=""display: flex; justify-content: center; align-items: center;"">
                <img src=""images/causal/causal_series_10/causal_series_10_c.jpg"" style=""width: 300px; height: 300px;"" />
              </div>","null",""
"","","","","","html-button-response","26","120376","0.0-26.0","6BA87722024F425DA62A86EA204FAF32","e1382e50-cd00-4135-a281-dca524de2032","683bf07d-1a26-40b1-9cff-5abdc1eed0ee","","1989","
    <div style=""display: flex; justify-content: center; align-items: center;"">
      <img src=""images/red_deck_2.png"" style=""width: 300px; height: 300px; margin-right: 10px;"" />
      <img src=""images/blue_deck_1.png"" style=""width: 300px; height: 300px;"" />
    </div>","0","0"
"","","","","","html-keyboard-response","27","123392","0.0-27.0-0.0-0.0","6BA87722024F425DA62A86EA204FAF32","e1382e50-cd00-4135-a281-dca524de2032","683bf07d-1a26-40b1-9cff-5abdc1eed0ee","","null","<div style=""display: flex; justify-content: center; align-items: center;"">
                <img src=""images/causal/causal_series_10/causal_series_10_d.jpg"" style=""width: 300px; height: 300px;"" />
              </div>","null",""
"","","","","","html-keyboard-response","28","126396","0.0-28.0","6BA87722024F425DA62A86EA204FAF32","e1382e50-cd00-4135-a281-dca524de2032","683bf07d-1a26-40b1-9cff-5abdc1eed0ee","","null","<div style=""display: flex; justify-content: center; align-items: center;"">
                <img src=""images/other/blank.jpg"" style=""width: 300px; height: 300px;"" />
              </div>","null",""
"","","","","","html-keyboard-response","29","129412","0.0-29.0","6BA87722024F425DA62A86EA204FAF32","e1382e50-cd00-4135-a281-dca524de2032","683bf07d-1a26-40b1-9cff-5abdc1eed0ee","","null","<div style=""display: flex; justify-content: center; align-items: center;"">
                <img src=""images/causal/causal_series_3/causal_series_3_a.jpg"" style=""width: 300px; height: 300px;"" />
              </div>","null",""
"","","","","","html-keyboard-response","30","132413","0.0-30.0","6BA87722024F425DA62A86EA204FAF32","e1382e50-cd00-4135-a281-dca524de2032","683bf07d-1a26-40b1-9cff-5abdc1eed0ee","","null","<div style=""display: flex; justify-content: center; align-items: center;"">
                <img src=""images/causal/causal_series_3/causal_series_3_b.jpg"" style=""width: 300px; height: 300px;"" />
              </div>","null",""
"","","","","","html-keyboard-response","31","135425","0.0-31.0","6BA87722024F425DA62A86EA204FAF32","e1382e50-cd00-4135-a281-dca524de2032","683bf07d-1a26-40b1-9cff-5abdc1eed0ee","","null","<div style=""display: flex; justify-content: center; align-items: center;"">
                <img src=""images/causal/causal_series_3/causal_series_3_c.jpg"" style=""width: 300px; height: 300px;"" />
              </div>","null",""
"","","","","","html-button-response","32","137256","0.0-32.0","6BA87722024F425DA62A86EA204FAF32","e1382e50-cd00-4135-a281-dca524de2032","683bf07d-1a26-40b1-9cff-5abdc1eed0ee","","1830","
    <div style=""display: flex; justify-content: center; align-items: center;"">
      <img src=""images/red_deck_2.png"" style=""width: 300px; height: 300px; margin-right: 10px;"" />
      <img src=""images/blue_deck_1.png"" style=""width: 300px; height: 300px;"" />
    </div>","1","1"
"","","","","","html-keyboard-response","33","140258","0.0-33.0-1.0-0.0","6BA87722024F425DA62A86EA204FAF32","e1382e50-cd00-4135-a281-dca524de2032","683bf07d-1a26-40b1-9cff-5abdc1eed0ee","","null","<div style=""display: flex; justify-content: center; align-items: center;"">
                <img src=""images/semantic/semantic_series_2/semantic_series_2_d.jpg"" style=""width: 300px; height: 300px;"" />
              </div>","null",""
"","","","","","html-keyboard-response","34","143273","0.0-34.0","6BA87722024F425DA62A86EA204FAF32","e1382e50-cd00-4135-a281-dca524de2032","683bf07d-1a26-40b1-9cff-5abdc1eed0ee","","null","<div style=""display: flex; justify-content: center; align-items: center;"">
                <img src=""images/other/blank.jpg"" style=""width: 300px; height: 300px;"" />
              </div>","null",""
"","","","","","html-keyboard-response","35","146287","0.0-35.0","6BA87722024F425DA62A86EA204FAF32","e1382e50-cd00-4135-a281-dca524de2032","683bf07d-1a26-40b1-9cff-5abdc1eed0ee","","null","<div style=""display: flex; justify-content: center; align-items: center;"">
                <img src=""images/causal/causal_series_2/causal_series_2_a.jpg"" style=""width: 300px; height: 300px;"" />
              </div>","null",""
"","","","","","html-keyboard-response","36","149301","0.0-36.0","6BA87722024F425DA62A86EA204FAF32","e1382e50-cd00-4135-a281-dca524de2032","683bf07d-1a26-40b1-9cff-5abdc1eed0ee","","null","<div style=""display: flex; justify-content: center; align-items: center;"">
                <img src=""images/causal/causal_series_2/causal_series_2_b.jpg"" style=""width: 300px; height: 300px;"" />
              </div>","null",""
"","","","","","html-keyboard-response","37","152317","0.0-37.0","6BA87722024F425DA62A86EA204FAF32","e1382e50-cd00-4135-a281-dca524de2032","683bf07d-1a26-40b1-9cff-5abdc1eed0ee","","null","<div style=""display: flex; justify-content: center; align-items: center;"">
                <img src=""images/causal/causal_series_2/causal_series_2_c.jpg"" style=""width: 300px; height: 300px;"" />
              </div>","null",""
"","","","","","html-button-response","38","153702","0.0-38.0","6BA87722024F425DA62A86EA204FAF32","e1382e50-cd00-4135-a281-dca524de2032","683bf07d-1a26-40b1-9cff-5abdc1eed0ee","","1384","
    <div style=""display: flex; justify-content: center; align-items: center;"">
      <img src=""images/red_deck_2.png"" style=""width: 300px; height: 300px; margin-right: 10px;"" />
      <img src=""images/blue_deck_1.png"" style=""width: 300px; height: 300px;"" />
    </div>","0","0"
"","","","","","html-keyboard-response","39","156715","0.0-39.0-0.0-0.0","6BA87722024F425DA62A86EA204FAF32","e1382e50-cd00-4135-a281-dca524de2032","683bf07d-1a26-40b1-9cff-5abdc1eed0ee","","null","<div style=""display: flex; justify-content: center; align-items: center;"">
                <img src=""images/causal/causal_series_2/causal_series_2_d.jpg"" style=""width: 300px; height: 300px;"" />
              </div>","null",""
"","","","","","html-keyboard-response","40","159730","0.0-40.0","6BA87722024F425DA62A86EA204FAF32","e1382e50-cd00-4135-a281-dca524de2032","683bf07d-1a26-40b1-9cff-5abdc1eed0ee","","null","<div style=""display: flex; justify-content: center; align-items: center;"">
                <img src=""images/other/blank.jpg"" style=""width: 300px; height: 300px;"" />
              </div>","null",""
"","","","","","html-keyboard-response","41","162745","0.0-41.0","6BA87722024F425DA62A86EA204FAF32","e1382e50-cd00-4135-a281-dca524de2032","683bf07d-1a26-40b1-9cff-5abdc1eed0ee","","null","<div style=""display: flex; justify-content: center; align-items: center;"">
                <img src=""images/causal/causal_series_18/causal_series_18_a.jpg"" style=""width: 300px; height: 300px;"" />
              </div>","null",""
"","","","","","html-keyboard-response","42","165761","0.0-42.0","6BA87722024F425DA62A86EA204FAF32","e1382e50-cd00-4135-a281-dca524de2032","683bf07d-1a26-40b1-9cff-5abdc1eed0ee","","null","<div style=""display: flex; justify-content: center; align-items: center;"">
                <img src=""images/causal/causal_series_18/causal_series_18_b.jpg"" style=""width: 300px; height: 300px;"" />
              </div>","null",""
"","","","","","html-keyboard-response","43","168774","0.0-43.0","6BA87722024F425DA62A86EA204FAF32","e1382e50-cd00-4135-a281-dca524de2032","683bf07d-1a26-40b1-9cff-5abdc1eed0ee","","null","<div style=""display: flex; justify-content: center; align-items: center;"">
                <img src=""images/causal/causal_series_18/causal_series_18_c.jpg"" style=""width: 300px; height: 300px;"" />
              </div>","null",""
"","","","","","html-button-response","44","170710","0.0-44.0","6BA87722024F425DA62A86EA204FAF32","e1382e50-cd00-4135-a281-dca524de2032","683bf07d-1a26-40b1-9cff-5abdc1eed0ee","","1935","
    <div style=""display: flex; justify-content: center; align-items: center;"">
      <img src=""images/red_deck_2.png"" style=""width: 300px; height: 300px; margin-right: 10px;"" />
      <img src=""images/blue_deck_1.png"" style=""width: 300px; height: 300px;"" />
    </div>","0","0"
"","","","","","html-keyboard-response","45","173715","0.0-45.0-0.0-0.0","6BA87722024F425DA62A86EA204FAF32","e1382e50-cd00-4135-a281-dca524de2032","683bf07d-1a26-40b1-9cff-5abdc1eed0ee","","null","<div style=""display: flex; justify-content: center; align-items: center;"">
                <img src=""images/causal/causal_series_18/causal_series_18_d.jpg"" style=""width: 300px; height: 300px;"" />
              </div>","null",""
"","","","","","html-keyboard-response","46","176719","0.0-46.0","6BA87722024F425DA62A86EA204FAF32","e1382e50-cd00-4135-a281-dca524de2032","683bf07d-1a26-40b1-9cff-5abdc1eed0ee","","null","<div style=""display: flex; justify-content: center; align-items: center;"">
                <img src=""images/other/blank.jpg"" style=""width: 300px; height: 300px;"" />
              </div>","null",""
"","","","","","html-keyboard-response","47","179736","0.0-47.0","6BA87722024F425DA62A86EA204FAF32","e1382e50-cd00-4135-a281-dca524de2032","683bf07d-1a26-40b1-9cff-5abdc1eed0ee","","null","<div style=""display: flex; justify-content: center; align-items: center;"">
                <img src=""images/causal/causal_series_17/causal_series_17_a.jpg"" style=""width: 300px; height: 300px;"" />
              </div>","null",""
"","","","","","html-keyboard-response","48","182751","0.0-48.0","6BA87722024F425DA62A86EA204FAF32","e1382e50-cd00-4135-a281-dca524de2032","683bf07d-1a26-40b1-9cff-5abdc1eed0ee","","null","<div style=""display: flex; justify-content: center; align-items: center;"">
                <img src=""images/causal/causal_series_17/causal_series_17_b.jpg"" style=""width: 300px; height: 300px;"" />
              </div>","null",""
"","","","","","html-keyboard-response","49","185766","0.0-49.0","6BA87722024F425DA62A86EA204FAF32","e1382e50-cd00-4135-a281-dca524de2032","683bf07d-1a26-40b1-9cff-5abdc1eed0ee","","null","<div style=""display: flex; justify-content: center; align-items: center;"">
                <img src=""images/causal/causal_series_17/causal_series_17_c.jpg"" style=""width: 300px; height: 300px;"" />
              </div>","null",""
"","","","","","html-button-response","50","187632","0.0-50.0","6BA87722024F425DA62A86EA204FAF32","e1382e50-cd00-4135-a281-dca524de2032","683bf07d-1a26-40b1-9cff-5abdc1eed0ee","","1865","
    <div style=""display: flex; justify-content: center; align-items: center;"">
      <img src=""images/red_deck_2.png"" style=""width: 300px; height: 300px; margin-right: 10px;"" />
      <img src=""images/blue_deck_1.png"" style=""width: 300px; height: 300px;"" />
    </div>","0","0"
"","","","","","html-keyboard-response","51","190647","0.0-51.0-0.0-0.0","6BA87722024F425DA62A86EA204FAF32","e1382e50-cd00-4135-a281-dca524de2032","683bf07d-1a26-40b1-9cff-5abdc1eed0ee","","null","<div style=""display: flex; justify-content: center; align-items: center;"">
                <img src=""images/causal/causal_series_17/causal_series_17_d.jpg"" style=""width: 300px; height: 300px;"" />
              </div>","null",""
"","","","","","html-keyboard-response","52","193661","0.0-52.0","6BA87722024F425DA62A86EA204FAF32","e1382e50-cd00-4135-a281-dca524de2032","683bf07d-1a26-40b1-9cff-5abdc1eed0ee","","null","<div style=""display: flex; justify-content: center; align-items: center;"">
                <img src=""images/other/blank.jpg"" style=""width: 300px; height: 300px;"" />
              </div>","null",""
"","","","","","html-keyboard-response","53","196675","0.0-53.0","6BA87722024F425DA62A86EA204FAF32","e1382e50-cd00-4135-a281-dca524de2032","683bf07d-1a26-40b1-9cff-5abdc1eed0ee","","null","<div style=""display: flex; justify-content: center; align-items: center;"">
                <img src=""images/causal/causal_series_13/causal_series_13_a.jpg"" style=""width: 300px; height: 300px;"" />
              </div>","null",""
"","","","","","html-keyboard-response","54","199691","0.0-54.0","6BA87722024F425DA62A86EA204FAF32","e1382e50-cd00-4135-a281-dca524de2032","683bf07d-1a26-40b1-9cff-5abdc1eed0ee","","null","<div style=""display: flex; justify-content: center; align-items: center;"">
                <img src=""images/causal/causal_series_13/causal_series_13_b.jpg"" style=""width: 300px; height: 300px;"" />
              </div>","null",""
"","","","","","html-keyboard-response","55","202707","0.0-55.0","6BA87722024F425DA62A86EA204FAF32","e1382e50-cd00-4135-a281-dca524de2032","683bf07d-1a26-40b1-9cff-5abdc1eed0ee","","null","<div style=""display: flex; justify-content: center; align-items: center;"">
                <img src=""images/causal/causal_series_13/causal_series_13_c.jpg"" style=""width: 300px; height: 300px;"" />
              </div>","null",""
"","","","","","html-button-response","56","203659","0.0-56.0","6BA87722024F425DA62A86EA204FAF32","e1382e50-cd00-4135-a281-dca524de2032","683bf07d-1a26-40b1-9cff-5abdc1eed0ee","","950","
    <div style=""display: flex; justify-content: center; align-items: center;"">
      <img src=""images/red_deck_2.png"" style=""width: 300px; height: 300px; margin-right: 10px;"" />
      <img src=""images/blue_deck_1.png"" style=""width: 300px; height: 300px;"" />
    </div>","1","1"
"","","","","","html-keyboard-response","57","206671","0.0-57.0-1.0-0.0","6BA87722024F425DA62A86EA204FAF32","e1382e50-cd00-4135-a281-dca524de2032","683bf07d-1a26-40b1-9cff-5abdc1eed0ee","","null","<div style=""display: flex; justify-content: center; align-items: center;"">
                <img src=""images/semantic/semantic_series_12/semantic_series_12_d.jpg"" style=""width: 300px; height: 300px;"" />
              </div>","null",""
"","","","","","html-keyboard-response","58","209687","0.0-58.0","6BA87722024F425DA62A86EA204FAF32","e1382e50-cd00-4135-a281-dca524de2032","683bf07d-1a26-40b1-9cff-5abdc1eed0ee","","null","<div style=""display: flex; justify-content: center; align-items: center;"">
                <img src=""images/other/blank.jpg"" style=""width: 300px; height: 300px;"" />
              </div>","null",""
"","","","","","html-keyboard-response","59","212700","0.0-59.0","6BA87722024F425DA62A86EA204FAF32","e1382e50-cd00-4135-a281-dca524de2032","683bf07d-1a26-40b1-9cff-5abdc1eed0ee","","null","<div style=""display: flex; justify-content: center; align-items: center;"">
                <img src=""images/causal/causal_series_7/causal_series_7_a.jpg"" style=""width: 300px; height: 300px;"" />
              </div>","null",""
"","","","","","html-keyboard-response","60","215715","0.0-60.0","6BA87722024F425DA62A86EA204FAF32","e1382e50-cd00-4135-a281-dca524de2032","683bf07d-1a26-40b1-9cff-5abdc1eed0ee","","null","<div style=""display: flex; justify-content: center; align-items: center;"">
                <img src=""images/causal/causal_series_7/causal_series_7_b.jpg"" style=""width: 300px; height: 300px;"" />
              </div>","null",""
"","","","","","html-keyboard-response","61","218731","0.0-61.0","6BA87722024F425DA62A86EA204FAF32","e1382e50-cd00-4135-a281-dca524de2032","683bf07d-1a26-40b1-9cff-5abdc1eed0ee","","null","<div style=""display: flex; justify-content: center; align-items: center;"">
                <img src=""images/causal/causal_series_7/causal_series_7_c.jpg"" style=""width: 300px; height: 300px;"" />
              </div>","null",""
"","","","","","html-button-response","62","220629","0.0-62.0","6BA87722024F425DA62A86EA204FAF32","e1382e50-cd00-4135-a281-dca524de2032","683bf07d-1a26-40b1-9cff-5abdc1eed0ee","","1896","
    <div style=""display: flex; justify-content: center; align-items: center;"">
      <img src=""images/red_deck_2.png"" style=""width: 300px; height: 300px; margin-right: 10px;"" />
      <img src=""images/blue_deck_1.png"" style=""width: 300px; height: 300px;"" />
    </div>","0","0"
"","","","","","html-keyboard-response","63","223630","0.0-63.0-0.0-0.0","6BA87722024F425DA62A86EA204FAF32","e1382e50-cd00-4135-a281-dca524de2032","683bf07d-1a26-40b1-9cff-5abdc1eed0ee","","null","<div style=""display: flex; justify-content: center; align-items: center;"">
                <img src=""images/causal/causal_series_7/causal_series_7_d.jpg"" style=""width: 300px; height: 300px;"" />
              </div>","null",""
"","","","","","html-keyboard-response","64","226641","0.0-64.0","6BA87722024F425DA62A86EA204FAF32","e1382e50-cd00-4135-a281-dca524de2032","683bf07d-1a26-40b1-9cff-5abdc1eed0ee","","null","<div style=""display: flex; justify-content: center; align-items: center;"">
                <img src=""images/other/blank.jpg"" style=""width: 300px; height: 300px;"" />
              </div>","null",""
"","","","","","html-keyboard-response","65","229658","0.0-65.0","6BA87722024F425DA62A86EA204FAF32","e1382e50-cd00-4135-a281-dca524de2032","683bf07d-1a26-40b1-9cff-5abdc1eed0ee","","null","<div style=""display: flex; justify-content: center; align-items: center;"">
                <img src=""images/causal/causal_series_9/causal_series_9_a.jpg"" style=""width: 300px; height: 300px;"" />
              </div>","null",""
"","","","","","html-keyboard-response","66","232673","0.0-66.0","6BA87722024F425DA62A86EA204FAF32","e1382e50-cd00-4135-a281-dca524de2032","683bf07d-1a26-40b1-9cff-5abdc1eed0ee","","null","<div style=""display: flex; justify-content: center; align-items: center;"">
                <img src=""images/causal/causal_series_9/causal_series_9_b.jpg"" style=""width: 300px; height: 300px;"" />
              </div>","null",""
"","","","","","html-keyboard-response","67","235686","0.0-67.0","6BA87722024F425DA62A86EA204FAF32","e1382e50-cd00-4135-a281-dca524de2032","683bf07d-1a26-40b1-9cff-5abdc1eed0ee","","null","<div style=""display: flex; justify-content: center; align-items: center;"">
                <img src=""images/causal/causal_series_9/causal_series_9_c.jpg"" style=""width: 300px; height: 300px;"" />
              </div>","null",""
"","","","","","html-button-response","68","238083","0.0-68.0","6BA87722024F425DA62A86EA204FAF32","e1382e50-cd00-4135-a281-dca524de2032","683bf07d-1a26-40b1-9cff-5abdc1eed0ee","","2396","
    <div style=""display: flex; justify-content: center; align-items: center;"">
      <img src=""images/red_deck_2.png"" style=""width: 300px; height: 300px; margin-right: 10px;"" />
      <img src=""images/blue_deck_1.png"" style=""width: 300px; height: 300px;"" />
    </div>","1","1"
"","","","","","html-keyboard-response","69","241084","0.0-69.0-1.0-0.0","6BA87722024F425DA62A86EA204FAF32","e1382e50-cd00-4135-a281-dca524de2032","683bf07d-1a26-40b1-9cff-5abdc1eed0ee","","null","<div style=""display: flex; justify-content: center; align-items: center;"">
                <img src=""images/semantic/semantic_series_8/semantic_series_8_d.jpg"" style=""width: 300px; height: 300px;"" />
              </div>","null",""
"","","","","","html-keyboard-response","70","244099","0.0-70.0","6BA87722024F425DA62A86EA204FAF32","e1382e50-cd00-4135-a281-dca524de2032","683bf07d-1a26-40b1-9cff-5abdc1eed0ee","","null","<div style=""display: flex; justify-content: center; align-items: center;"">
                <img src=""images/other/blank.jpg"" style=""width: 300px; height: 300px;"" />
              </div>","null",""
"","","","","","html-keyboard-response","71","247114","0.0-71.0","6BA87722024F425DA62A86EA204FAF32","e1382e50-cd00-4135-a281-dca524de2032","683bf07d-1a26-40b1-9cff-5abdc1eed0ee","","null","<div style=""display: flex; justify-content: center; align-items: center;"">
                <img src=""images/causal/causal_series_15/causal_series_15_a.jpg"" style=""width: 300px; height: 300px;"" />
              </div>","null",""
"","","","","","html-keyboard-response","72","250131","0.0-72.0","6BA87722024F425DA62A86EA204FAF32","e1382e50-cd00-4135-a281-dca524de2032","683bf07d-1a26-40b1-9cff-5abdc1eed0ee","","null","<div style=""display: flex; justify-content: center; align-items: center;"">
                <img src=""images/causal/causal_series_15/causal_series_15_b.jpg"" style=""width: 300px; height: 300px;"" />
              </div>","null",""
"","","","","","html-keyboard-response","73","253145","0.0-73.0","6BA87722024F425DA62A86EA204FAF32","e1382e50-cd00-4135-a281-dca524de2032","683bf07d-1a26-40b1-9cff-5abdc1eed0ee","","null","<div style=""display: flex; justify-content: center; align-items: center;"">
                <img src=""images/causal/causal_series_15/causal_series_15_c.jpg"" style=""width: 300px; height: 300px;"" />
              </div>","null",""
"","","","","","html-button-response","74","254493","0.0-74.0","6BA87722024F425DA62A86EA204FAF32","e1382e50-cd00-4135-a281-dca524de2032","683bf07d-1a26-40b1-9cff-5abdc1eed0ee","","1347","
    <div style=""display: flex; justify-content: center; align-items: center;"">
      <img src=""images/red_deck_2.png"" style=""width: 300px; height: 300px; margin-right: 10px;"" />
      <img src=""images/blue_deck_1.png"" style=""width: 300px; height: 300px;"" />
    </div>","1","1"
"","","","","","html-keyboard-response","75","257509","0.0-75.0-1.0-0.0","6BA87722024F425DA62A86EA204FAF32","e1382e50-cd00-4135-a281-dca524de2032","683bf07d-1a26-40b1-9cff-5abdc1eed0ee","","null","<div style=""display: flex; justify-content: center; align-items: center;"">
                <img src=""images/semantic/semantic_series_14/semantic_series_14_d.jpg"" style=""width: 300px; height: 300px;"" />
              </div>","null",""
"","","","","","html-keyboard-response","76","260522","0.0-76.0","6BA87722024F425DA62A86EA204FAF32","e1382e50-cd00-4135-a281-dca524de2032","683bf07d-1a26-40b1-9cff-5abdc1eed0ee","","null","<div style=""display: flex; justify-content: center; align-items: center;"">
                <img src=""images/other/blank.jpg"" style=""width: 300px; height: 300px;"" />
              </div>","null",""
"","","","","","html-keyboard-response","77","263524","0.0-77.0","6BA87722024F425DA62A86EA204FAF32","e1382e50-cd00-4135-a281-dca524de2032","683bf07d-1a26-40b1-9cff-5abdc1eed0ee","","null","<div style=""display: flex; justify-content: center; align-items: center;"">
                <img src=""images/causal/causal_series_8/causal_series_8_a.jpg"" style=""width: 300px; height: 300px;"" />
              </div>","null",""
"","","","","","html-keyboard-response","78","266539","0.0-78.0","6BA87722024F425DA62A86EA204FAF32","e1382e50-cd00-4135-a281-dca524de2032","683bf07d-1a26-40b1-9cff-5abdc1eed0ee","","null","<div style=""display: flex; justify-content: center; align-items: center;"">
                <img src=""images/causal/causal_series_8/causal_series_8_b.jpg"" style=""width: 300px; height: 300px;"" />
              </div>","null",""
"","","","","","html-keyboard-response","79","269546","0.0-79.0","6BA87722024F425DA62A86EA204FAF32","e1382e50-cd00-4135-a281-dca524de2032","683bf07d-1a26-40b1-9cff-5abdc1eed0ee","","null","<div style=""display: flex; justify-content: center; align-items: center;"">
                <img src=""images/causal/causal_series_8/causal_series_8_c.jpg"" style=""width: 300px; height: 300px;"" />
              </div>","null",""
"","","","","","html-button-response","80","270805","0.0-80.0","6BA87722024F425DA62A86EA204FAF32","e1382e50-cd00-4135-a281-dca524de2032","683bf07d-1a26-40b1-9cff-5abdc1eed0ee","","1259","
    <div style=""display: flex; justify-content: center; align-items: center;"">
      <img src=""images/red_deck_2.png"" style=""width: 300px; height: 300px; margin-right: 10px;"" />
      <img src=""images/blue_deck_1.png"" style=""width: 300px; height: 300px;"" />
    </div>","0","0"
"","","","","","html-keyboard-response","81","273806","0.0-81.0-0.0-0.0","6BA87722024F425DA62A86EA204FAF32","e1382e50-cd00-4135-a281-dca524de2032","683bf07d-1a26-40b1-9cff-5abdc1eed0ee","","null","<div style=""display: flex; justify-content: center; align-items: center;"">
                <img src=""images/causal/causal_series_8/causal_series_8_d.jpg"" style=""width: 300px; height: 300px;"" />
              </div>","null",""
"","","","","","html-keyboard-response","82","276808","0.0-82.0","6BA87722024F425DA62A86EA204FAF32","e1382e50-cd00-4135-a281-dca524de2032","683bf07d-1a26-40b1-9cff-5abdc1eed0ee","","null","<div style=""display: flex; justify-content: center; align-items: center;"">
                <img src=""images/other/blank.jpg"" style=""width: 300px; height: 300px;"" />
              </div>","null",""
"","","","","","html-keyboard-response","83","279813","0.0-83.0","6BA87722024F425DA62A86EA204FAF32","e1382e50-cd00-4135-a281-dca524de2032","683bf07d-1a26-40b1-9cff-5abdc1eed0ee","","null","<div style=""display: flex; justify-content: center; align-items: center;"">
                <img src=""images/causal/causal_series_16/causal_series_16_a.jpg"" style=""width: 300px; height: 300px;"" />
              </div>","null",""
"","","","","","html-keyboard-response","84","282830","0.0-84.0","6BA87722024F425DA62A86EA204FAF32","e1382e50-cd00-4135-a281-dca524de2032","683bf07d-1a26-40b1-9cff-5abdc1eed0ee","","null","<div style=""display: flex; justify-content: center; align-items: center;"">
                <img src=""images/causal/causal_series_16/causal_series_16_b.jpg"" style=""width: 300px; height: 300px;"" />
              </div>","null",""
"","","","","","html-keyboard-response","85","285845","0.0-85.0","6BA87722024F425DA62A86EA204FAF32","e1382e50-cd00-4135-a281-dca524de2032","683bf07d-1a26-40b1-9cff-5abdc1eed0ee","","null","<div style=""display: flex; justify-content: center; align-items: center;"">
                <img src=""images/causal/causal_series_16/causal_series_16_c.jpg"" style=""width: 300px; height: 300px;"" />
              </div>","null",""
"","","","","","html-button-response","86","287395","0.0-86.0","6BA87722024F425DA62A86EA204FAF32","e1382e50-cd00-4135-a281-dca524de2032","683bf07d-1a26-40b1-9cff-5abdc1eed0ee","","1549","
    <div style=""display: flex; justify-content: center; align-items: center;"">
      <img src=""images/red_deck_2.png"" style=""width: 300px; height: 300px; margin-right: 10px;"" />
      <img src=""images/blue_deck_1.png"" style=""width: 300px; height: 300px;"" />
    </div>","0","0"
"","","","","","html-keyboard-response","87","290403","0.0-87.0-0.0-0.0","6BA87722024F425DA62A86EA204FAF32","e1382e50-cd00-4135-a281-dca524de2032","683bf07d-1a26-40b1-9cff-5abdc1eed0ee","","null","<div style=""display: flex; justify-content: center; align-items: center;"">
                <img src=""images/causal/causal_series_16/causal_series_16_d.jpg"" style=""width: 300px; height: 300px;"" />
              </div>","null",""
"","","","","","html-keyboard-response","88","293407","0.0-88.0","6BA87722024F425DA62A86EA204FAF32","e1382e50-cd00-4135-a281-dca524de2032","683bf07d-1a26-40b1-9cff-5abdc1eed0ee","","null","<div style=""display: flex; justify-content: center; align-items: center;"">
                <img src=""images/other/blank.jpg"" style=""width: 300px; height: 300px;"" />
              </div>","null",""
"","","","","","html-keyboard-response","89","296421","0.0-89.0","6BA87722024F425DA62A86EA204FAF32","e1382e50-cd00-4135-a281-dca524de2032","683bf07d-1a26-40b1-9cff-5abdc1eed0ee","","null","<div style=""display: flex; justify-content: center; align-items: center;"">
                <img src=""images/causal/causal_series_6/causal_series_6_a.jpg"" style=""width: 300px; height: 300px;"" />
              </div>","null",""
"","","","","","html-keyboard-response","90","299437","0.0-90.0","6BA87722024F425DA62A86EA204FAF32","e1382e50-cd00-4135-a281-dca524de2032","683bf07d-1a26-40b1-9cff-5abdc1eed0ee","","null","<div style=""display: flex; justify-content: center; align-items: center;"">
                <img src=""images/causal/causal_series_6/causal_series_6_b.jpg"" style=""width: 300px; height: 300px;"" />
              </div>","null",""
"","","","","","html-keyboard-response","91","302453","0.0-91.0","6BA87722024F425DA62A86EA204FAF32","e1382e50-cd00-4135-a281-dca524de2032","683bf07d-1a26-40b1-9cff-5abdc1eed0ee","","null","<div style=""display: flex; justify-content: center; align-items: center;"">
                <img src=""images/causal/causal_series_6/causal_series_6_c.jpg"" style=""width: 300px; height: 300px;"" />
              </div>","null",""
"","","","","","html-button-response","92","305636","0.0-92.0","6BA87722024F425DA62A86EA204FAF32","e1382e50-cd00-4135-a281-dca524de2032","683bf07d-1a26-40b1-9cff-5abdc1eed0ee","","3182","
    <div style=""display: flex; justify-content: center; align-items: center;"">
      <img src=""images/red_deck_2.png"" style=""width: 300px; height: 300px; margin-right: 10px;"" />
      <img src=""images/blue_deck_1.png"" style=""width: 300px; height: 300px;"" />
    </div>","1","1"
"","","","","","html-keyboard-response","93","308647","0.0-93.0-1.0-0.0","6BA87722024F425DA62A86EA204FAF32","e1382e50-cd00-4135-a281-dca524de2032","683bf07d-1a26-40b1-9cff-5abdc1eed0ee","","null","<div style=""display: flex; justify-content: center; align-items: center;"">
                <img src=""images/semantic/semantic_series_5/semantic_series_5_d.jpg"" style=""width: 300px; height: 300px;"" />
              </div>","null",""
"","","","","","html-keyboard-response","94","311663","0.0-94.0","6BA87722024F425DA62A86EA204FAF32","e1382e50-cd00-4135-a281-dca524de2032","683bf07d-1a26-40b1-9cff-5abdc1eed0ee","","null","<div style=""display: flex; justify-content: center; align-items: center;"">
                <img src=""images/other/blank.jpg"" style=""width: 300px; height: 300px;"" />
              </div>","null",""
"","","","","","html-keyboard-response","95","314678","0.0-95.0","6BA87722024F425DA62A86EA204FAF32","e1382e50-cd00-4135-a281-dca524de2032","683bf07d-1a26-40b1-9cff-5abdc1eed0ee","","null","<div style=""display: flex; justify-content: center; align-items: center;"">
                <img src=""images/causal/causal_series_1/causal_series_1_a.jpg"" style=""width: 300px; height: 300px;"" />
              </div>","null",""
"","","","","","html-keyboard-response","96","317694","0.0-96.0","6BA87722024F425DA62A86EA204FAF32","e1382e50-cd00-4135-a281-dca524de2032","683bf07d-1a26-40b1-9cff-5abdc1eed0ee","","null","<div style=""display: flex; justify-content: center; align-items: center;"">
                <img src=""images/causal/causal_series_1/causal_series_1_b.jpg"" style=""width: 300px; height: 300px;"" />
              </div>","null",""
"","","","","","html-keyboard-response","97","320701","0.0-97.0","6BA87722024F425DA62A86EA204FAF32","e1382e50-cd00-4135-a281-dca524de2032","683bf07d-1a26-40b1-9cff-5abdc1eed0ee","","null","<div style=""display: flex; justify-content: center; align-items: center;"">
                <img src=""images/causal/causal_series_1/causal_series_1_c.jpg"" style=""width: 300px; height: 300px;"" />
              </div>","null",""
"","","","","","html-button-response","98","323190","0.0-98.0","6BA87722024F425DA62A86EA204FAF32","e1382e50-cd00-4135-a281-dca524de2032","683bf07d-1a26-40b1-9cff-5abdc1eed0ee","","2488","
    <div style=""display: flex; justify-content: center; align-items: center;"">
      <img src=""images/red_deck_2.png"" style=""width: 300px; height: 300px; margin-right: 10px;"" />
      <img src=""images/blue_deck_1.png"" style=""width: 300px; height: 300px;"" />
    </div>","1","1"
"","","","","","html-keyboard-response","99","326205","0.0-99.0-1.0-0.0","6BA87722024F425DA62A86EA204FAF32","e1382e50-cd00-4135-a281-dca524de2032","683bf07d-1a26-40b1-9cff-5abdc1eed0ee","","null","<div style=""display: flex; justify-content: center; align-items: center;"">
                <img src=""images/semantic/semantic_series_18/semantic_series_18_d.jpg"" style=""width: 300px; height: 300px;"" />
              </div>","null",""
"","","","","","html-keyboard-response","100","329219","0.0-100.0","6BA87722024F425DA62A86EA204FAF32","e1382e50-cd00-4135-a281-dca524de2032","683bf07d-1a26-40b1-9cff-5abdc1eed0ee","","null","<div style=""display: flex; justify-content: center; align-items: center;"">
                <img src=""images/other/blank.jpg"" style=""width: 300px; height: 300px;"" />
              </div>","null",""
"","","","","","html-keyboard-response","101","332236","0.0-101.0","6BA87722024F425DA62A86EA204FAF32","e1382e50-cd00-4135-a281-dca524de2032","683bf07d-1a26-40b1-9cff-5abdc1eed0ee","","null","<div style=""display: flex; justify-content: center; align-items: center;"">
                <img src=""images/causal/causal_series_5/causal_series_5_a.jpg"" style=""width: 300px; height: 300px;"" />
              </div>","null",""
"","","","","","html-keyboard-response","102","335242","0.0-102.0","6BA87722024F425DA62A86EA204FAF32","e1382e50-cd00-4135-a281-dca524de2032","683bf07d-1a26-40b1-9cff-5abdc1eed0ee","","null","<div style=""display: flex; justify-content: center; align-items: center;"">
                <img src=""images/causal/causal_series_5/causal_series_5_b.jpg"" style=""width: 300px; height: 300px;"" />
              </div>","null",""
"","","","","","html-keyboard-response","103","338248","0.0-103.0","6BA87722024F425DA62A86EA204FAF32","e1382e50-cd00-4135-a281-dca524de2032","683bf07d-1a26-40b1-9cff-5abdc1eed0ee","","null","<div style=""display: flex; justify-content: center; align-items: center;"">
                <img src=""images/causal/causal_series_5/causal_series_5_c.jpg"" style=""width: 300px; height: 300px;"" />
              </div>","null",""
"","","","","","html-button-response","104","340398","0.0-104.0","6BA87722024F425DA62A86EA204FAF32","e1382e50-cd00-4135-a281-dca524de2032","683bf07d-1a26-40b1-9cff-5abdc1eed0ee","","2149","
    <div style=""display: flex; justify-content: center; align-items: center;"">
      <img src=""images/red_deck_2.png"" style=""width: 300px; height: 300px; margin-right: 10px;"" />
      <img src=""images/blue_deck_1.png"" style=""width: 300px; height: 300px;"" />
    </div>","0","0"
"","","","","","html-keyboard-response","105","343407","0.0-105.0-0.0-0.0","6BA87722024F425DA62A86EA204FAF32","e1382e50-cd00-4135-a281-dca524de2032","683bf07d-1a26-40b1-9cff-5abdc1eed0ee","","null","<div style=""display: flex; justify-content: center; align-items: center;"">
                <img src=""images/causal/causal_series_5/causal_series_5_d.jpg"" style=""width: 300px; height: 300px;"" />
              </div>","null",""
"","","","","","html-keyboard-response","106","346418","0.0-106.0","6BA87722024F425DA62A86EA204FAF32","e1382e50-cd00-4135-a281-dca524de2032","683bf07d-1a26-40b1-9cff-5abdc1eed0ee","","null","<div style=""display: flex; justify-content: center; align-items: center;"">
                <img src=""images/other/blank.jpg"" style=""width: 300px; height: 300px;"" />
              </div>","null",""
"","","","","","html-keyboard-response","107","349424","0.0-107.0","6BA87722024F425DA62A86EA204FAF32","e1382e50-cd00-4135-a281-dca524de2032","683bf07d-1a26-40b1-9cff-5abdc1eed0ee","","null","<div style=""display: flex; justify-content: center; align-items: center;"">
                <img src=""images/causal/causal_series_4/causal_series_4_a.jpg"" style=""width: 300px; height: 300px;"" />
              </div>","null",""
"","","","","","html-keyboard-response","108","352437","0.0-108.0","6BA87722024F425DA62A86EA204FAF32","e1382e50-cd00-4135-a281-dca524de2032","683bf07d-1a26-40b1-9cff-5abdc1eed0ee","","null","<div style=""display: flex; justify-content: center; align-items: center;"">
                <img src=""images/causal/causal_series_4/causal_series_4_b.jpg"" style=""width: 300px; height: 300px;"" />
              </div>","null",""
"","","","","","html-keyboard-response","109","355440","0.0-109.0","6BA87722024F425DA62A86EA204FAF32","e1382e50-cd00-4135-a281-dca524de2032","683bf07d-1a26-40b1-9cff-5abdc1eed0ee","","null","<div style=""display: flex; justify-content: center; align-items: center;"">
                <img src=""images/causal/causal_series_4/causal_series_4_c.jpg"" style=""width: 300px; height: 300px;"" />
              </div>","null",""
"","","","","","html-button-response","110","357773","0.0-110.0","6BA87722024F425DA62A86EA204FAF32","e1382e50-cd00-4135-a281-dca524de2032","683bf07d-1a26-40b1-9cff-5abdc1eed0ee","","2332","
    <div style=""display: flex; justify-content: center; align-items: center;"">
      <img src=""images/red_deck_2.png"" style=""width: 300px; height: 300px; margin-right: 10px;"" />
      <img src=""images/blue_deck_1.png"" style=""width: 300px; height: 300px;"" />
    </div>","0","0"
"","","","","","html-keyboard-response","111","360786","0.0-111.0-0.0-0.0","6BA87722024F425DA62A86EA204FAF32","e1382e50-cd00-4135-a281-dca524de2032","683bf07d-1a26-40b1-9cff-5abdc1eed0ee","","null","<div style=""display: flex; justify-content: center; align-items: center;"">
                <img src=""images/causal/causal_series_4/causal_series_4_d.jpg"" style=""width: 300px; height: 300px;"" />
              </div>","null",""
"","","","","","html-keyboard-response","112","363802","0.0-112.0","6BA87722024F425DA62A86EA204FAF32","e1382e50-cd00-4135-a281-dca524de2032","683bf07d-1a26-40b1-9cff-5abdc1eed0ee","","null","<div style=""display: flex; justify-content: center; align-items: center;"">
                <img src=""images/other/blank.jpg"" style=""width: 300px; height: 300px;"" />
              </div>","null",""
"","","","","","survey-text","113","392468","0.0-113.0","6BA87722024F425DA62A86EA204FAF32","e1382e50-cd00-4135-a281-dca524de2032","683bf07d-1a26-40b1-9cff-5abdc1eed0ee","","28661","","{""Q0"":""One deck is blue and the other is red.""}",""
"","","","","","survey-text","114","408678","0.0-114.0","6BA87722024F425DA62A86EA204FAF32","e1382e50-cd00-4135-a281-dca524de2032","683bf07d-1a26-40b1-9cff-5abdc1eed0ee","","16209","","{""Q0"":""Both were interesting.""}",""
"","","","","","html-button-response","115","425965","0.0-115.0","6BA87722024F425DA62A86EA204FAF32","e1382e50-cd00-4135-a281-dca524de2032","683bf07d-1a26-40b1-9cff-5abdc1eed0ee","","17287","Which color deck does the fourth image continue the story from the series?","1",""
"","","","","","html-button-response","116","430133","0.0-116.0","6BA87722024F425DA62A86EA204FAF32","e1382e50-cd00-4135-a281-dca524de2032","683bf07d-1a26-40b1-9cff-5abdc1eed0ee","","4167","Which color deck does the fourth image not follow the story from the series?","0",""
"","","","","","survey-text","117","439181","0.0-117.0","6BA87722024F425DA62A86EA204FAF32","e1382e50-cd00-4135-a281-dca524de2032","683bf07d-1a26-40b1-9cff-5abdc1eed0ee","","9045","","{""Q0"":""FEMALE"",""Q1"":""31""}",""
"","","","","","instructions","118","444379","0.0-118.0","6BA87722024F425DA62A86EA204FAF32","e1382e50-cd00-4135-a281-dca524de2032","683bf07d-1a26-40b1-9cff-5abdc1eed0ee","[{""page_index"":0,""viewing_time"":5198}]","5198","","",""
