"success","timeout","failed_images","failed_audio","failed_video","trial_type","trial_index","time_elapsed","internal_node_id","subject_id","study_id","session_id","view_history","rt","stimulus","response","choice","question_order"
"true","false","[]","[]","[]","preload","0","769","0.0-0.0","AFFBEAC33F8A47D0B70727B751F79AD0","0199d086-41bf-7014-87e3-7a2303827bbd","0199d07a-b3b8-7ad8-bd6b-b36dd7b47ed6","","","","","",""
"","","","","","instructions","1","15047","0.0-1.0","AFFBEAC33F8A47D0B70727B751F79AD0","0199d086-41bf-7014-87e3-7a2303827bbd","0199d07a-b3b8-7ad8-bd6b-b36dd7b47ed6","[{""page_index"":0,""viewing_time"":14277}]","14277","","","",""
"","","","","","instructions","2","18006","0.0-2.0","AFFBEAC33F8A47D0B70727B751F79AD0","0199d086-41bf-7014-87e3-7a2303827bbd","0199d07a-b3b8-7ad8-bd6b-b36dd7b47ed6","[{""page_index"":0,""viewing_time"":2957}]","2958","","","",""
"true","","","","","fullscreen","3","21446","0.0-3.0","AFFBEAC33F8A47D0B70727B751F79AD0","0199d086-41bf-7014-87e3-7a2303827bbd","0199d07a-b3b8-7ad8-bd6b-b36dd7b47ed6","","2404","","","",""
"","","","","","instructions","4","29303","0.0-4.0","AFFBEAC33F8A47D0B70727B751F79AD0","0199d086-41bf-7014-87e3-7a2303827bbd","0199d07a-b3b8-7ad8-bd6b-b36dd7b47ed6","[{""page_index"":0,""viewing_time"":7856}]","7857","","","",""
"","","","","","html-keyboard-response","5","36314","0.0-5.0","AFFBEAC33F8A47D0B70727B751F79AD0","0199d086-41bf-7014-87e3-7a2303827bbd","0199d07a-b3b8-7ad8-bd6b-b36dd7b47ed6","","null","<div style=""display: flex; justify-content: center; align-items: center;"">
                     <img src=""images/causal/causal_series_3/causal_series_3_a.png"" style=""width: 300px; height: 300px;"" />
                   </div>","null","",""
"","","","","","html-keyboard-response","6","43319","0.0-6.0","AFFBEAC33F8A47D0B70727B751F79AD0","0199d086-41bf-7014-87e3-7a2303827bbd","0199d07a-b3b8-7ad8-bd6b-b36dd7b47ed6","","null","<div style=""display: flex; justify-content: center; align-items: center;"">
                     <img src=""images/causal/causal_series_3/causal_series_3_b.png"" style=""width: 300px; height: 300px;"" />
                   </div>","null","",""
"","","","","","html-keyboard-response","7","50331","0.0-7.0","AFFBEAC33F8A47D0B70727B751F79AD0","0199d086-41bf-7014-87e3-7a2303827bbd","0199d07a-b3b8-7ad8-bd6b-b36dd7b47ed6","","null","<div style=""display: flex; justify-content: center; align-items: center;"">
                     <img src=""images/causal/causal_series_3/causal_series_3_c.png"" style=""width: 300px; height: 300px;"" />
                   </div>","null","",""
"","","","","","html-button-response","8","53705","0.0-8.0","AFFBEAC33F8A47D0B70727B751F79AD0","0199d086-41bf-7014-87e3-7a2303827bbd","0199d07a-b3b8-7ad8-bd6b-b36dd7b47ed6","","3372","
        <div style=""display: flex; justify-content: center; align-items: center;"">
          <img src=""images/red_deck_2.png"" style=""width: 300px; height: 300px; margin-right: 10px;"" />
          <img src=""images/blue_deck_1.png"" style=""width: 300px; height: 300px;"" />
        </div>","0","0",""
"","","","","","html-keyboard-response","9","60721","0.0-9.0-0.0-0.0","AFFBEAC33F8A47D0B70727B751F79AD0","0199d086-41bf-7014-87e3-7a2303827bbd","0199d07a-b3b8-7ad8-bd6b-b36dd7b47ed6","","null","<div style=""display: flex; justify-content: center; align-items: center;"">
                     <img src=""images/causal/causal_series_3/causal_series_3_d.png"" style=""width: 300px; height: 300px;"" />
                   </div>","null","",""
"","","","","","survey-likert","10","65037","0.0-10.0","AFFBEAC33F8A47D0B70727B751F79AD0","0199d086-41bf-7014-87e3-7a2303827bbd","0199d07a-b3b8-7ad8-bd6b-b36dd7b47ed6","","4315","","{""Q0"":1}","","[0]"
"","","","","","survey-likert","11","67195","0.0-11.0","AFFBEAC33F8A47D0B70727B751F79AD0","0199d086-41bf-7014-87e3-7a2303827bbd","0199d07a-b3b8-7ad8-bd6b-b36dd7b47ed6","","2156","","{""Q0"":3}","","[0]"
"","","","","","html-keyboard-response","12","74209","0.0-12.0","AFFBEAC33F8A47D0B70727B751F79AD0","0199d086-41bf-7014-87e3-7a2303827bbd","0199d07a-b3b8-7ad8-bd6b-b36dd7b47ed6","","null","<div style=""display: flex; justify-content: center; align-items: center;"">
                     <img src=""images/other/blank.png"" style=""width: 300px; height: 300px;"" />
                   </div>","null","",""
"","","","","","html-keyboard-response","13","81214","0.0-13.0","AFFBEAC33F8A47D0B70727B751F79AD0","0199d086-41bf-7014-87e3-7a2303827bbd","0199d07a-b3b8-7ad8-bd6b-b36dd7b47ed6","","null","<div style=""display: flex; justify-content: center; align-items: center;"">
                     <img src=""images/causal/causal_series_6/causal_series_6_a.png"" style=""width: 300px; height: 300px;"" />
                   </div>","null","",""
"","","","","","html-keyboard-response","14","88229","0.0-14.0","AFFBEAC33F8A47D0B70727B751F79AD0","0199d086-41bf-7014-87e3-7a2303827bbd","0199d07a-b3b8-7ad8-bd6b-b36dd7b47ed6","","null","<div style=""display: flex; justify-content: center; align-items: center;"">
                     <img src=""images/causal/causal_series_6/causal_series_6_b.png"" style=""width: 300px; height: 300px;"" />
                   </div>","null","",""
"","","","","","html-keyboard-response","15","95246","0.0-15.0","AFFBEAC33F8A47D0B70727B751F79AD0","0199d086-41bf-7014-87e3-7a2303827bbd","0199d07a-b3b8-7ad8-bd6b-b36dd7b47ed6","","null","<div style=""display: flex; justify-content: center; align-items: center;"">
                     <img src=""images/causal/causal_series_6/causal_series_6_c.png"" style=""width: 300px; height: 300px;"" />
                   </div>","null","",""
"","","","","","html-button-response","16","97354","0.0-16.0","AFFBEAC33F8A47D0B70727B751F79AD0","0199d086-41bf-7014-87e3-7a2303827bbd","0199d07a-b3b8-7ad8-bd6b-b36dd7b47ed6","","2108","
        <div style=""display: flex; justify-content: center; align-items: center;"">
          <img src=""images/red_deck_2.png"" style=""width: 300px; height: 300px; margin-right: 10px;"" />
          <img src=""images/blue_deck_1.png"" style=""width: 300px; height: 300px;"" />
        </div>","0","0",""
"","","","","","html-keyboard-response","17","104359","0.0-17.0-0.0-0.0","AFFBEAC33F8A47D0B70727B751F79AD0","0199d086-41bf-7014-87e3-7a2303827bbd","0199d07a-b3b8-7ad8-bd6b-b36dd7b47ed6","","null","<div style=""display: flex; justify-content: center; align-items: center;"">
                     <img src=""images/causal/causal_series_6/causal_series_6_d.png"" style=""width: 300px; height: 300px;"" />
                   </div>","null","",""
"","","","","","survey-likert","18","112136","0.0-18.0","AFFBEAC33F8A47D0B70727B751F79AD0","0199d086-41bf-7014-87e3-7a2303827bbd","0199d07a-b3b8-7ad8-bd6b-b36dd7b47ed6","","7776","","{""Q0"":0}","","[0]"
"","","","","","survey-likert","19","113346","0.0-19.0","AFFBEAC33F8A47D0B70727B751F79AD0","0199d086-41bf-7014-87e3-7a2303827bbd","0199d07a-b3b8-7ad8-bd6b-b36dd7b47ed6","","1209","","{""Q0"":3}","","[0]"
"","","","","","html-keyboard-response","20","120347","0.0-20.0","AFFBEAC33F8A47D0B70727B751F79AD0","0199d086-41bf-7014-87e3-7a2303827bbd","0199d07a-b3b8-7ad8-bd6b-b36dd7b47ed6","","null","<div style=""display: flex; justify-content: center; align-items: center;"">
                     <img src=""images/other/blank.png"" style=""width: 300px; height: 300px;"" />
                   </div>","null","",""
"","","","","","html-keyboard-response","21","127355","0.0-21.0","AFFBEAC33F8A47D0B70727B751F79AD0","0199d086-41bf-7014-87e3-7a2303827bbd","0199d07a-b3b8-7ad8-bd6b-b36dd7b47ed6","","null","<div style=""display: flex; justify-content: center; align-items: center;"">
                     <img src=""images/causal/causal_series_7/causal_series_7_a.png"" style=""width: 300px; height: 300px;"" />
                   </div>","null","",""
"","","","","","html-keyboard-response","22","134361","0.0-22.0","AFFBEAC33F8A47D0B70727B751F79AD0","0199d086-41bf-7014-87e3-7a2303827bbd","0199d07a-b3b8-7ad8-bd6b-b36dd7b47ed6","","null","<div style=""display: flex; justify-content: center; align-items: center;"">
                     <img src=""images/causal/causal_series_7/causal_series_7_b.png"" style=""width: 300px; height: 300px;"" />
                   </div>","null","",""
"","","","","","html-keyboard-response","23","141361","0.0-23.0","AFFBEAC33F8A47D0B70727B751F79AD0","0199d086-41bf-7014-87e3-7a2303827bbd","0199d07a-b3b8-7ad8-bd6b-b36dd7b47ed6","","null","<div style=""display: flex; justify-content: center; align-items: center;"">
                     <img src=""images/causal/causal_series_7/causal_series_7_c.png"" style=""width: 300px; height: 300px;"" />
                   </div>","null","",""
"","","","","","html-button-response","24","142736","0.0-24.0","AFFBEAC33F8A47D0B70727B751F79AD0","0199d086-41bf-7014-87e3-7a2303827bbd","0199d07a-b3b8-7ad8-bd6b-b36dd7b47ed6","","1374","
        <div style=""display: flex; justify-content: center; align-items: center;"">
          <img src=""images/red_deck_2.png"" style=""width: 300px; height: 300px; margin-right: 10px;"" />
          <img src=""images/blue_deck_1.png"" style=""width: 300px; height: 300px;"" />
        </div>","0","0",""
"","","","","","html-keyboard-response","25","149747","0.0-25.0-0.0-0.0","AFFBEAC33F8A47D0B70727B751F79AD0","0199d086-41bf-7014-87e3-7a2303827bbd","0199d07a-b3b8-7ad8-bd6b-b36dd7b47ed6","","null","<div style=""display: flex; justify-content: center; align-items: center;"">
                     <img src=""images/causal/causal_series_7/causal_series_7_d.png"" style=""width: 300px; height: 300px;"" />
                   </div>","null","",""
"","","","","","survey-likert","26","153709","0.0-26.0","AFFBEAC33F8A47D0B70727B751F79AD0","0199d086-41bf-7014-87e3-7a2303827bbd","0199d07a-b3b8-7ad8-bd6b-b36dd7b47ed6","","3962","","{""Q0"":0}","","[0]"
"","","","","","survey-likert","27","154657","0.0-27.0","AFFBEAC33F8A47D0B70727B751F79AD0","0199d086-41bf-7014-87e3-7a2303827bbd","0199d07a-b3b8-7ad8-bd6b-b36dd7b47ed6","","948","","{""Q0"":3}","","[0]"
"","","","","","html-keyboard-response","28","161669","0.0-28.0","AFFBEAC33F8A47D0B70727B751F79AD0","0199d086-41bf-7014-87e3-7a2303827bbd","0199d07a-b3b8-7ad8-bd6b-b36dd7b47ed6","","null","<div style=""display: flex; justify-content: center; align-items: center;"">
                     <img src=""images/other/blank.png"" style=""width: 300px; height: 300px;"" />
                   </div>","null","",""
"","","","","","html-keyboard-response","29","168677","0.0-29.0","AFFBEAC33F8A47D0B70727B751F79AD0","0199d086-41bf-7014-87e3-7a2303827bbd","0199d07a-b3b8-7ad8-bd6b-b36dd7b47ed6","","null","<div style=""display: flex; justify-content: center; align-items: center;"">
                     <img src=""images/causal/causal_series_4/causal_series_4_a.png"" style=""width: 300px; height: 300px;"" />
                   </div>","null","",""
"","","","","","html-keyboard-response","30","175684","0.0-30.0","AFFBEAC33F8A47D0B70727B751F79AD0","0199d086-41bf-7014-87e3-7a2303827bbd","0199d07a-b3b8-7ad8-bd6b-b36dd7b47ed6","","null","<div style=""display: flex; justify-content: center; align-items: center;"">
                     <img src=""images/causal/causal_series_4/causal_series_4_b.png"" style=""width: 300px; height: 300px;"" />
                   </div>","null","",""
"","","","","","html-keyboard-response","31","182695","0.0-31.0","AFFBEAC33F8A47D0B70727B751F79AD0","0199d086-41bf-7014-87e3-7a2303827bbd","0199d07a-b3b8-7ad8-bd6b-b36dd7b47ed6","","null","<div style=""display: flex; justify-content: center; align-items: center;"">
                     <img src=""images/causal/causal_series_4/causal_series_4_c.png"" style=""width: 300px; height: 300px;"" />
                   </div>","null","",""
"","","","","","html-button-response","32","184362","0.0-32.0","AFFBEAC33F8A47D0B70727B751F79AD0","0199d086-41bf-7014-87e3-7a2303827bbd","0199d07a-b3b8-7ad8-bd6b-b36dd7b47ed6","","1666","
        <div style=""display: flex; justify-content: center; align-items: center;"">
          <img src=""images/red_deck_2.png"" style=""width: 300px; height: 300px; margin-right: 10px;"" />
          <img src=""images/blue_deck_1.png"" style=""width: 300px; height: 300px;"" />
        </div>","0","0",""
"","","","","","html-keyboard-response","33","191377","0.0-33.0-0.0-0.0","AFFBEAC33F8A47D0B70727B751F79AD0","0199d086-41bf-7014-87e3-7a2303827bbd","0199d07a-b3b8-7ad8-bd6b-b36dd7b47ed6","","null","<div style=""display: flex; justify-content: center; align-items: center;"">
                     <img src=""images/causal/causal_series_4/causal_series_4_d.png"" style=""width: 300px; height: 300px;"" />
                   </div>","null","",""
"","","","","","survey-likert","34","195950","0.0-34.0","AFFBEAC33F8A47D0B70727B751F79AD0","0199d086-41bf-7014-87e3-7a2303827bbd","0199d07a-b3b8-7ad8-bd6b-b36dd7b47ed6","","4572","","{""Q0"":0}","","[0]"
"","","","","","survey-likert","35","196842","0.0-35.0","AFFBEAC33F8A47D0B70727B751F79AD0","0199d086-41bf-7014-87e3-7a2303827bbd","0199d07a-b3b8-7ad8-bd6b-b36dd7b47ed6","","891","","{""Q0"":3}","","[0]"
"","","","","","html-keyboard-response","36","203849","0.0-36.0","AFFBEAC33F8A47D0B70727B751F79AD0","0199d086-41bf-7014-87e3-7a2303827bbd","0199d07a-b3b8-7ad8-bd6b-b36dd7b47ed6","","null","<div style=""display: flex; justify-content: center; align-items: center;"">
                     <img src=""images/other/blank.png"" style=""width: 300px; height: 300px;"" />
                   </div>","null","",""
"","","","","","html-keyboard-response","37","210856","0.0-37.0","AFFBEAC33F8A47D0B70727B751F79AD0","0199d086-41bf-7014-87e3-7a2303827bbd","0199d07a-b3b8-7ad8-bd6b-b36dd7b47ed6","","null","<div style=""display: flex; justify-content: center; align-items: center;"">
                     <img src=""images/causal/causal_series_9/causal_series_9_a.png"" style=""width: 300px; height: 300px;"" />
                   </div>","null","",""
"","","","","","html-keyboard-response","38","217870","0.0-38.0","AFFBEAC33F8A47D0B70727B751F79AD0","0199d086-41bf-7014-87e3-7a2303827bbd","0199d07a-b3b8-7ad8-bd6b-b36dd7b47ed6","","null","<div style=""display: flex; justify-content: center; align-items: center;"">
                     <img src=""images/causal/causal_series_9/causal_series_9_b.png"" style=""width: 300px; height: 300px;"" />
                   </div>","null","",""
"","","","","","html-keyboard-response","39","224879","0.0-39.0","AFFBEAC33F8A47D0B70727B751F79AD0","0199d086-41bf-7014-87e3-7a2303827bbd","0199d07a-b3b8-7ad8-bd6b-b36dd7b47ed6","","null","<div style=""display: flex; justify-content: center; align-items: center;"">
                     <img src=""images/causal/causal_series_9/causal_series_9_c.png"" style=""width: 300px; height: 300px;"" />
                   </div>","null","",""
"","","","","","html-button-response","40","226273","0.0-40.0","AFFBEAC33F8A47D0B70727B751F79AD0","0199d086-41bf-7014-87e3-7a2303827bbd","0199d07a-b3b8-7ad8-bd6b-b36dd7b47ed6","","1393","
        <div style=""display: flex; justify-content: center; align-items: center;"">
          <img src=""images/red_deck_2.png"" style=""width: 300px; height: 300px; margin-right: 10px;"" />
          <img src=""images/blue_deck_1.png"" style=""width: 300px; height: 300px;"" />
        </div>","0","0",""
"","","","","","html-keyboard-response","41","233282","0.0-41.0-0.0-0.0","AFFBEAC33F8A47D0B70727B751F79AD0","0199d086-41bf-7014-87e3-7a2303827bbd","0199d07a-b3b8-7ad8-bd6b-b36dd7b47ed6","","null","<div style=""display: flex; justify-content: center; align-items: center;"">
                     <img src=""images/causal/causal_series_9/causal_series_9_d.png"" style=""width: 300px; height: 300px;"" />
                   </div>","null","",""
"","","","","","survey-likert","42","236644","0.0-42.0","AFFBEAC33F8A47D0B70727B751F79AD0","0199d086-41bf-7014-87e3-7a2303827bbd","0199d07a-b3b8-7ad8-bd6b-b36dd7b47ed6","","3362","","{""Q0"":0}","","[0]"
"","","","","","survey-likert","43","237534","0.0-43.0","AFFBEAC33F8A47D0B70727B751F79AD0","0199d086-41bf-7014-87e3-7a2303827bbd","0199d07a-b3b8-7ad8-bd6b-b36dd7b47ed6","","890","","{""Q0"":3}","","[0]"
"","","","","","html-keyboard-response","44","244546","0.0-44.0","AFFBEAC33F8A47D0B70727B751F79AD0","0199d086-41bf-7014-87e3-7a2303827bbd","0199d07a-b3b8-7ad8-bd6b-b36dd7b47ed6","","null","<div style=""display: flex; justify-content: center; align-items: center;"">
                     <img src=""images/other/blank.png"" style=""width: 300px; height: 300px;"" />
                   </div>","null","",""
"","","","","","html-keyboard-response","45","251557","0.0-45.0","AFFBEAC33F8A47D0B70727B751F79AD0","0199d086-41bf-7014-87e3-7a2303827bbd","0199d07a-b3b8-7ad8-bd6b-b36dd7b47ed6","","null","<div style=""display: flex; justify-content: center; align-items: center;"">
                     <img src=""images/causal/causal_series_1/causal_series_1_a.png"" style=""width: 300px; height: 300px;"" />
                   </div>","null","",""
"","","","","","html-keyboard-response","46","258564","0.0-46.0","AFFBEAC33F8A47D0B70727B751F79AD0","0199d086-41bf-7014-87e3-7a2303827bbd","0199d07a-b3b8-7ad8-bd6b-b36dd7b47ed6","","null","<div style=""display: flex; justify-content: center; align-items: center;"">
                     <img src=""images/causal/causal_series_1/causal_series_1_b.png"" style=""width: 300px; height: 300px;"" />
                   </div>","null","",""
"","","","","","html-keyboard-response","47","265564","0.0-47.0","AFFBEAC33F8A47D0B70727B751F79AD0","0199d086-41bf-7014-87e3-7a2303827bbd","0199d07a-b3b8-7ad8-bd6b-b36dd7b47ed6","","null","<div style=""display: flex; justify-content: center; align-items: center;"">
                     <img src=""images/causal/causal_series_1/causal_series_1_c.png"" style=""width: 300px; height: 300px;"" />
                   </div>","null","",""
"","","","","","html-button-response","48","266983","0.0-48.0","AFFBEAC33F8A47D0B70727B751F79AD0","0199d086-41bf-7014-87e3-7a2303827bbd","0199d07a-b3b8-7ad8-bd6b-b36dd7b47ed6","","1418","
        <div style=""display: flex; justify-content: center; align-items: center;"">
          <img src=""images/red_deck_2.png"" style=""width: 300px; height: 300px; margin-right: 10px;"" />
          <img src=""images/blue_deck_1.png"" style=""width: 300px; height: 300px;"" />
        </div>","1","1",""
"","","","","","html-keyboard-response","49","273989","0.0-49.0-1.0-0.0","AFFBEAC33F8A47D0B70727B751F79AD0","0199d086-41bf-7014-87e3-7a2303827bbd","0199d07a-b3b8-7ad8-bd6b-b36dd7b47ed6","","null","<div style=""display: flex; justify-content: center; align-items: center;"">
                     <img src=""images/semantic/semantic_series_1/semantic_series_1_d.png"" style=""width: 300px; height: 300px;"" />
                   </div>","null","",""
"","","","","","survey-likert","50","277881","0.0-50.0","AFFBEAC33F8A47D0B70727B751F79AD0","0199d086-41bf-7014-87e3-7a2303827bbd","0199d07a-b3b8-7ad8-bd6b-b36dd7b47ed6","","3891","","{""Q0"":0}","","[0]"
"","","","","","survey-likert","51","279284","0.0-51.0","AFFBEAC33F8A47D0B70727B751F79AD0","0199d086-41bf-7014-87e3-7a2303827bbd","0199d07a-b3b8-7ad8-bd6b-b36dd7b47ed6","","1402","","{""Q0"":3}","","[0]"
"","","","","","html-keyboard-response","52","286295","0.0-52.0","AFFBEAC33F8A47D0B70727B751F79AD0","0199d086-41bf-7014-87e3-7a2303827bbd","0199d07a-b3b8-7ad8-bd6b-b36dd7b47ed6","","null","<div style=""display: flex; justify-content: center; align-items: center;"">
                     <img src=""images/other/blank.png"" style=""width: 300px; height: 300px;"" />
                   </div>","null","",""
"","","","","","html-keyboard-response","53","293308","0.0-53.0","AFFBEAC33F8A47D0B70727B751F79AD0","0199d086-41bf-7014-87e3-7a2303827bbd","0199d07a-b3b8-7ad8-bd6b-b36dd7b47ed6","","null","<div style=""display: flex; justify-content: center; align-items: center;"">
                     <img src=""images/causal/causal_series_5/causal_series_5_a.png"" style=""width: 300px; height: 300px;"" />
                   </div>","null","",""
"","","","","","html-keyboard-response","54","300314","0.0-54.0","AFFBEAC33F8A47D0B70727B751F79AD0","0199d086-41bf-7014-87e3-7a2303827bbd","0199d07a-b3b8-7ad8-bd6b-b36dd7b47ed6","","null","<div style=""display: flex; justify-content: center; align-items: center;"">
                     <img src=""images/causal/causal_series_5/causal_series_5_b.png"" style=""width: 300px; height: 300px;"" />
                   </div>","null","",""
"","","","","","html-keyboard-response","55","307319","0.0-55.0","AFFBEAC33F8A47D0B70727B751F79AD0","0199d086-41bf-7014-87e3-7a2303827bbd","0199d07a-b3b8-7ad8-bd6b-b36dd7b47ed6","","null","<div style=""display: flex; justify-content: center; align-items: center;"">
                     <img src=""images/causal/causal_series_5/causal_series_5_c.png"" style=""width: 300px; height: 300px;"" />
                   </div>","null","",""
"","","","","","html-button-response","56","309154","0.0-56.0","AFFBEAC33F8A47D0B70727B751F79AD0","0199d086-41bf-7014-87e3-7a2303827bbd","0199d07a-b3b8-7ad8-bd6b-b36dd7b47ed6","","1835","
        <div style=""display: flex; justify-content: center; align-items: center;"">
          <img src=""images/red_deck_2.png"" style=""width: 300px; height: 300px; margin-right: 10px;"" />
          <img src=""images/blue_deck_1.png"" style=""width: 300px; height: 300px;"" />
        </div>","0","0",""
"","","","","","html-keyboard-response","57","316167","0.0-57.0-0.0-0.0","AFFBEAC33F8A47D0B70727B751F79AD0","0199d086-41bf-7014-87e3-7a2303827bbd","0199d07a-b3b8-7ad8-bd6b-b36dd7b47ed6","","null","<div style=""display: flex; justify-content: center; align-items: center;"">
                     <img src=""images/causal/causal_series_5/causal_series_5_d.png"" style=""width: 300px; height: 300px;"" />
                   </div>","null","",""
"","","","","","survey-likert","58","322293","0.0-58.0","AFFBEAC33F8A47D0B70727B751F79AD0","0199d086-41bf-7014-87e3-7a2303827bbd","0199d07a-b3b8-7ad8-bd6b-b36dd7b47ed6","","6125","","{""Q0"":0}","","[0]"
"","","","","","survey-likert","59","323190","0.0-59.0","AFFBEAC33F8A47D0B70727B751F79AD0","0199d086-41bf-7014-87e3-7a2303827bbd","0199d07a-b3b8-7ad8-bd6b-b36dd7b47ed6","","897","","{""Q0"":3}","","[0]"
"","","","","","html-keyboard-response","60","330202","0.0-60.0","AFFBEAC33F8A47D0B70727B751F79AD0","0199d086-41bf-7014-87e3-7a2303827bbd","0199d07a-b3b8-7ad8-bd6b-b36dd7b47ed6","","null","<div style=""display: flex; justify-content: center; align-items: center;"">
                     <img src=""images/other/blank.png"" style=""width: 300px; height: 300px;"" />
                   </div>","null","",""
"","","","","","html-keyboard-response","61","337209","0.0-61.0","AFFBEAC33F8A47D0B70727B751F79AD0","0199d086-41bf-7014-87e3-7a2303827bbd","0199d07a-b3b8-7ad8-bd6b-b36dd7b47ed6","","null","<div style=""display: flex; justify-content: center; align-items: center;"">
                     <img src=""images/causal/causal_series_10/causal_series_10_a.png"" style=""width: 300px; height: 300px;"" />
                   </div>","null","",""
"","","","","","html-keyboard-response","62","344219","0.0-62.0","AFFBEAC33F8A47D0B70727B751F79AD0","0199d086-41bf-7014-87e3-7a2303827bbd","0199d07a-b3b8-7ad8-bd6b-b36dd7b47ed6","","null","<div style=""display: flex; justify-content: center; align-items: center;"">
                     <img src=""images/causal/causal_series_10/causal_series_10_b.png"" style=""width: 300px; height: 300px;"" />
                   </div>","null","",""
"","","","","","html-keyboard-response","63","351229","0.0-63.0","AFFBEAC33F8A47D0B70727B751F79AD0","0199d086-41bf-7014-87e3-7a2303827bbd","0199d07a-b3b8-7ad8-bd6b-b36dd7b47ed6","","null","<div style=""display: flex; justify-content: center; align-items: center;"">
                     <img src=""images/causal/causal_series_10/causal_series_10_c.png"" style=""width: 300px; height: 300px;"" />
                   </div>","null","",""
"","","","","","html-button-response","64","352629","0.0-64.0","AFFBEAC33F8A47D0B70727B751F79AD0","0199d086-41bf-7014-87e3-7a2303827bbd","0199d07a-b3b8-7ad8-bd6b-b36dd7b47ed6","","1399","
        <div style=""display: flex; justify-content: center; align-items: center;"">
          <img src=""images/red_deck_2.png"" style=""width: 300px; height: 300px; margin-right: 10px;"" />
          <img src=""images/blue_deck_1.png"" style=""width: 300px; height: 300px;"" />
        </div>","0","0",""
"","","","","","html-keyboard-response","65","359637","0.0-65.0-0.0-0.0","AFFBEAC33F8A47D0B70727B751F79AD0","0199d086-41bf-7014-87e3-7a2303827bbd","0199d07a-b3b8-7ad8-bd6b-b36dd7b47ed6","","null","<div style=""display: flex; justify-content: center; align-items: center;"">
                     <img src=""images/causal/causal_series_10/causal_series_10_d.png"" style=""width: 300px; height: 300px;"" />
                   </div>","null","",""
"","","","","","survey-likert","66","366548","0.0-66.0","AFFBEAC33F8A47D0B70727B751F79AD0","0199d086-41bf-7014-87e3-7a2303827bbd","0199d07a-b3b8-7ad8-bd6b-b36dd7b47ed6","","6911","","{""Q0"":0}","","[0]"
"","","","","","survey-likert","67","368177","0.0-67.0","AFFBEAC33F8A47D0B70727B751F79AD0","0199d086-41bf-7014-87e3-7a2303827bbd","0199d07a-b3b8-7ad8-bd6b-b36dd7b47ed6","","1629","","{""Q0"":3}","","[0]"
"","","","","","html-keyboard-response","68","375189","0.0-68.0","AFFBEAC33F8A47D0B70727B751F79AD0","0199d086-41bf-7014-87e3-7a2303827bbd","0199d07a-b3b8-7ad8-bd6b-b36dd7b47ed6","","null","<div style=""display: flex; justify-content: center; align-items: center;"">
                     <img src=""images/other/blank.png"" style=""width: 300px; height: 300px;"" />
                   </div>","null","",""
"","","","","","html-keyboard-response","69","382197","0.0-69.0","AFFBEAC33F8A47D0B70727B751F79AD0","0199d086-41bf-7014-87e3-7a2303827bbd","0199d07a-b3b8-7ad8-bd6b-b36dd7b47ed6","","null","<div style=""display: flex; justify-content: center; align-items: center;"">
                     <img src=""images/causal/causal_series_8/causal_series_8_a.png"" style=""width: 300px; height: 300px;"" />
                   </div>","null","",""
"","","","","","html-keyboard-response","70","389201","0.0-70.0","AFFBEAC33F8A47D0B70727B751F79AD0","0199d086-41bf-7014-87e3-7a2303827bbd","0199d07a-b3b8-7ad8-bd6b-b36dd7b47ed6","","null","<div style=""display: flex; justify-content: center; align-items: center;"">
                     <img src=""images/causal/causal_series_8/causal_series_8_b.png"" style=""width: 300px; height: 300px;"" />
                   </div>","null","",""
"","","","","","html-keyboard-response","71","396210","0.0-71.0","AFFBEAC33F8A47D0B70727B751F79AD0","0199d086-41bf-7014-87e3-7a2303827bbd","0199d07a-b3b8-7ad8-bd6b-b36dd7b47ed6","","null","<div style=""display: flex; justify-content: center; align-items: center;"">
                     <img src=""images/causal/causal_series_8/causal_series_8_c.png"" style=""width: 300px; height: 300px;"" />
                   </div>","null","",""
"","","","","","html-button-response","72","397925","0.0-72.0","AFFBEAC33F8A47D0B70727B751F79AD0","0199d086-41bf-7014-87e3-7a2303827bbd","0199d07a-b3b8-7ad8-bd6b-b36dd7b47ed6","","1715","
        <div style=""display: flex; justify-content: center; align-items: center;"">
          <img src=""images/red_deck_2.png"" style=""width: 300px; height: 300px; margin-right: 10px;"" />
          <img src=""images/blue_deck_1.png"" style=""width: 300px; height: 300px;"" />
        </div>","0","0",""
"","","","","","html-keyboard-response","73","404929","0.0-73.0-0.0-0.0","AFFBEAC33F8A47D0B70727B751F79AD0","0199d086-41bf-7014-87e3-7a2303827bbd","0199d07a-b3b8-7ad8-bd6b-b36dd7b47ed6","","null","<div style=""display: flex; justify-content: center; align-items: center;"">
                     <img src=""images/causal/causal_series_8/causal_series_8_d.png"" style=""width: 300px; height: 300px;"" />
                   </div>","null","",""
"","","","","","survey-likert","74","406746","0.0-74.0","AFFBEAC33F8A47D0B70727B751F79AD0","0199d086-41bf-7014-87e3-7a2303827bbd","0199d07a-b3b8-7ad8-bd6b-b36dd7b47ed6","","1817","","{""Q0"":0}","","[0]"
"","","","","","survey-likert","75","407988","0.0-75.0","AFFBEAC33F8A47D0B70727B751F79AD0","0199d086-41bf-7014-87e3-7a2303827bbd","0199d07a-b3b8-7ad8-bd6b-b36dd7b47ed6","","1241","","{""Q0"":3}","","[0]"
"","","","","","html-keyboard-response","76","414999","0.0-76.0","AFFBEAC33F8A47D0B70727B751F79AD0","0199d086-41bf-7014-87e3-7a2303827bbd","0199d07a-b3b8-7ad8-bd6b-b36dd7b47ed6","","null","<div style=""display: flex; justify-content: center; align-items: center;"">
                     <img src=""images/other/blank.png"" style=""width: 300px; height: 300px;"" />
                   </div>","null","",""
"","","","","","html-keyboard-response","77","422003","0.0-77.0","AFFBEAC33F8A47D0B70727B751F79AD0","0199d086-41bf-7014-87e3-7a2303827bbd","0199d07a-b3b8-7ad8-bd6b-b36dd7b47ed6","","null","<div style=""display: flex; justify-content: center; align-items: center;"">
                     <img src=""images/causal/causal_series_2/causal_series_2_a.png"" style=""width: 300px; height: 300px;"" />
                   </div>","null","",""
"","","","","","html-keyboard-response","78","429012","0.0-78.0","AFFBEAC33F8A47D0B70727B751F79AD0","0199d086-41bf-7014-87e3-7a2303827bbd","0199d07a-b3b8-7ad8-bd6b-b36dd7b47ed6","","null","<div style=""display: flex; justify-content: center; align-items: center;"">
                     <img src=""images/causal/causal_series_2/causal_series_2_b.png"" style=""width: 300px; height: 300px;"" />
                   </div>","null","",""
"","","","","","html-keyboard-response","79","436019","0.0-79.0","AFFBEAC33F8A47D0B70727B751F79AD0","0199d086-41bf-7014-87e3-7a2303827bbd","0199d07a-b3b8-7ad8-bd6b-b36dd7b47ed6","","null","<div style=""display: flex; justify-content: center; align-items: center;"">
                     <img src=""images/causal/causal_series_2/causal_series_2_c.png"" style=""width: 300px; height: 300px;"" />
                   </div>","null","",""
"","","","","","html-button-response","80","437719","0.0-80.0","AFFBEAC33F8A47D0B70727B751F79AD0","0199d086-41bf-7014-87e3-7a2303827bbd","0199d07a-b3b8-7ad8-bd6b-b36dd7b47ed6","","1699","
        <div style=""display: flex; justify-content: center; align-items: center;"">
          <img src=""images/red_deck_2.png"" style=""width: 300px; height: 300px; margin-right: 10px;"" />
          <img src=""images/blue_deck_1.png"" style=""width: 300px; height: 300px;"" />
        </div>","0","0",""
"","","","","","html-keyboard-response","81","444734","0.0-81.0-0.0-0.0","AFFBEAC33F8A47D0B70727B751F79AD0","0199d086-41bf-7014-87e3-7a2303827bbd","0199d07a-b3b8-7ad8-bd6b-b36dd7b47ed6","","null","<div style=""display: flex; justify-content: center; align-items: center;"">
                     <img src=""images/causal/causal_series_2/causal_series_2_d.png"" style=""width: 300px; height: 300px;"" />
                   </div>","null","",""
"","","","","","survey-likert","82","448096","0.0-82.0","AFFBEAC33F8A47D0B70727B751F79AD0","0199d086-41bf-7014-87e3-7a2303827bbd","0199d07a-b3b8-7ad8-bd6b-b36dd7b47ed6","","3362","","{""Q0"":0}","","[0]"
"","","","","","survey-likert","83","450394","0.0-83.0","AFFBEAC33F8A47D0B70727B751F79AD0","0199d086-41bf-7014-87e3-7a2303827bbd","0199d07a-b3b8-7ad8-bd6b-b36dd7b47ed6","","2297","","{""Q0"":3}","","[0]"
"","","","","","html-keyboard-response","84","457410","0.0-84.0","AFFBEAC33F8A47D0B70727B751F79AD0","0199d086-41bf-7014-87e3-7a2303827bbd","0199d07a-b3b8-7ad8-bd6b-b36dd7b47ed6","","null","<div style=""display: flex; justify-content: center; align-items: center;"">
                     <img src=""images/other/blank.png"" style=""width: 300px; height: 300px;"" />
                   </div>","null","",""
"","","","","","survey-text","85","475023","0.0-85.0","AFFBEAC33F8A47D0B70727B751F79AD0","0199d086-41bf-7014-87e3-7a2303827bbd","0199d07a-b3b8-7ad8-bd6b-b36dd7b47ed6","","17609","","{""Q0"":""different stories""}","",""
"","","","","","html-button-response","86","479615","0.0-86.0","AFFBEAC33F8A47D0B70727B751F79AD0","0199d086-41bf-7014-87e3-7a2303827bbd","0199d07a-b3b8-7ad8-bd6b-b36dd7b47ed6","","4592","Which color deck do the following images continue the story from?","1","",""
"","","","","","html-button-response","87","487089","0.0-87.0","AFFBEAC33F8A47D0B70727B751F79AD0","0199d086-41bf-7014-87e3-7a2303827bbd","0199d07a-b3b8-7ad8-bd6b-b36dd7b47ed6","","7474","Which color deck do the following images NOT follow the story from?","0","",""
"","","","","","html-button-response","88","493276","0.0-88.0","AFFBEAC33F8A47D0B70727B751F79AD0","0199d086-41bf-7014-87e3-7a2303827bbd","0199d07a-b3b8-7ad8-bd6b-b36dd7b47ed6","","6186","Which type of deck did you prefer overall?","0","",""
"","","","","","survey-text","89","500130","0.0-89.0","AFFBEAC33F8A47D0B70727B751F79AD0","0199d086-41bf-7014-87e3-7a2303827bbd","0199d07a-b3b8-7ad8-bd6b-b36dd7b47ed6","","6853","","{""Q0"":""MALE"",""Q1"":""31""}","",""
"","","","","","instructions","90","503676","0.0-90.0","AFFBEAC33F8A47D0B70727B751F79AD0","0199d086-41bf-7014-87e3-7a2303827bbd","0199d07a-b3b8-7ad8-bd6b-b36dd7b47ed6","[{""page_index"":0,""viewing_time"":3545}]","3545","","","",""
