"success","timeout","failed_images","failed_audio","failed_video","trial_type","trial_index","time_elapsed","internal_node_id","subject_id","study_id","session_id","view_history","rt","stimulus","response","series","repetition","phase","choice","question_order"
"true","false","[]","[]","[]","preload","0","1655","0.0-0.0","A317E36F944C4C58B45B58656C92C151","0199d67a-71bd-702a-9f88-e85de4cfb66c","0199d675-8795-765b-adc2-c813de8cd3d1","","","","","","","","",""
"","","","","","instructions","1","9684","0.0-1.0","A317E36F944C4C58B45B58656C92C151","0199d67a-71bd-702a-9f88-e85de4cfb66c","0199d675-8795-765b-adc2-c813de8cd3d1","[{""page_index"":0,""viewing_time"":8029}]","8029","","","","","","",""
"","","","","","instructions","2","17048","0.0-2.0","A317E36F944C4C58B45B58656C92C151","0199d67a-71bd-702a-9f88-e85de4cfb66c","0199d675-8795-765b-adc2-c813de8cd3d1","[{""page_index"":0,""viewing_time"":7363}]","7363","","","","","","",""
"true","","","","","fullscreen","3","19877","0.0-3.0","A317E36F944C4C58B45B58656C92C151","0199d67a-71bd-702a-9f88-e85de4cfb66c","0199d675-8795-765b-adc2-c813de8cd3d1","","1825","","","","","","",""
"","","","","","instructions","4","34532","0.0-4.0","A317E36F944C4C58B45B58656C92C151","0199d67a-71bd-702a-9f88-e85de4cfb66c","0199d675-8795-765b-adc2-c813de8cd3d1","[{""page_index"":0,""viewing_time"":14655}]","14655","","","","","","",""
"","","","","","html-keyboard-response","5","40533","0.0-5.0","A317E36F944C4C58B45B58656C92C151","0199d67a-71bd-702a-9f88-e85de4cfb66c","0199d675-8795-765b-adc2-c813de8cd3d1","","null","<div style=""display: flex; justify-content: center; align-items: center;"">
                     <img src=""images/causal/causal_series_4/causal_series_4_a.png"" style=""width: 300px; height: 300px;"" />
                   </div>","null","4","2","A","",""
"","","","","","html-button-response","6","43539","0.0-6.0","A317E36F944C4C58B45B58656C92C151","0199d67a-71bd-702a-9f88-e85de4cfb66c","0199d675-8795-765b-adc2-c813de8cd3d1","","3005","
        <div style=""display: flex; justify-content: center; align-items: center;"">
          <img src=""images/red_deck_2.png"" style=""width: 300px; height: 300px; margin-right: 10px;"" />
          <img src=""images/blue_deck_1.png"" style=""width: 300px; height: 300px;"" />
        </div>","0","4","2","choice","0",""
"","","","","","html-keyboard-response","7","49542","0.0-7.0-0.0-0.0","A317E36F944C4C58B45B58656C92C151","0199d67a-71bd-702a-9f88-e85de4cfb66c","0199d675-8795-765b-adc2-c813de8cd3d1","","null","<div style=""display: flex; justify-content: center; align-items: center;"">
                     <img src=""images/causal/causal_series_4/causal_series_4_b.png"" style=""width: 300px; height: 300px;"" />
                   </div>","null","4","2","B","",""
"","","","","","html-keyboard-response","8","55543","0.0-7.0-0.0-1.0","A317E36F944C4C58B45B58656C92C151","0199d67a-71bd-702a-9f88-e85de4cfb66c","0199d675-8795-765b-adc2-c813de8cd3d1","","null","<div style=""display: flex; justify-content: center; align-items: center;"">
                     <img src=""images/causal/causal_series_4/causal_series_4_c.png"" style=""width: 300px; height: 300px;"" />
                   </div>","null","4","2","C","",""
"","","","","","html-keyboard-response","9","61548","0.0-7.0-0.0-2.0","A317E36F944C4C58B45B58656C92C151","0199d67a-71bd-702a-9f88-e85de4cfb66c","0199d675-8795-765b-adc2-c813de8cd3d1","","null","<div style=""display: flex; justify-content: center; align-items: center;"">
                     <img src=""images/causal/causal_series_4/causal_series_4_d.png"" style=""width: 300px; height: 300px;"" />
                   </div>","null","4","2","D","",""
"","","","","","survey-likert","10","67157","0.0-8.0","A317E36F944C4C58B45B58656C92C151","0199d67a-71bd-702a-9f88-e85de4cfb66c","0199d675-8795-765b-adc2-c813de8cd3d1","","5609","","{""Q0"":3}","4","2","surprise_rating","","[0]"
"","","","","","survey-likert","11","70193","0.0-9.0","A317E36F944C4C58B45B58656C92C151","0199d67a-71bd-702a-9f88-e85de4cfb66c","0199d675-8795-765b-adc2-c813de8cd3d1","","3035","","{""Q0"":2}","4","2","enjoyment_rating","","[0]"
"","","","","","html-keyboard-response","12","76205","0.0-10.0","A317E36F944C4C58B45B58656C92C151","0199d67a-71bd-702a-9f88-e85de4cfb66c","0199d675-8795-765b-adc2-c813de8cd3d1","","null","<div style=""display: flex; justify-content: center; align-items: center;"">
                     <img src=""images/other/blank.png"" style=""width: 300px; height: 300px;"" />
                   </div>","null","0","0","blank","",""
"","","","","","html-keyboard-response","13","82211","0.0-11.0","A317E36F944C4C58B45B58656C92C151","0199d67a-71bd-702a-9f88-e85de4cfb66c","0199d675-8795-765b-adc2-c813de8cd3d1","","null","<div style=""display: flex; justify-content: center; align-items: center;"">
                     <img src=""images/causal/causal_series_9/causal_series_9_a.png"" style=""width: 300px; height: 300px;"" />
                   </div>","null","9","2","A","",""
"","","","","","html-button-response","14","84500","0.0-12.0","A317E36F944C4C58B45B58656C92C151","0199d67a-71bd-702a-9f88-e85de4cfb66c","0199d675-8795-765b-adc2-c813de8cd3d1","","2288","
        <div style=""display: flex; justify-content: center; align-items: center;"">
          <img src=""images/red_deck_2.png"" style=""width: 300px; height: 300px; margin-right: 10px;"" />
          <img src=""images/blue_deck_1.png"" style=""width: 300px; height: 300px;"" />
        </div>","1","9","2","choice","1",""
"","","","","","html-keyboard-response","15","90511","0.0-13.0-1.0-0.0","A317E36F944C4C58B45B58656C92C151","0199d67a-71bd-702a-9f88-e85de4cfb66c","0199d675-8795-765b-adc2-c813de8cd3d1","","null","<div style=""display: flex; justify-content: center; align-items: center;"">
                     <img src=""images/semantic/semantic_series_9/semantic_series_9_b.png"" style=""width: 300px; height: 300px;"" />
                   </div>","null","9","2","B","",""
"","","","","","html-keyboard-response","16","96520","0.0-13.0-1.0-1.0","A317E36F944C4C58B45B58656C92C151","0199d67a-71bd-702a-9f88-e85de4cfb66c","0199d675-8795-765b-adc2-c813de8cd3d1","","null","<div style=""display: flex; justify-content: center; align-items: center;"">
                     <img src=""images/semantic/semantic_series_9/semantic_series_9_c.png"" style=""width: 300px; height: 300px;"" />
                   </div>","null","9","2","C","",""
"","","","","","html-keyboard-response","17","102534","0.0-13.0-1.0-2.0","A317E36F944C4C58B45B58656C92C151","0199d67a-71bd-702a-9f88-e85de4cfb66c","0199d675-8795-765b-adc2-c813de8cd3d1","","null","<div style=""display: flex; justify-content: center; align-items: center;"">
                     <img src=""images/semantic/semantic_series_9/semantic_series_9_d.png"" style=""width: 300px; height: 300px;"" />
                   </div>","null","9","2","D","",""
"","","","","","survey-likert","18","107347","0.0-14.0","A317E36F944C4C58B45B58656C92C151","0199d67a-71bd-702a-9f88-e85de4cfb66c","0199d675-8795-765b-adc2-c813de8cd3d1","","4812","","{""Q0"":3}","9","2","surprise_rating","","[0]"
"","","","","","survey-likert","19","109479","0.0-15.0","A317E36F944C4C58B45B58656C92C151","0199d67a-71bd-702a-9f88-e85de4cfb66c","0199d675-8795-765b-adc2-c813de8cd3d1","","2132","","{""Q0"":3}","9","2","enjoyment_rating","","[0]"
"","","","","","html-keyboard-response","20","115491","0.0-16.0","A317E36F944C4C58B45B58656C92C151","0199d67a-71bd-702a-9f88-e85de4cfb66c","0199d675-8795-765b-adc2-c813de8cd3d1","","null","<div style=""display: flex; justify-content: center; align-items: center;"">
                     <img src=""images/other/blank.png"" style=""width: 300px; height: 300px;"" />
                   </div>","null","0","0","blank","",""
"","","","","","html-keyboard-response","21","121500","0.0-17.0","A317E36F944C4C58B45B58656C92C151","0199d67a-71bd-702a-9f88-e85de4cfb66c","0199d675-8795-765b-adc2-c813de8cd3d1","","null","<div style=""display: flex; justify-content: center; align-items: center;"">
                     <img src=""images/causal/causal_series_3/causal_series_3_a.png"" style=""width: 300px; height: 300px;"" />
                   </div>","null","3","2","A","",""
"","","","","","html-button-response","22","125146","0.0-18.0","A317E36F944C4C58B45B58656C92C151","0199d67a-71bd-702a-9f88-e85de4cfb66c","0199d675-8795-765b-adc2-c813de8cd3d1","","3645","
        <div style=""display: flex; justify-content: center; align-items: center;"">
          <img src=""images/red_deck_2.png"" style=""width: 300px; height: 300px; margin-right: 10px;"" />
          <img src=""images/blue_deck_1.png"" style=""width: 300px; height: 300px;"" />
        </div>","0","3","2","choice","0",""
"","","","","","html-keyboard-response","23","131148","0.0-19.0-0.0-0.0","A317E36F944C4C58B45B58656C92C151","0199d67a-71bd-702a-9f88-e85de4cfb66c","0199d675-8795-765b-adc2-c813de8cd3d1","","null","<div style=""display: flex; justify-content: center; align-items: center;"">
                     <img src=""images/causal/causal_series_3/causal_series_3_b.png"" style=""width: 300px; height: 300px;"" />
                   </div>","null","3","2","B","",""
"","","","","","html-keyboard-response","24","137154","0.0-19.0-0.0-1.0","A317E36F944C4C58B45B58656C92C151","0199d67a-71bd-702a-9f88-e85de4cfb66c","0199d675-8795-765b-adc2-c813de8cd3d1","","null","<div style=""display: flex; justify-content: center; align-items: center;"">
                     <img src=""images/causal/causal_series_3/causal_series_3_c.png"" style=""width: 300px; height: 300px;"" />
                   </div>","null","3","2","C","",""
"","","","","","html-keyboard-response","25","143167","0.0-19.0-0.0-2.0","A317E36F944C4C58B45B58656C92C151","0199d67a-71bd-702a-9f88-e85de4cfb66c","0199d675-8795-765b-adc2-c813de8cd3d1","","null","<div style=""display: flex; justify-content: center; align-items: center;"">
                     <img src=""images/causal/causal_series_3/causal_series_3_d.png"" style=""width: 300px; height: 300px;"" />
                   </div>","null","3","2","D","",""
"","","","","","survey-likert","26","145941","0.0-20.0","A317E36F944C4C58B45B58656C92C151","0199d67a-71bd-702a-9f88-e85de4cfb66c","0199d675-8795-765b-adc2-c813de8cd3d1","","2774","","{""Q0"":3}","3","2","surprise_rating","","[0]"
"","","","","","survey-likert","27","148421","0.0-21.0","A317E36F944C4C58B45B58656C92C151","0199d67a-71bd-702a-9f88-e85de4cfb66c","0199d675-8795-765b-adc2-c813de8cd3d1","","2480","","{""Q0"":3}","3","2","enjoyment_rating","","[0]"
"","","","","","html-keyboard-response","28","154422","0.0-22.0","A317E36F944C4C58B45B58656C92C151","0199d67a-71bd-702a-9f88-e85de4cfb66c","0199d675-8795-765b-adc2-c813de8cd3d1","","null","<div style=""display: flex; justify-content: center; align-items: center;"">
                     <img src=""images/other/blank.png"" style=""width: 300px; height: 300px;"" />
                   </div>","null","0","0","blank","",""
"","","","","","html-keyboard-response","29","160423","0.0-23.0","A317E36F944C4C58B45B58656C92C151","0199d67a-71bd-702a-9f88-e85de4cfb66c","0199d675-8795-765b-adc2-c813de8cd3d1","","null","<div style=""display: flex; justify-content: center; align-items: center;"">
                     <img src=""images/causal/causal_series_10/causal_series_10_a.png"" style=""width: 300px; height: 300px;"" />
                   </div>","null","10","1","A","",""
"","","","","","html-button-response","30","161270","0.0-24.0","A317E36F944C4C58B45B58656C92C151","0199d67a-71bd-702a-9f88-e85de4cfb66c","0199d675-8795-765b-adc2-c813de8cd3d1","","847","
        <div style=""display: flex; justify-content: center; align-items: center;"">
          <img src=""images/red_deck_2.png"" style=""width: 300px; height: 300px; margin-right: 10px;"" />
          <img src=""images/blue_deck_1.png"" style=""width: 300px; height: 300px;"" />
        </div>","1","10","1","choice","1",""
"","","","","","html-keyboard-response","31","167279","0.0-25.0-1.0-0.0","A317E36F944C4C58B45B58656C92C151","0199d67a-71bd-702a-9f88-e85de4cfb66c","0199d675-8795-765b-adc2-c813de8cd3d1","","null","<div style=""display: flex; justify-content: center; align-items: center;"">
                     <img src=""images/semantic/semantic_series_10/semantic_series_10_b.png"" style=""width: 300px; height: 300px;"" />
                   </div>","null","10","1","B","",""
"","","","","","html-keyboard-response","32","173288","0.0-25.0-1.0-1.0","A317E36F944C4C58B45B58656C92C151","0199d67a-71bd-702a-9f88-e85de4cfb66c","0199d675-8795-765b-adc2-c813de8cd3d1","","null","<div style=""display: flex; justify-content: center; align-items: center;"">
                     <img src=""images/semantic/semantic_series_10/semantic_series_10_c.png"" style=""width: 300px; height: 300px;"" />
                   </div>","null","10","1","C","",""
"","","","","","html-keyboard-response","33","179302","0.0-25.0-1.0-2.0","A317E36F944C4C58B45B58656C92C151","0199d67a-71bd-702a-9f88-e85de4cfb66c","0199d675-8795-765b-adc2-c813de8cd3d1","","null","<div style=""display: flex; justify-content: center; align-items: center;"">
                     <img src=""images/semantic/semantic_series_10/semantic_series_10_d.png"" style=""width: 300px; height: 300px;"" />
                   </div>","null","10","1","D","",""
"","","","","","survey-likert","34","181946","0.0-26.0","A317E36F944C4C58B45B58656C92C151","0199d67a-71bd-702a-9f88-e85de4cfb66c","0199d675-8795-765b-adc2-c813de8cd3d1","","2643","","{""Q0"":3}","10","1","surprise_rating","","[0]"
"","","","","","survey-likert","35","214843","0.0-27.0","A317E36F944C4C58B45B58656C92C151","0199d67a-71bd-702a-9f88-e85de4cfb66c","0199d675-8795-765b-adc2-c813de8cd3d1","","32897","","{""Q0"":2}","10","1","enjoyment_rating","","[0]"
"","","","","","html-keyboard-response","36","220851","0.0-28.0","A317E36F944C4C58B45B58656C92C151","0199d67a-71bd-702a-9f88-e85de4cfb66c","0199d675-8795-765b-adc2-c813de8cd3d1","","null","<div style=""display: flex; justify-content: center; align-items: center;"">
                     <img src=""images/other/blank.png"" style=""width: 300px; height: 300px;"" />
                   </div>","null","0","0","blank","",""
"","","","","","html-keyboard-response","37","226865","0.0-29.0","A317E36F944C4C58B45B58656C92C151","0199d67a-71bd-702a-9f88-e85de4cfb66c","0199d675-8795-765b-adc2-c813de8cd3d1","","null","<div style=""display: flex; justify-content: center; align-items: center;"">
                     <img src=""images/causal/causal_series_8/causal_series_8_a.png"" style=""width: 300px; height: 300px;"" />
                   </div>","null","8","1","A","",""
"","","","","","html-button-response","38","231500","0.0-30.0","A317E36F944C4C58B45B58656C92C151","0199d67a-71bd-702a-9f88-e85de4cfb66c","0199d675-8795-765b-adc2-c813de8cd3d1","","4634","
        <div style=""display: flex; justify-content: center; align-items: center;"">
          <img src=""images/red_deck_2.png"" style=""width: 300px; height: 300px; margin-right: 10px;"" />
          <img src=""images/blue_deck_1.png"" style=""width: 300px; height: 300px;"" />
        </div>","0","8","1","choice","0",""
"","","","","","html-keyboard-response","39","237507","0.0-31.0-0.0-0.0","A317E36F944C4C58B45B58656C92C151","0199d67a-71bd-702a-9f88-e85de4cfb66c","0199d675-8795-765b-adc2-c813de8cd3d1","","null","<div style=""display: flex; justify-content: center; align-items: center;"">
                     <img src=""images/causal/causal_series_8/causal_series_8_b.png"" style=""width: 300px; height: 300px;"" />
                   </div>","null","8","1","B","",""
"","","","","","html-keyboard-response","40","243523","0.0-31.0-0.0-1.0","A317E36F944C4C58B45B58656C92C151","0199d67a-71bd-702a-9f88-e85de4cfb66c","0199d675-8795-765b-adc2-c813de8cd3d1","","null","<div style=""display: flex; justify-content: center; align-items: center;"">
                     <img src=""images/causal/causal_series_8/causal_series_8_c.png"" style=""width: 300px; height: 300px;"" />
                   </div>","null","8","1","C","",""
"","","","","","html-keyboard-response","41","249537","0.0-31.0-0.0-2.0","A317E36F944C4C58B45B58656C92C151","0199d67a-71bd-702a-9f88-e85de4cfb66c","0199d675-8795-765b-adc2-c813de8cd3d1","","null","<div style=""display: flex; justify-content: center; align-items: center;"">
                     <img src=""images/causal/causal_series_8/causal_series_8_d.png"" style=""width: 300px; height: 300px;"" />
                   </div>","null","8","1","D","",""
"","","","","","survey-likert","42","258667","0.0-32.0","A317E36F944C4C58B45B58656C92C151","0199d67a-71bd-702a-9f88-e85de4cfb66c","0199d675-8795-765b-adc2-c813de8cd3d1","","9130","","{""Q0"":2}","8","1","surprise_rating","","[0]"
"","","","","","survey-likert","43","260920","0.0-33.0","A317E36F944C4C58B45B58656C92C151","0199d67a-71bd-702a-9f88-e85de4cfb66c","0199d675-8795-765b-adc2-c813de8cd3d1","","2253","","{""Q0"":3}","8","1","enjoyment_rating","","[0]"
"","","","","","html-keyboard-response","44","266926","0.0-34.0","A317E36F944C4C58B45B58656C92C151","0199d67a-71bd-702a-9f88-e85de4cfb66c","0199d675-8795-765b-adc2-c813de8cd3d1","","null","<div style=""display: flex; justify-content: center; align-items: center;"">
                     <img src=""images/other/blank.png"" style=""width: 300px; height: 300px;"" />
                   </div>","null","0","0","blank","",""
"","","","","","html-keyboard-response","45","272930","0.0-35.0","A317E36F944C4C58B45B58656C92C151","0199d67a-71bd-702a-9f88-e85de4cfb66c","0199d675-8795-765b-adc2-c813de8cd3d1","","null","<div style=""display: flex; justify-content: center; align-items: center;"">
                     <img src=""images/causal/causal_series_2/causal_series_2_a.png"" style=""width: 300px; height: 300px;"" />
                   </div>","null","2","2","A","",""
"","","","","","html-button-response","46","274353","0.0-36.0","A317E36F944C4C58B45B58656C92C151","0199d67a-71bd-702a-9f88-e85de4cfb66c","0199d675-8795-765b-adc2-c813de8cd3d1","","1422","
        <div style=""display: flex; justify-content: center; align-items: center;"">
          <img src=""images/red_deck_2.png"" style=""width: 300px; height: 300px; margin-right: 10px;"" />
          <img src=""images/blue_deck_1.png"" style=""width: 300px; height: 300px;"" />
        </div>","1","2","2","choice","1",""
"","","","","","html-keyboard-response","47","280366","0.0-37.0-1.0-0.0","A317E36F944C4C58B45B58656C92C151","0199d67a-71bd-702a-9f88-e85de4cfb66c","0199d675-8795-765b-adc2-c813de8cd3d1","","null","<div style=""display: flex; justify-content: center; align-items: center;"">
                     <img src=""images/semantic/semantic_series_2/semantic_series_2_b.png"" style=""width: 300px; height: 300px;"" />
                   </div>","null","2","2","B","",""
"","","","","","html-keyboard-response","48","286371","0.0-37.0-1.0-1.0","A317E36F944C4C58B45B58656C92C151","0199d67a-71bd-702a-9f88-e85de4cfb66c","0199d675-8795-765b-adc2-c813de8cd3d1","","null","<div style=""display: flex; justify-content: center; align-items: center;"">
                     <img src=""images/semantic/semantic_series_2/semantic_series_2_c.png"" style=""width: 300px; height: 300px;"" />
                   </div>","null","2","2","C","",""
"","","","","","html-keyboard-response","49","292382","0.0-37.0-1.0-2.0","A317E36F944C4C58B45B58656C92C151","0199d67a-71bd-702a-9f88-e85de4cfb66c","0199d675-8795-765b-adc2-c813de8cd3d1","","null","<div style=""display: flex; justify-content: center; align-items: center;"">
                     <img src=""images/semantic/semantic_series_2/semantic_series_2_d.png"" style=""width: 300px; height: 300px;"" />
                   </div>","null","2","2","D","",""
"","","","","","survey-likert","50","297226","0.0-38.0","A317E36F944C4C58B45B58656C92C151","0199d67a-71bd-702a-9f88-e85de4cfb66c","0199d675-8795-765b-adc2-c813de8cd3d1","","4843","","{""Q0"":2}","2","2","surprise_rating","","[0]"
"","","","","","survey-likert","51","298516","0.0-39.0","A317E36F944C4C58B45B58656C92C151","0199d67a-71bd-702a-9f88-e85de4cfb66c","0199d675-8795-765b-adc2-c813de8cd3d1","","1290","","{""Q0"":4}","2","2","enjoyment_rating","","[0]"
"","","","","","html-keyboard-response","52","304527","0.0-40.0","A317E36F944C4C58B45B58656C92C151","0199d67a-71bd-702a-9f88-e85de4cfb66c","0199d675-8795-765b-adc2-c813de8cd3d1","","null","<div style=""display: flex; justify-content: center; align-items: center;"">
                     <img src=""images/other/blank.png"" style=""width: 300px; height: 300px;"" />
                   </div>","null","0","0","blank","",""
"","","","","","html-keyboard-response","53","310539","0.0-41.0","A317E36F944C4C58B45B58656C92C151","0199d67a-71bd-702a-9f88-e85de4cfb66c","0199d675-8795-765b-adc2-c813de8cd3d1","","null","<div style=""display: flex; justify-content: center; align-items: center;"">
                     <img src=""images/causal/causal_series_9/causal_series_9_a.png"" style=""width: 300px; height: 300px;"" />
                   </div>","null","9","1","A","",""
"","","","","","html-button-response","54","317572","0.0-42.0","A317E36F944C4C58B45B58656C92C151","0199d67a-71bd-702a-9f88-e85de4cfb66c","0199d675-8795-765b-adc2-c813de8cd3d1","","7033","
        <div style=""display: flex; justify-content: center; align-items: center;"">
          <img src=""images/red_deck_2.png"" style=""width: 300px; height: 300px; margin-right: 10px;"" />
          <img src=""images/blue_deck_1.png"" style=""width: 300px; height: 300px;"" />
        </div>","0","9","1","choice","0",""
"","","","","","html-keyboard-response","55","323575","0.0-43.0-0.0-0.0","A317E36F944C4C58B45B58656C92C151","0199d67a-71bd-702a-9f88-e85de4cfb66c","0199d675-8795-765b-adc2-c813de8cd3d1","","null","<div style=""display: flex; justify-content: center; align-items: center;"">
                     <img src=""images/causal/causal_series_9/causal_series_9_b.png"" style=""width: 300px; height: 300px;"" />
                   </div>","null","9","1","B","",""
"","","","","","html-keyboard-response","56","329576","0.0-43.0-0.0-1.0","A317E36F944C4C58B45B58656C92C151","0199d67a-71bd-702a-9f88-e85de4cfb66c","0199d675-8795-765b-adc2-c813de8cd3d1","","null","<div style=""display: flex; justify-content: center; align-items: center;"">
                     <img src=""images/causal/causal_series_9/causal_series_9_c.png"" style=""width: 300px; height: 300px;"" />
                   </div>","null","9","1","C","",""
"","","","","","html-keyboard-response","57","335582","0.0-43.0-0.0-2.0","A317E36F944C4C58B45B58656C92C151","0199d67a-71bd-702a-9f88-e85de4cfb66c","0199d675-8795-765b-adc2-c813de8cd3d1","","null","<div style=""display: flex; justify-content: center; align-items: center;"">
                     <img src=""images/causal/causal_series_9/causal_series_9_d.png"" style=""width: 300px; height: 300px;"" />
                   </div>","null","9","1","D","",""
"","","","","","survey-likert","58","343462","0.0-44.0","A317E36F944C4C58B45B58656C92C151","0199d67a-71bd-702a-9f88-e85de4cfb66c","0199d675-8795-765b-adc2-c813de8cd3d1","","7879","","{""Q0"":4}","9","1","surprise_rating","","[0]"
"","","","","","survey-likert","59","344446","0.0-45.0","A317E36F944C4C58B45B58656C92C151","0199d67a-71bd-702a-9f88-e85de4cfb66c","0199d675-8795-765b-adc2-c813de8cd3d1","","985","","{""Q0"":4}","9","1","enjoyment_rating","","[0]"
"","","","","","html-keyboard-response","60","350462","0.0-46.0","A317E36F944C4C58B45B58656C92C151","0199d67a-71bd-702a-9f88-e85de4cfb66c","0199d675-8795-765b-adc2-c813de8cd3d1","","null","<div style=""display: flex; justify-content: center; align-items: center;"">
                     <img src=""images/other/blank.png"" style=""width: 300px; height: 300px;"" />
                   </div>","null","0","0","blank","",""
"","","","","","html-keyboard-response","61","356474","0.0-47.0","A317E36F944C4C58B45B58656C92C151","0199d67a-71bd-702a-9f88-e85de4cfb66c","0199d675-8795-765b-adc2-c813de8cd3d1","","null","<div style=""display: flex; justify-content: center; align-items: center;"">
                     <img src=""images/causal/causal_series_5/causal_series_5_a.png"" style=""width: 300px; height: 300px;"" />
                   </div>","null","5","1","A","",""
"","","","","","html-button-response","62","360821","0.0-48.0","A317E36F944C4C58B45B58656C92C151","0199d67a-71bd-702a-9f88-e85de4cfb66c","0199d675-8795-765b-adc2-c813de8cd3d1","","4346","
        <div style=""display: flex; justify-content: center; align-items: center;"">
          <img src=""images/red_deck_2.png"" style=""width: 300px; height: 300px; margin-right: 10px;"" />
          <img src=""images/blue_deck_1.png"" style=""width: 300px; height: 300px;"" />
        </div>","1","5","1","choice","1",""
"","","","","","html-keyboard-response","63","366826","0.0-49.0-1.0-0.0","A317E36F944C4C58B45B58656C92C151","0199d67a-71bd-702a-9f88-e85de4cfb66c","0199d675-8795-765b-adc2-c813de8cd3d1","","null","<div style=""display: flex; justify-content: center; align-items: center;"">
                     <img src=""images/semantic/semantic_series_5/semantic_series_5_b.png"" style=""width: 300px; height: 300px;"" />
                   </div>","null","5","1","B","",""
"","","","","","html-keyboard-response","64","372827","0.0-49.0-1.0-1.0","A317E36F944C4C58B45B58656C92C151","0199d67a-71bd-702a-9f88-e85de4cfb66c","0199d675-8795-765b-adc2-c813de8cd3d1","","null","<div style=""display: flex; justify-content: center; align-items: center;"">
                     <img src=""images/semantic/semantic_series_5/semantic_series_5_c.png"" style=""width: 300px; height: 300px;"" />
                   </div>","null","5","1","C","",""
"","","","","","html-keyboard-response","65","378831","0.0-49.0-1.0-2.0","A317E36F944C4C58B45B58656C92C151","0199d67a-71bd-702a-9f88-e85de4cfb66c","0199d675-8795-765b-adc2-c813de8cd3d1","","null","<div style=""display: flex; justify-content: center; align-items: center;"">
                     <img src=""images/semantic/semantic_series_5/semantic_series_5_d.png"" style=""width: 300px; height: 300px;"" />
                   </div>","null","5","1","D","",""
"","","","","","survey-likert","66","380741","0.0-50.0","A317E36F944C4C58B45B58656C92C151","0199d67a-71bd-702a-9f88-e85de4cfb66c","0199d675-8795-765b-adc2-c813de8cd3d1","","1910","","{""Q0"":4}","5","1","surprise_rating","","[0]"
"","","","","","survey-likert","67","386637","0.0-51.0","A317E36F944C4C58B45B58656C92C151","0199d67a-71bd-702a-9f88-e85de4cfb66c","0199d675-8795-765b-adc2-c813de8cd3d1","","5895","","{""Q0"":1}","5","1","enjoyment_rating","","[0]"
"","","","","","html-keyboard-response","68","392650","0.0-52.0","A317E36F944C4C58B45B58656C92C151","0199d67a-71bd-702a-9f88-e85de4cfb66c","0199d675-8795-765b-adc2-c813de8cd3d1","","null","<div style=""display: flex; justify-content: center; align-items: center;"">
                     <img src=""images/other/blank.png"" style=""width: 300px; height: 300px;"" />
                   </div>","null","0","0","blank","",""
"","","","","","html-keyboard-response","69","398666","0.0-53.0","A317E36F944C4C58B45B58656C92C151","0199d67a-71bd-702a-9f88-e85de4cfb66c","0199d675-8795-765b-adc2-c813de8cd3d1","","null","<div style=""display: flex; justify-content: center; align-items: center;"">
                     <img src=""images/causal/causal_series_6/causal_series_6_a.png"" style=""width: 300px; height: 300px;"" />
                   </div>","null","6","2","A","",""
"","","","","","html-button-response","70","400934","0.0-54.0","A317E36F944C4C58B45B58656C92C151","0199d67a-71bd-702a-9f88-e85de4cfb66c","0199d675-8795-765b-adc2-c813de8cd3d1","","2267","
        <div style=""display: flex; justify-content: center; align-items: center;"">
          <img src=""images/red_deck_2.png"" style=""width: 300px; height: 300px; margin-right: 10px;"" />
          <img src=""images/blue_deck_1.png"" style=""width: 300px; height: 300px;"" />
        </div>","0","6","2","choice","0",""
"","","","","","html-keyboard-response","71","406948","0.0-55.0-0.0-0.0","A317E36F944C4C58B45B58656C92C151","0199d67a-71bd-702a-9f88-e85de4cfb66c","0199d675-8795-765b-adc2-c813de8cd3d1","","null","<div style=""display: flex; justify-content: center; align-items: center;"">
                     <img src=""images/causal/causal_series_6/causal_series_6_b.png"" style=""width: 300px; height: 300px;"" />
                   </div>","null","6","2","B","",""
"","","","","","html-keyboard-response","72","412956","0.0-55.0-0.0-1.0","A317E36F944C4C58B45B58656C92C151","0199d67a-71bd-702a-9f88-e85de4cfb66c","0199d675-8795-765b-adc2-c813de8cd3d1","","null","<div style=""display: flex; justify-content: center; align-items: center;"">
                     <img src=""images/causal/causal_series_6/causal_series_6_c.png"" style=""width: 300px; height: 300px;"" />
                   </div>","null","6","2","C","",""
"","","","","","html-keyboard-response","73","418964","0.0-55.0-0.0-2.0","A317E36F944C4C58B45B58656C92C151","0199d67a-71bd-702a-9f88-e85de4cfb66c","0199d675-8795-765b-adc2-c813de8cd3d1","","null","<div style=""display: flex; justify-content: center; align-items: center;"">
                     <img src=""images/causal/causal_series_6/causal_series_6_d.png"" style=""width: 300px; height: 300px;"" />
                   </div>","null","6","2","D","",""
"","","","","","survey-likert","74","421231","0.0-56.0","A317E36F944C4C58B45B58656C92C151","0199d67a-71bd-702a-9f88-e85de4cfb66c","0199d675-8795-765b-adc2-c813de8cd3d1","","2267","","{""Q0"":3}","6","2","surprise_rating","","[0]"
"","","","","","survey-likert","75","423400","0.0-57.0","A317E36F944C4C58B45B58656C92C151","0199d67a-71bd-702a-9f88-e85de4cfb66c","0199d675-8795-765b-adc2-c813de8cd3d1","","2169","","{""Q0"":1}","6","2","enjoyment_rating","","[0]"
"","","","","","html-keyboard-response","76","429402","0.0-58.0","A317E36F944C4C58B45B58656C92C151","0199d67a-71bd-702a-9f88-e85de4cfb66c","0199d675-8795-765b-adc2-c813de8cd3d1","","null","<div style=""display: flex; justify-content: center; align-items: center;"">
                     <img src=""images/other/blank.png"" style=""width: 300px; height: 300px;"" />
                   </div>","null","0","0","blank","",""
"","","","","","html-keyboard-response","77","435416","0.0-59.0","A317E36F944C4C58B45B58656C92C151","0199d67a-71bd-702a-9f88-e85de4cfb66c","0199d675-8795-765b-adc2-c813de8cd3d1","","null","<div style=""display: flex; justify-content: center; align-items: center;"">
                     <img src=""images/causal/causal_series_2/causal_series_2_a.png"" style=""width: 300px; height: 300px;"" />
                   </div>","null","2","1","A","",""
"","","","","","html-button-response","78","444441","0.0-60.0","A317E36F944C4C58B45B58656C92C151","0199d67a-71bd-702a-9f88-e85de4cfb66c","0199d675-8795-765b-adc2-c813de8cd3d1","","9025","
        <div style=""display: flex; justify-content: center; align-items: center;"">
          <img src=""images/red_deck_2.png"" style=""width: 300px; height: 300px; margin-right: 10px;"" />
          <img src=""images/blue_deck_1.png"" style=""width: 300px; height: 300px;"" />
        </div>","1","2","1","choice","1",""
"","","","","","html-keyboard-response","79","450455","0.0-61.0-1.0-0.0","A317E36F944C4C58B45B58656C92C151","0199d67a-71bd-702a-9f88-e85de4cfb66c","0199d675-8795-765b-adc2-c813de8cd3d1","","null","<div style=""display: flex; justify-content: center; align-items: center;"">
                     <img src=""images/semantic/semantic_series_2/semantic_series_2_b.png"" style=""width: 300px; height: 300px;"" />
                   </div>","null","2","1","B","",""
"","","","","","html-keyboard-response","80","456465","0.0-61.0-1.0-1.0","A317E36F944C4C58B45B58656C92C151","0199d67a-71bd-702a-9f88-e85de4cfb66c","0199d675-8795-765b-adc2-c813de8cd3d1","","null","<div style=""display: flex; justify-content: center; align-items: center;"">
                     <img src=""images/semantic/semantic_series_2/semantic_series_2_c.png"" style=""width: 300px; height: 300px;"" />
                   </div>","null","2","1","C","",""
"","","","","","html-keyboard-response","81","462478","0.0-61.0-1.0-2.0","A317E36F944C4C58B45B58656C92C151","0199d67a-71bd-702a-9f88-e85de4cfb66c","0199d675-8795-765b-adc2-c813de8cd3d1","","null","<div style=""display: flex; justify-content: center; align-items: center;"">
                     <img src=""images/semantic/semantic_series_2/semantic_series_2_d.png"" style=""width: 300px; height: 300px;"" />
                   </div>","null","2","1","D","",""
"","","","","","survey-likert","82","467051","0.0-62.0","A317E36F944C4C58B45B58656C92C151","0199d67a-71bd-702a-9f88-e85de4cfb66c","0199d675-8795-765b-adc2-c813de8cd3d1","","4572","","{""Q0"":0}","2","1","surprise_rating","","[0]"
"","","","","","survey-likert","83","468802","0.0-63.0","A317E36F944C4C58B45B58656C92C151","0199d67a-71bd-702a-9f88-e85de4cfb66c","0199d675-8795-765b-adc2-c813de8cd3d1","","1751","","{""Q0"":2}","2","1","enjoyment_rating","","[0]"
"","","","","","html-keyboard-response","84","474812","0.0-64.0","A317E36F944C4C58B45B58656C92C151","0199d67a-71bd-702a-9f88-e85de4cfb66c","0199d675-8795-765b-adc2-c813de8cd3d1","","null","<div style=""display: flex; justify-content: center; align-items: center;"">
                     <img src=""images/other/blank.png"" style=""width: 300px; height: 300px;"" />
                   </div>","null","0","0","blank","",""
"","","","","","html-keyboard-response","85","480826","0.0-65.0","A317E36F944C4C58B45B58656C92C151","0199d67a-71bd-702a-9f88-e85de4cfb66c","0199d675-8795-765b-adc2-c813de8cd3d1","","null","<div style=""display: flex; justify-content: center; align-items: center;"">
                     <img src=""images/causal/causal_series_5/causal_series_5_a.png"" style=""width: 300px; height: 300px;"" />
                   </div>","null","5","2","A","",""
"","","","","","html-button-response","86","482688","0.0-66.0","A317E36F944C4C58B45B58656C92C151","0199d67a-71bd-702a-9f88-e85de4cfb66c","0199d675-8795-765b-adc2-c813de8cd3d1","","1862","
        <div style=""display: flex; justify-content: center; align-items: center;"">
          <img src=""images/red_deck_2.png"" style=""width: 300px; height: 300px; margin-right: 10px;"" />
          <img src=""images/blue_deck_1.png"" style=""width: 300px; height: 300px;"" />
        </div>","1","5","2","choice","1",""
"","","","","","html-keyboard-response","87","488701","0.0-67.0-1.0-0.0","A317E36F944C4C58B45B58656C92C151","0199d67a-71bd-702a-9f88-e85de4cfb66c","0199d675-8795-765b-adc2-c813de8cd3d1","","null","<div style=""display: flex; justify-content: center; align-items: center;"">
                     <img src=""images/semantic/semantic_series_5/semantic_series_5_b.png"" style=""width: 300px; height: 300px;"" />
                   </div>","null","5","2","B","",""
"","","","","","html-keyboard-response","88","494705","0.0-67.0-1.0-1.0","A317E36F944C4C58B45B58656C92C151","0199d67a-71bd-702a-9f88-e85de4cfb66c","0199d675-8795-765b-adc2-c813de8cd3d1","","null","<div style=""display: flex; justify-content: center; align-items: center;"">
                     <img src=""images/semantic/semantic_series_5/semantic_series_5_c.png"" style=""width: 300px; height: 300px;"" />
                   </div>","null","5","2","C","",""
"","","","","","html-keyboard-response","89","500705","0.0-67.0-1.0-2.0","A317E36F944C4C58B45B58656C92C151","0199d67a-71bd-702a-9f88-e85de4cfb66c","0199d675-8795-765b-adc2-c813de8cd3d1","","null","<div style=""display: flex; justify-content: center; align-items: center;"">
                     <img src=""images/semantic/semantic_series_5/semantic_series_5_d.png"" style=""width: 300px; height: 300px;"" />
                   </div>","null","5","2","D","",""
"","","","","","survey-likert","90","502442","0.0-68.0","A317E36F944C4C58B45B58656C92C151","0199d67a-71bd-702a-9f88-e85de4cfb66c","0199d675-8795-765b-adc2-c813de8cd3d1","","1736","","{""Q0"":0}","5","2","surprise_rating","","[0]"
"","","","","","survey-likert","91","504286","0.0-69.0","A317E36F944C4C58B45B58656C92C151","0199d67a-71bd-702a-9f88-e85de4cfb66c","0199d675-8795-765b-adc2-c813de8cd3d1","","1844","","{""Q0"":1}","5","2","enjoyment_rating","","[0]"
"","","","","","html-keyboard-response","92","510290","0.0-70.0","A317E36F944C4C58B45B58656C92C151","0199d67a-71bd-702a-9f88-e85de4cfb66c","0199d675-8795-765b-adc2-c813de8cd3d1","","null","<div style=""display: flex; justify-content: center; align-items: center;"">
                     <img src=""images/other/blank.png"" style=""width: 300px; height: 300px;"" />
                   </div>","null","0","0","blank","",""
"","","","","","html-keyboard-response","93","516297","0.0-71.0","A317E36F944C4C58B45B58656C92C151","0199d67a-71bd-702a-9f88-e85de4cfb66c","0199d675-8795-765b-adc2-c813de8cd3d1","","null","<div style=""display: flex; justify-content: center; align-items: center;"">
                     <img src=""images/causal/causal_series_1/causal_series_1_a.png"" style=""width: 300px; height: 300px;"" />
                   </div>","null","1","2","A","",""
"","","","","","html-button-response","94","517124","0.0-72.0","A317E36F944C4C58B45B58656C92C151","0199d67a-71bd-702a-9f88-e85de4cfb66c","0199d675-8795-765b-adc2-c813de8cd3d1","","827","
        <div style=""display: flex; justify-content: center; align-items: center;"">
          <img src=""images/red_deck_2.png"" style=""width: 300px; height: 300px; margin-right: 10px;"" />
          <img src=""images/blue_deck_1.png"" style=""width: 300px; height: 300px;"" />
        </div>","0","1","2","choice","0",""
"","","","","","html-keyboard-response","95","523127","0.0-73.0-0.0-0.0","A317E36F944C4C58B45B58656C92C151","0199d67a-71bd-702a-9f88-e85de4cfb66c","0199d675-8795-765b-adc2-c813de8cd3d1","","null","<div style=""display: flex; justify-content: center; align-items: center;"">
                     <img src=""images/causal/causal_series_1/causal_series_1_b.png"" style=""width: 300px; height: 300px;"" />
                   </div>","null","1","2","B","",""
"","","","","","html-keyboard-response","96","529136","0.0-73.0-0.0-1.0","A317E36F944C4C58B45B58656C92C151","0199d67a-71bd-702a-9f88-e85de4cfb66c","0199d675-8795-765b-adc2-c813de8cd3d1","","null","<div style=""display: flex; justify-content: center; align-items: center;"">
                     <img src=""images/causal/causal_series_1/causal_series_1_c.png"" style=""width: 300px; height: 300px;"" />
                   </div>","null","1","2","C","",""
"","","","","","html-keyboard-response","97","535144","0.0-73.0-0.0-2.0","A317E36F944C4C58B45B58656C92C151","0199d67a-71bd-702a-9f88-e85de4cfb66c","0199d675-8795-765b-adc2-c813de8cd3d1","","null","<div style=""display: flex; justify-content: center; align-items: center;"">
                     <img src=""images/causal/causal_series_1/causal_series_1_d.png"" style=""width: 300px; height: 300px;"" />
                   </div>","null","1","2","D","",""
"","","","","","survey-likert","98","537472","0.0-74.0","A317E36F944C4C58B45B58656C92C151","0199d67a-71bd-702a-9f88-e85de4cfb66c","0199d675-8795-765b-adc2-c813de8cd3d1","","2328","","{""Q0"":3}","1","2","surprise_rating","","[0]"
"","","","","","survey-likert","99","538764","0.0-75.0","A317E36F944C4C58B45B58656C92C151","0199d67a-71bd-702a-9f88-e85de4cfb66c","0199d675-8795-765b-adc2-c813de8cd3d1","","1291","","{""Q0"":2}","1","2","enjoyment_rating","","[0]"
"","","","","","html-keyboard-response","100","544778","0.0-76.0","A317E36F944C4C58B45B58656C92C151","0199d67a-71bd-702a-9f88-e85de4cfb66c","0199d675-8795-765b-adc2-c813de8cd3d1","","null","<div style=""display: flex; justify-content: center; align-items: center;"">
                     <img src=""images/other/blank.png"" style=""width: 300px; height: 300px;"" />
                   </div>","null","0","0","blank","",""
"","","","","","html-keyboard-response","101","550778","0.0-77.0","A317E36F944C4C58B45B58656C92C151","0199d67a-71bd-702a-9f88-e85de4cfb66c","0199d675-8795-765b-adc2-c813de8cd3d1","","null","<div style=""display: flex; justify-content: center; align-items: center;"">
                     <img src=""images/causal/causal_series_6/causal_series_6_a.png"" style=""width: 300px; height: 300px;"" />
                   </div>","null","6","1","A","",""
"","","","","","html-button-response","102","551956","0.0-78.0","A317E36F944C4C58B45B58656C92C151","0199d67a-71bd-702a-9f88-e85de4cfb66c","0199d675-8795-765b-adc2-c813de8cd3d1","","1178","
        <div style=""display: flex; justify-content: center; align-items: center;"">
          <img src=""images/red_deck_2.png"" style=""width: 300px; height: 300px; margin-right: 10px;"" />
          <img src=""images/blue_deck_1.png"" style=""width: 300px; height: 300px;"" />
        </div>","0","6","1","choice","0",""
"","","","","","html-keyboard-response","103","557967","0.0-79.0-0.0-0.0","A317E36F944C4C58B45B58656C92C151","0199d67a-71bd-702a-9f88-e85de4cfb66c","0199d675-8795-765b-adc2-c813de8cd3d1","","null","<div style=""display: flex; justify-content: center; align-items: center;"">
                     <img src=""images/causal/causal_series_6/causal_series_6_b.png"" style=""width: 300px; height: 300px;"" />
                   </div>","null","6","1","B","",""
"","","","","","html-keyboard-response","104","563968","0.0-79.0-0.0-1.0","A317E36F944C4C58B45B58656C92C151","0199d67a-71bd-702a-9f88-e85de4cfb66c","0199d675-8795-765b-adc2-c813de8cd3d1","","null","<div style=""display: flex; justify-content: center; align-items: center;"">
                     <img src=""images/causal/causal_series_6/causal_series_6_c.png"" style=""width: 300px; height: 300px;"" />
                   </div>","null","6","1","C","",""
"","","","","","html-keyboard-response","105","569968","0.0-79.0-0.0-2.0","A317E36F944C4C58B45B58656C92C151","0199d67a-71bd-702a-9f88-e85de4cfb66c","0199d675-8795-765b-adc2-c813de8cd3d1","","null","<div style=""display: flex; justify-content: center; align-items: center;"">
                     <img src=""images/causal/causal_series_6/causal_series_6_d.png"" style=""width: 300px; height: 300px;"" />
                   </div>","null","6","1","D","",""
"","","","","","survey-likert","106","571823","0.0-80.0","A317E36F944C4C58B45B58656C92C151","0199d67a-71bd-702a-9f88-e85de4cfb66c","0199d675-8795-765b-adc2-c813de8cd3d1","","1855","","{""Q0"":0}","6","1","surprise_rating","","[0]"
"","","","","","survey-likert","107","573864","0.0-81.0","A317E36F944C4C58B45B58656C92C151","0199d67a-71bd-702a-9f88-e85de4cfb66c","0199d675-8795-765b-adc2-c813de8cd3d1","","2040","","{""Q0"":1}","6","1","enjoyment_rating","","[0]"
"","","","","","html-keyboard-response","108","579871","0.0-82.0","A317E36F944C4C58B45B58656C92C151","0199d67a-71bd-702a-9f88-e85de4cfb66c","0199d675-8795-765b-adc2-c813de8cd3d1","","null","<div style=""display: flex; justify-content: center; align-items: center;"">
                     <img src=""images/other/blank.png"" style=""width: 300px; height: 300px;"" />
                   </div>","null","0","0","blank","",""
"","","","","","html-keyboard-response","109","585872","0.0-83.0","A317E36F944C4C58B45B58656C92C151","0199d67a-71bd-702a-9f88-e85de4cfb66c","0199d675-8795-765b-adc2-c813de8cd3d1","","null","<div style=""display: flex; justify-content: center; align-items: center;"">
                     <img src=""images/causal/causal_series_3/causal_series_3_a.png"" style=""width: 300px; height: 300px;"" />
                   </div>","null","3","1","A","",""
"","","","","","html-button-response","110","589044","0.0-84.0","A317E36F944C4C58B45B58656C92C151","0199d67a-71bd-702a-9f88-e85de4cfb66c","0199d675-8795-765b-adc2-c813de8cd3d1","","3171","
        <div style=""display: flex; justify-content: center; align-items: center;"">
          <img src=""images/red_deck_2.png"" style=""width: 300px; height: 300px; margin-right: 10px;"" />
          <img src=""images/blue_deck_1.png"" style=""width: 300px; height: 300px;"" />
        </div>","0","3","1","choice","0",""
"","","","","","html-keyboard-response","111","595045","0.0-85.0-0.0-0.0","A317E36F944C4C58B45B58656C92C151","0199d67a-71bd-702a-9f88-e85de4cfb66c","0199d675-8795-765b-adc2-c813de8cd3d1","","null","<div style=""display: flex; justify-content: center; align-items: center;"">
                     <img src=""images/causal/causal_series_3/causal_series_3_b.png"" style=""width: 300px; height: 300px;"" />
                   </div>","null","3","1","B","",""
"","","","","","html-keyboard-response","112","601051","0.0-85.0-0.0-1.0","A317E36F944C4C58B45B58656C92C151","0199d67a-71bd-702a-9f88-e85de4cfb66c","0199d675-8795-765b-adc2-c813de8cd3d1","","null","<div style=""display: flex; justify-content: center; align-items: center;"">
                     <img src=""images/causal/causal_series_3/causal_series_3_c.png"" style=""width: 300px; height: 300px;"" />
                   </div>","null","3","1","C","",""
"","","","","","html-keyboard-response","113","607053","0.0-85.0-0.0-2.0","A317E36F944C4C58B45B58656C92C151","0199d67a-71bd-702a-9f88-e85de4cfb66c","0199d675-8795-765b-adc2-c813de8cd3d1","","null","<div style=""display: flex; justify-content: center; align-items: center;"">
                     <img src=""images/causal/causal_series_3/causal_series_3_d.png"" style=""width: 300px; height: 300px;"" />
                   </div>","null","3","1","D","",""
"","","","","","survey-likert","114","609202","0.0-86.0","A317E36F944C4C58B45B58656C92C151","0199d67a-71bd-702a-9f88-e85de4cfb66c","0199d675-8795-765b-adc2-c813de8cd3d1","","2148","","{""Q0"":0}","3","1","surprise_rating","","[0]"
"","","","","","survey-likert","115","610610","0.0-87.0","A317E36F944C4C58B45B58656C92C151","0199d67a-71bd-702a-9f88-e85de4cfb66c","0199d675-8795-765b-adc2-c813de8cd3d1","","1407","","{""Q0"":1}","3","1","enjoyment_rating","","[0]"
"","","","","","html-keyboard-response","116","616620","0.0-88.0","A317E36F944C4C58B45B58656C92C151","0199d67a-71bd-702a-9f88-e85de4cfb66c","0199d675-8795-765b-adc2-c813de8cd3d1","","null","<div style=""display: flex; justify-content: center; align-items: center;"">
                     <img src=""images/other/blank.png"" style=""width: 300px; height: 300px;"" />
                   </div>","null","0","0","blank","",""
"","","","","","html-keyboard-response","117","622630","0.0-89.0","A317E36F944C4C58B45B58656C92C151","0199d67a-71bd-702a-9f88-e85de4cfb66c","0199d675-8795-765b-adc2-c813de8cd3d1","","null","<div style=""display: flex; justify-content: center; align-items: center;"">
                     <img src=""images/causal/causal_series_8/causal_series_8_a.png"" style=""width: 300px; height: 300px;"" />
                   </div>","null","8","2","A","",""
"","","","","","html-button-response","118","624600","0.0-90.0","A317E36F944C4C58B45B58656C92C151","0199d67a-71bd-702a-9f88-e85de4cfb66c","0199d675-8795-765b-adc2-c813de8cd3d1","","1970","
        <div style=""display: flex; justify-content: center; align-items: center;"">
          <img src=""images/red_deck_2.png"" style=""width: 300px; height: 300px; margin-right: 10px;"" />
          <img src=""images/blue_deck_1.png"" style=""width: 300px; height: 300px;"" />
        </div>","0","8","2","choice","0",""
"","","","","","html-keyboard-response","119","630601","0.0-91.0-0.0-0.0","A317E36F944C4C58B45B58656C92C151","0199d67a-71bd-702a-9f88-e85de4cfb66c","0199d675-8795-765b-adc2-c813de8cd3d1","","null","<div style=""display: flex; justify-content: center; align-items: center;"">
                     <img src=""images/causal/causal_series_8/causal_series_8_b.png"" style=""width: 300px; height: 300px;"" />
                   </div>","null","8","2","B","",""
"","","","","","html-keyboard-response","120","636604","0.0-91.0-0.0-1.0","A317E36F944C4C58B45B58656C92C151","0199d67a-71bd-702a-9f88-e85de4cfb66c","0199d675-8795-765b-adc2-c813de8cd3d1","","null","<div style=""display: flex; justify-content: center; align-items: center;"">
                     <img src=""images/causal/causal_series_8/causal_series_8_c.png"" style=""width: 300px; height: 300px;"" />
                   </div>","null","8","2","C","",""
"","","","","","html-keyboard-response","121","642618","0.0-91.0-0.0-2.0","A317E36F944C4C58B45B58656C92C151","0199d67a-71bd-702a-9f88-e85de4cfb66c","0199d675-8795-765b-adc2-c813de8cd3d1","","null","<div style=""display: flex; justify-content: center; align-items: center;"">
                     <img src=""images/causal/causal_series_8/causal_series_8_d.png"" style=""width: 300px; height: 300px;"" />
                   </div>","null","8","2","D","",""
"","","","","","survey-likert","122","644955","0.0-92.0","A317E36F944C4C58B45B58656C92C151","0199d67a-71bd-702a-9f88-e85de4cfb66c","0199d675-8795-765b-adc2-c813de8cd3d1","","2336","","{""Q0"":0}","8","2","surprise_rating","","[0]"
"","","","","","survey-likert","123","647431","0.0-93.0","A317E36F944C4C58B45B58656C92C151","0199d67a-71bd-702a-9f88-e85de4cfb66c","0199d675-8795-765b-adc2-c813de8cd3d1","","2475","","{""Q0"":1}","8","2","enjoyment_rating","","[0]"
"","","","","","html-keyboard-response","124","653443","0.0-94.0","A317E36F944C4C58B45B58656C92C151","0199d67a-71bd-702a-9f88-e85de4cfb66c","0199d675-8795-765b-adc2-c813de8cd3d1","","null","<div style=""display: flex; justify-content: center; align-items: center;"">
                     <img src=""images/other/blank.png"" style=""width: 300px; height: 300px;"" />
                   </div>","null","0","0","blank","",""
"","","","","","html-keyboard-response","125","659449","0.0-95.0","A317E36F944C4C58B45B58656C92C151","0199d67a-71bd-702a-9f88-e85de4cfb66c","0199d675-8795-765b-adc2-c813de8cd3d1","","null","<div style=""display: flex; justify-content: center; align-items: center;"">
                     <img src=""images/causal/causal_series_10/causal_series_10_a.png"" style=""width: 300px; height: 300px;"" />
                   </div>","null","10","2","A","",""
"","","","","","html-button-response","126","661255","0.0-96.0","A317E36F944C4C58B45B58656C92C151","0199d67a-71bd-702a-9f88-e85de4cfb66c","0199d675-8795-765b-adc2-c813de8cd3d1","","1806","
        <div style=""display: flex; justify-content: center; align-items: center;"">
          <img src=""images/red_deck_2.png"" style=""width: 300px; height: 300px; margin-right: 10px;"" />
          <img src=""images/blue_deck_1.png"" style=""width: 300px; height: 300px;"" />
        </div>","0","10","2","choice","0",""
"","","","","","html-keyboard-response","127","667268","0.0-97.0-0.0-0.0","A317E36F944C4C58B45B58656C92C151","0199d67a-71bd-702a-9f88-e85de4cfb66c","0199d675-8795-765b-adc2-c813de8cd3d1","","null","<div style=""display: flex; justify-content: center; align-items: center;"">
                     <img src=""images/causal/causal_series_10/causal_series_10_b.png"" style=""width: 300px; height: 300px;"" />
                   </div>","null","10","2","B","",""
"","","","","","html-keyboard-response","128","673275","0.0-97.0-0.0-1.0","A317E36F944C4C58B45B58656C92C151","0199d67a-71bd-702a-9f88-e85de4cfb66c","0199d675-8795-765b-adc2-c813de8cd3d1","","null","<div style=""display: flex; justify-content: center; align-items: center;"">
                     <img src=""images/causal/causal_series_10/causal_series_10_c.png"" style=""width: 300px; height: 300px;"" />
                   </div>","null","10","2","C","",""
"","","","","","html-keyboard-response","129","679277","0.0-97.0-0.0-2.0","A317E36F944C4C58B45B58656C92C151","0199d67a-71bd-702a-9f88-e85de4cfb66c","0199d675-8795-765b-adc2-c813de8cd3d1","","null","<div style=""display: flex; justify-content: center; align-items: center;"">
                     <img src=""images/causal/causal_series_10/causal_series_10_d.png"" style=""width: 300px; height: 300px;"" />
                   </div>","null","10","2","D","",""
"","","","","","survey-likert","130","681817","0.0-98.0","A317E36F944C4C58B45B58656C92C151","0199d67a-71bd-702a-9f88-e85de4cfb66c","0199d675-8795-765b-adc2-c813de8cd3d1","","2540","","{""Q0"":2}","10","2","surprise_rating","","[0]"
"","","","","","survey-likert","131","684460","0.0-99.0","A317E36F944C4C58B45B58656C92C151","0199d67a-71bd-702a-9f88-e85de4cfb66c","0199d675-8795-765b-adc2-c813de8cd3d1","","2642","","{""Q0"":3}","10","2","enjoyment_rating","","[0]"
"","","","","","html-keyboard-response","132","690471","0.0-100.0","A317E36F944C4C58B45B58656C92C151","0199d67a-71bd-702a-9f88-e85de4cfb66c","0199d675-8795-765b-adc2-c813de8cd3d1","","null","<div style=""display: flex; justify-content: center; align-items: center;"">
                     <img src=""images/other/blank.png"" style=""width: 300px; height: 300px;"" />
                   </div>","null","0","0","blank","",""
"","","","","","html-keyboard-response","133","696480","0.0-101.0","A317E36F944C4C58B45B58656C92C151","0199d67a-71bd-702a-9f88-e85de4cfb66c","0199d675-8795-765b-adc2-c813de8cd3d1","","null","<div style=""display: flex; justify-content: center; align-items: center;"">
                     <img src=""images/causal/causal_series_1/causal_series_1_a.png"" style=""width: 300px; height: 300px;"" />
                   </div>","null","1","1","A","",""
"","","","","","html-button-response","134","697456","0.0-102.0","A317E36F944C4C58B45B58656C92C151","0199d67a-71bd-702a-9f88-e85de4cfb66c","0199d675-8795-765b-adc2-c813de8cd3d1","","976","
        <div style=""display: flex; justify-content: center; align-items: center;"">
          <img src=""images/red_deck_2.png"" style=""width: 300px; height: 300px; margin-right: 10px;"" />
          <img src=""images/blue_deck_1.png"" style=""width: 300px; height: 300px;"" />
        </div>","0","1","1","choice","0",""
"","","","","","html-keyboard-response","135","703468","0.0-103.0-0.0-0.0","A317E36F944C4C58B45B58656C92C151","0199d67a-71bd-702a-9f88-e85de4cfb66c","0199d675-8795-765b-adc2-c813de8cd3d1","","null","<div style=""display: flex; justify-content: center; align-items: center;"">
                     <img src=""images/causal/causal_series_1/causal_series_1_b.png"" style=""width: 300px; height: 300px;"" />
                   </div>","null","1","1","B","",""
"","","","","","html-keyboard-response","136","709472","0.0-103.0-0.0-1.0","A317E36F944C4C58B45B58656C92C151","0199d67a-71bd-702a-9f88-e85de4cfb66c","0199d675-8795-765b-adc2-c813de8cd3d1","","null","<div style=""display: flex; justify-content: center; align-items: center;"">
                     <img src=""images/causal/causal_series_1/causal_series_1_c.png"" style=""width: 300px; height: 300px;"" />
                   </div>","null","1","1","C","",""
"","","","","","html-keyboard-response","137","715485","0.0-103.0-0.0-2.0","A317E36F944C4C58B45B58656C92C151","0199d67a-71bd-702a-9f88-e85de4cfb66c","0199d675-8795-765b-adc2-c813de8cd3d1","","null","<div style=""display: flex; justify-content: center; align-items: center;"">
                     <img src=""images/causal/causal_series_1/causal_series_1_d.png"" style=""width: 300px; height: 300px;"" />
                   </div>","null","1","1","D","",""
"","","","","","survey-likert","138","717015","0.0-104.0","A317E36F944C4C58B45B58656C92C151","0199d67a-71bd-702a-9f88-e85de4cfb66c","0199d675-8795-765b-adc2-c813de8cd3d1","","1530","","{""Q0"":0}","1","1","surprise_rating","","[0]"
"","","","","","survey-likert","139","719846","0.0-105.0","A317E36F944C4C58B45B58656C92C151","0199d67a-71bd-702a-9f88-e85de4cfb66c","0199d675-8795-765b-adc2-c813de8cd3d1","","2831","","{""Q0"":1}","1","1","enjoyment_rating","","[0]"
"","","","","","html-keyboard-response","140","725863","0.0-106.0","A317E36F944C4C58B45B58656C92C151","0199d67a-71bd-702a-9f88-e85de4cfb66c","0199d675-8795-765b-adc2-c813de8cd3d1","","null","<div style=""display: flex; justify-content: center; align-items: center;"">
                     <img src=""images/other/blank.png"" style=""width: 300px; height: 300px;"" />
                   </div>","null","0","0","blank","",""
"","","","","","html-keyboard-response","141","731866","0.0-107.0","A317E36F944C4C58B45B58656C92C151","0199d67a-71bd-702a-9f88-e85de4cfb66c","0199d675-8795-765b-adc2-c813de8cd3d1","","null","<div style=""display: flex; justify-content: center; align-items: center;"">
                     <img src=""images/causal/causal_series_7/causal_series_7_a.png"" style=""width: 300px; height: 300px;"" />
                   </div>","null","7","1","A","",""
"","","","","","html-button-response","142","736523","0.0-108.0","A317E36F944C4C58B45B58656C92C151","0199d67a-71bd-702a-9f88-e85de4cfb66c","0199d675-8795-765b-adc2-c813de8cd3d1","","4657","
        <div style=""display: flex; justify-content: center; align-items: center;"">
          <img src=""images/red_deck_2.png"" style=""width: 300px; height: 300px; margin-right: 10px;"" />
          <img src=""images/blue_deck_1.png"" style=""width: 300px; height: 300px;"" />
        </div>","0","7","1","choice","0",""
"","","","","","html-keyboard-response","143","742536","0.0-109.0-0.0-0.0","A317E36F944C4C58B45B58656C92C151","0199d67a-71bd-702a-9f88-e85de4cfb66c","0199d675-8795-765b-adc2-c813de8cd3d1","","null","<div style=""display: flex; justify-content: center; align-items: center;"">
                     <img src=""images/causal/causal_series_7/causal_series_7_b.png"" style=""width: 300px; height: 300px;"" />
                   </div>","null","7","1","B","",""
"","","","","","html-keyboard-response","144","748544","0.0-109.0-0.0-1.0","A317E36F944C4C58B45B58656C92C151","0199d67a-71bd-702a-9f88-e85de4cfb66c","0199d675-8795-765b-adc2-c813de8cd3d1","","null","<div style=""display: flex; justify-content: center; align-items: center;"">
                     <img src=""images/causal/causal_series_7/causal_series_7_c.png"" style=""width: 300px; height: 300px;"" />
                   </div>","null","7","1","C","",""
"","","","","","html-keyboard-response","145","754550","0.0-109.0-0.0-2.0","A317E36F944C4C58B45B58656C92C151","0199d67a-71bd-702a-9f88-e85de4cfb66c","0199d675-8795-765b-adc2-c813de8cd3d1","","null","<div style=""display: flex; justify-content: center; align-items: center;"">
                     <img src=""images/causal/causal_series_7/causal_series_7_d.png"" style=""width: 300px; height: 300px;"" />
                   </div>","null","7","1","D","",""
"","","","","","survey-likert","146","756599","0.0-110.0","A317E36F944C4C58B45B58656C92C151","0199d67a-71bd-702a-9f88-e85de4cfb66c","0199d675-8795-765b-adc2-c813de8cd3d1","","2049","","{""Q0"":3}","7","1","surprise_rating","","[0]"
"","","","","","survey-likert","147","758618","0.0-111.0","A317E36F944C4C58B45B58656C92C151","0199d67a-71bd-702a-9f88-e85de4cfb66c","0199d675-8795-765b-adc2-c813de8cd3d1","","2019","","{""Q0"":3}","7","1","enjoyment_rating","","[0]"
"","","","","","html-keyboard-response","148","764623","0.0-112.0","A317E36F944C4C58B45B58656C92C151","0199d67a-71bd-702a-9f88-e85de4cfb66c","0199d675-8795-765b-adc2-c813de8cd3d1","","null","<div style=""display: flex; justify-content: center; align-items: center;"">
                     <img src=""images/other/blank.png"" style=""width: 300px; height: 300px;"" />
                   </div>","null","0","0","blank","",""
"","","","","","html-keyboard-response","149","770625","0.0-113.0","A317E36F944C4C58B45B58656C92C151","0199d67a-71bd-702a-9f88-e85de4cfb66c","0199d675-8795-765b-adc2-c813de8cd3d1","","null","<div style=""display: flex; justify-content: center; align-items: center;"">
                     <img src=""images/causal/causal_series_4/causal_series_4_a.png"" style=""width: 300px; height: 300px;"" />
                   </div>","null","4","1","A","",""
"","","","","","html-button-response","150","771541","0.0-114.0","A317E36F944C4C58B45B58656C92C151","0199d67a-71bd-702a-9f88-e85de4cfb66c","0199d675-8795-765b-adc2-c813de8cd3d1","","916","
        <div style=""display: flex; justify-content: center; align-items: center;"">
          <img src=""images/red_deck_2.png"" style=""width: 300px; height: 300px; margin-right: 10px;"" />
          <img src=""images/blue_deck_1.png"" style=""width: 300px; height: 300px;"" />
        </div>","0","4","1","choice","0",""
"","","","","","html-keyboard-response","151","777551","0.0-115.0-0.0-0.0","A317E36F944C4C58B45B58656C92C151","0199d67a-71bd-702a-9f88-e85de4cfb66c","0199d675-8795-765b-adc2-c813de8cd3d1","","null","<div style=""display: flex; justify-content: center; align-items: center;"">
                     <img src=""images/causal/causal_series_4/causal_series_4_b.png"" style=""width: 300px; height: 300px;"" />
                   </div>","null","4","1","B","",""
"","","","","","html-keyboard-response","152","783562","0.0-115.0-0.0-1.0","A317E36F944C4C58B45B58656C92C151","0199d67a-71bd-702a-9f88-e85de4cfb66c","0199d675-8795-765b-adc2-c813de8cd3d1","","null","<div style=""display: flex; justify-content: center; align-items: center;"">
                     <img src=""images/causal/causal_series_4/causal_series_4_c.png"" style=""width: 300px; height: 300px;"" />
                   </div>","null","4","1","C","",""
"","","","","","html-keyboard-response","153","789572","0.0-115.0-0.0-2.0","A317E36F944C4C58B45B58656C92C151","0199d67a-71bd-702a-9f88-e85de4cfb66c","0199d675-8795-765b-adc2-c813de8cd3d1","","null","<div style=""display: flex; justify-content: center; align-items: center;"">
                     <img src=""images/causal/causal_series_4/causal_series_4_d.png"" style=""width: 300px; height: 300px;"" />
                   </div>","null","4","1","D","",""
"","","","","","survey-likert","154","792146","0.0-116.0","A317E36F944C4C58B45B58656C92C151","0199d67a-71bd-702a-9f88-e85de4cfb66c","0199d675-8795-765b-adc2-c813de8cd3d1","","2574","","{""Q0"":0}","4","1","surprise_rating","","[0]"
"","","","","","survey-likert","155","793156","0.0-117.0","A317E36F944C4C58B45B58656C92C151","0199d67a-71bd-702a-9f88-e85de4cfb66c","0199d675-8795-765b-adc2-c813de8cd3d1","","1009","","{""Q0"":0}","4","1","enjoyment_rating","","[0]"
"","","","","","html-keyboard-response","156","799165","0.0-118.0","A317E36F944C4C58B45B58656C92C151","0199d67a-71bd-702a-9f88-e85de4cfb66c","0199d675-8795-765b-adc2-c813de8cd3d1","","null","<div style=""display: flex; justify-content: center; align-items: center;"">
                     <img src=""images/other/blank.png"" style=""width: 300px; height: 300px;"" />
                   </div>","null","0","0","blank","",""
"","","","","","html-keyboard-response","157","805169","0.0-119.0","A317E36F944C4C58B45B58656C92C151","0199d67a-71bd-702a-9f88-e85de4cfb66c","0199d675-8795-765b-adc2-c813de8cd3d1","","null","<div style=""display: flex; justify-content: center; align-items: center;"">
                     <img src=""images/causal/causal_series_7/causal_series_7_a.png"" style=""width: 300px; height: 300px;"" />
                   </div>","null","7","2","A","",""
"","","","","","html-button-response","158","806993","0.0-120.0","A317E36F944C4C58B45B58656C92C151","0199d67a-71bd-702a-9f88-e85de4cfb66c","0199d675-8795-765b-adc2-c813de8cd3d1","","1824","
        <div style=""display: flex; justify-content: center; align-items: center;"">
          <img src=""images/red_deck_2.png"" style=""width: 300px; height: 300px; margin-right: 10px;"" />
          <img src=""images/blue_deck_1.png"" style=""width: 300px; height: 300px;"" />
        </div>","0","7","2","choice","0",""
"","","","","","html-keyboard-response","159","813003","0.0-121.0-0.0-0.0","A317E36F944C4C58B45B58656C92C151","0199d67a-71bd-702a-9f88-e85de4cfb66c","0199d675-8795-765b-adc2-c813de8cd3d1","","null","<div style=""display: flex; justify-content: center; align-items: center;"">
                     <img src=""images/causal/causal_series_7/causal_series_7_b.png"" style=""width: 300px; height: 300px;"" />
                   </div>","null","7","2","B","",""
"","","","","","html-keyboard-response","160","819016","0.0-121.0-0.0-1.0","A317E36F944C4C58B45B58656C92C151","0199d67a-71bd-702a-9f88-e85de4cfb66c","0199d675-8795-765b-adc2-c813de8cd3d1","","null","<div style=""display: flex; justify-content: center; align-items: center;"">
                     <img src=""images/causal/causal_series_7/causal_series_7_c.png"" style=""width: 300px; height: 300px;"" />
                   </div>","null","7","2","C","",""
"","","","","","html-keyboard-response","161","825019","0.0-121.0-0.0-2.0","A317E36F944C4C58B45B58656C92C151","0199d67a-71bd-702a-9f88-e85de4cfb66c","0199d675-8795-765b-adc2-c813de8cd3d1","","null","<div style=""display: flex; justify-content: center; align-items: center;"">
                     <img src=""images/causal/causal_series_7/causal_series_7_d.png"" style=""width: 300px; height: 300px;"" />
                   </div>","null","7","2","D","",""
"","","","","","survey-likert","162","829135","0.0-122.0","A317E36F944C4C58B45B58656C92C151","0199d67a-71bd-702a-9f88-e85de4cfb66c","0199d675-8795-765b-adc2-c813de8cd3d1","","4115","","{""Q0"":1}","7","2","surprise_rating","","[0]"
"","","","","","survey-likert","163","831655","0.0-123.0","A317E36F944C4C58B45B58656C92C151","0199d67a-71bd-702a-9f88-e85de4cfb66c","0199d675-8795-765b-adc2-c813de8cd3d1","","2520","","{""Q0"":2}","7","2","enjoyment_rating","","[0]"
"","","","","","html-keyboard-response","164","837664","0.0-124.0","A317E36F944C4C58B45B58656C92C151","0199d67a-71bd-702a-9f88-e85de4cfb66c","0199d675-8795-765b-adc2-c813de8cd3d1","","null","<div style=""display: flex; justify-content: center; align-items: center;"">
                     <img src=""images/other/blank.png"" style=""width: 300px; height: 300px;"" />
                   </div>","null","0","0","blank","",""
"","","","","","survey-text","165","876253","0.0-125.0","A317E36F944C4C58B45B58656C92C151","0199d67a-71bd-702a-9f88-e85de4cfb66c","0199d675-8795-765b-adc2-c813de8cd3d1","","38587","","{""Q0"":""One of them shows a story where events are related, and the other one where events aren't related between each other""}","","","","",""
"","","","","","html-button-response","166","885696","0.0-126.0","A317E36F944C4C58B45B58656C92C151","0199d67a-71bd-702a-9f88-e85de4cfb66c","0199d675-8795-765b-adc2-c813de8cd3d1","","9443","Which color deck do the following sentences continue the story from?","0","","","","",""
"","","","","","html-button-response","167","887205","0.0-127.0","A317E36F944C4C58B45B58656C92C151","0199d67a-71bd-702a-9f88-e85de4cfb66c","0199d675-8795-765b-adc2-c813de8cd3d1","","1509","Which color deck do the following sentences NOT follow the story from?","1","","","","",""
"","","","","","html-button-response","168","891767","0.0-128.0","A317E36F944C4C58B45B58656C92C151","0199d67a-71bd-702a-9f88-e85de4cfb66c","0199d675-8795-765b-adc2-c813de8cd3d1","","4562","Which type of deck did you prefer overall?","1","","","","",""
"","","","","","survey-text","169","896915","0.0-129.0","A317E36F944C4C58B45B58656C92C151","0199d67a-71bd-702a-9f88-e85de4cfb66c","0199d675-8795-765b-adc2-c813de8cd3d1","","5146","","{""Q0"":""Female"",""Q1"":""29""}","","","","",""
"","","","","","instructions","170","899944","0.0-130.0","A317E36F944C4C58B45B58656C92C151","0199d67a-71bd-702a-9f88-e85de4cfb66c","0199d675-8795-765b-adc2-c813de8cd3d1","[{""page_index"":0,""viewing_time"":3028}]","3028","","","","","","",""
