"success","timeout","failed_images","failed_audio","failed_video","trial_type","trial_index","time_elapsed","internal_node_id","subject_id","study_id","session_id","view_history","rt","stimulus","response","series","repetition","phase","choice","question_order"
"true","false","[]","[]","[]","preload","0","3726","0.0-0.0","4440CF210E074C508EBB070600425CFC","0199d605-184b-76b0-94ad-e45a8cf516d5","0199d5ef-c7d4-7cab-a194-b2c3afbaf8e8","","","","","","","","",""
"","","","","","instructions","1","785857","0.0-1.0","4440CF210E074C508EBB070600425CFC","0199d605-184b-76b0-94ad-e45a8cf516d5","0199d5ef-c7d4-7cab-a194-b2c3afbaf8e8","[{""page_index"":0,""viewing_time"":782130}]","782131","","","","","","",""
"","","","","","instructions","2","788286","0.0-2.0","4440CF210E074C508EBB070600425CFC","0199d605-184b-76b0-94ad-e45a8cf516d5","0199d5ef-c7d4-7cab-a194-b2c3afbaf8e8","[{""page_index"":0,""viewing_time"":2428}]","2429","","","","","","",""
"true","","","","","fullscreen","3","791516","0.0-3.0","4440CF210E074C508EBB070600425CFC","0199d605-184b-76b0-94ad-e45a8cf516d5","0199d5ef-c7d4-7cab-a194-b2c3afbaf8e8","","2217","","","","","","",""
"","","","","","instructions","4","799412","0.0-4.0","4440CF210E074C508EBB070600425CFC","0199d605-184b-76b0-94ad-e45a8cf516d5","0199d5ef-c7d4-7cab-a194-b2c3afbaf8e8","[{""page_index"":0,""viewing_time"":7896}]","7896","","","","","","",""
"","","","","","html-keyboard-response","5","805422","0.0-5.0","4440CF210E074C508EBB070600425CFC","0199d605-184b-76b0-94ad-e45a8cf516d5","0199d5ef-c7d4-7cab-a194-b2c3afbaf8e8","","null","<div style=""display: flex; justify-content: center; align-items: center;"">
                     <img src=""images/causal/causal_series_10/causal_series_10_a.png"" style=""width: 300px; height: 300px;"" />
                   </div>","null","10","2","A","",""
"","","","","","html-keyboard-response","6","811435","0.0-6.0","4440CF210E074C508EBB070600425CFC","0199d605-184b-76b0-94ad-e45a8cf516d5","0199d5ef-c7d4-7cab-a194-b2c3afbaf8e8","","null","<div style=""display: flex; justify-content: center; align-items: center;"">
                     <img src=""images/causal/causal_series_10/causal_series_10_b.png"" style=""width: 300px; height: 300px;"" />
                   </div>","null","10","2","B","",""
"","","","","","html-keyboard-response","7","817452","0.0-7.0","4440CF210E074C508EBB070600425CFC","0199d605-184b-76b0-94ad-e45a8cf516d5","0199d5ef-c7d4-7cab-a194-b2c3afbaf8e8","","null","<div style=""display: flex; justify-content: center; align-items: center;"">
                     <img src=""images/causal/causal_series_10/causal_series_10_c.png"" style=""width: 300px; height: 300px;"" />
                   </div>","null","10","2","C","",""
"","","","","","html-button-response","8","819732","0.0-8.0","4440CF210E074C508EBB070600425CFC","0199d605-184b-76b0-94ad-e45a8cf516d5","0199d5ef-c7d4-7cab-a194-b2c3afbaf8e8","","2277","
        <div style=""display: flex; justify-content: center; align-items: center;"">
          <img src=""images/red_deck_2.png"" style=""width: 300px; height: 300px; margin-right: 10px;"" />
          <img src=""images/blue_deck_1.png"" style=""width: 300px; height: 300px;"" />
        </div>","1","10","2","choice","1",""
"","","","","","html-keyboard-response","9","825741","0.0-9.0-1.0-0.0","4440CF210E074C508EBB070600425CFC","0199d605-184b-76b0-94ad-e45a8cf516d5","0199d5ef-c7d4-7cab-a194-b2c3afbaf8e8","","null","<div style=""display: flex; justify-content: center; align-items: center;"">
                     <img src=""images/semantic/semantic_series_10/semantic_series_10_d.png"" style=""width: 300px; height: 300px;"" />
                   </div>","null","10","2","D","",""
"","","","","","html-keyboard-response","10","831757","0.0-9.0-1.0-1.0","4440CF210E074C508EBB070600425CFC","0199d605-184b-76b0-94ad-e45a8cf516d5","0199d5ef-c7d4-7cab-a194-b2c3afbaf8e8","","null","<div style=""display: flex; justify-content: center; align-items: center;"">
                     <img src=""images/semantic/semantic_series_10/semantic_series_10_e.png"" style=""width: 300px; height: 300px;"" />
                   </div>","null","10","2","E","",""
"","","","","","html-keyboard-response","11","837763","0.0-9.0-1.0-2.0","4440CF210E074C508EBB070600425CFC","0199d605-184b-76b0-94ad-e45a8cf516d5","0199d5ef-c7d4-7cab-a194-b2c3afbaf8e8","","null","<div style=""display: flex; justify-content: center; align-items: center;"">
                     <img src=""images/semantic/semantic_series_10/semantic_series_10_f.png"" style=""width: 300px; height: 300px;"" />
                   </div>","null","10","2","F","",""
"","","","","","survey-likert","12","841457","0.0-10.0","4440CF210E074C508EBB070600425CFC","0199d605-184b-76b0-94ad-e45a8cf516d5","0199d5ef-c7d4-7cab-a194-b2c3afbaf8e8","","3690","","{""Q0"":4}","10","2","surprise_rating","","[0]"
"","","","","","survey-likert","13","845133","0.0-11.0","4440CF210E074C508EBB070600425CFC","0199d605-184b-76b0-94ad-e45a8cf516d5","0199d5ef-c7d4-7cab-a194-b2c3afbaf8e8","","3675","","{""Q0"":3}","10","2","enjoyment_rating","","[0]"
"","","","","","html-keyboard-response","14","851143","0.0-12.0","4440CF210E074C508EBB070600425CFC","0199d605-184b-76b0-94ad-e45a8cf516d5","0199d5ef-c7d4-7cab-a194-b2c3afbaf8e8","","null","<div style=""display: flex; justify-content: center; align-items: center;"">
                     <img src=""images/other/blank.png"" style=""width: 300px; height: 300px;"" />
                   </div>","null","0","0","blank","",""
"","","","","","html-keyboard-response","15","857157","0.0-13.0","4440CF210E074C508EBB070600425CFC","0199d605-184b-76b0-94ad-e45a8cf516d5","0199d5ef-c7d4-7cab-a194-b2c3afbaf8e8","","null","<div style=""display: flex; justify-content: center; align-items: center;"">
                     <img src=""images/causal/causal_series_3/causal_series_3_a.png"" style=""width: 300px; height: 300px;"" />
                   </div>","null","3","2","A","",""
"","","","","","html-keyboard-response","16","863166","0.0-14.0","4440CF210E074C508EBB070600425CFC","0199d605-184b-76b0-94ad-e45a8cf516d5","0199d5ef-c7d4-7cab-a194-b2c3afbaf8e8","","null","<div style=""display: flex; justify-content: center; align-items: center;"">
                     <img src=""images/causal/causal_series_3/causal_series_3_b.png"" style=""width: 300px; height: 300px;"" />
                   </div>","null","3","2","B","",""
"","","","","","html-keyboard-response","17","869176","0.0-15.0","4440CF210E074C508EBB070600425CFC","0199d605-184b-76b0-94ad-e45a8cf516d5","0199d5ef-c7d4-7cab-a194-b2c3afbaf8e8","","null","<div style=""display: flex; justify-content: center; align-items: center;"">
                     <img src=""images/causal/causal_series_3/causal_series_3_c.png"" style=""width: 300px; height: 300px;"" />
                   </div>","null","3","2","C","",""
"","","","","","html-button-response","18","870894","0.0-16.0","4440CF210E074C508EBB070600425CFC","0199d605-184b-76b0-94ad-e45a8cf516d5","0199d5ef-c7d4-7cab-a194-b2c3afbaf8e8","","1718","
        <div style=""display: flex; justify-content: center; align-items: center;"">
          <img src=""images/red_deck_2.png"" style=""width: 300px; height: 300px; margin-right: 10px;"" />
          <img src=""images/blue_deck_1.png"" style=""width: 300px; height: 300px;"" />
        </div>","0","3","2","choice","0",""
"","","","","","html-keyboard-response","19","876905","0.0-17.0-0.0-0.0","4440CF210E074C508EBB070600425CFC","0199d605-184b-76b0-94ad-e45a8cf516d5","0199d5ef-c7d4-7cab-a194-b2c3afbaf8e8","","null","<div style=""display: flex; justify-content: center; align-items: center;"">
                     <img src=""images/causal/causal_series_3/causal_series_3_d.png"" style=""width: 300px; height: 300px;"" />
                   </div>","null","3","2","D","",""
"","","","","","html-keyboard-response","20","882918","0.0-17.0-0.0-1.0","4440CF210E074C508EBB070600425CFC","0199d605-184b-76b0-94ad-e45a8cf516d5","0199d5ef-c7d4-7cab-a194-b2c3afbaf8e8","","null","<div style=""display: flex; justify-content: center; align-items: center;"">
                     <img src=""images/causal/causal_series_3/causal_series_3_e.png"" style=""width: 300px; height: 300px;"" />
                   </div>","null","3","2","E","",""
"","","","","","html-keyboard-response","21","888929","0.0-17.0-0.0-2.0","4440CF210E074C508EBB070600425CFC","0199d605-184b-76b0-94ad-e45a8cf516d5","0199d5ef-c7d4-7cab-a194-b2c3afbaf8e8","","null","<div style=""display: flex; justify-content: center; align-items: center;"">
                     <img src=""images/causal/causal_series_3/causal_series_3_f.png"" style=""width: 300px; height: 300px;"" />
                   </div>","null","3","2","F","",""
"","","","","","survey-likert","22","892809","0.0-18.0","4440CF210E074C508EBB070600425CFC","0199d605-184b-76b0-94ad-e45a8cf516d5","0199d5ef-c7d4-7cab-a194-b2c3afbaf8e8","","3879","","{""Q0"":3}","3","2","surprise_rating","","[0]"
"","","","","","survey-likert","23","894802","0.0-19.0","4440CF210E074C508EBB070600425CFC","0199d605-184b-76b0-94ad-e45a8cf516d5","0199d5ef-c7d4-7cab-a194-b2c3afbaf8e8","","1993","","{""Q0"":2}","3","2","enjoyment_rating","","[0]"
"","","","","","html-keyboard-response","24","900812","0.0-20.0","4440CF210E074C508EBB070600425CFC","0199d605-184b-76b0-94ad-e45a8cf516d5","0199d5ef-c7d4-7cab-a194-b2c3afbaf8e8","","null","<div style=""display: flex; justify-content: center; align-items: center;"">
                     <img src=""images/other/blank.png"" style=""width: 300px; height: 300px;"" />
                   </div>","null","0","0","blank","",""
"","","","","","html-keyboard-response","25","906814","0.0-21.0","4440CF210E074C508EBB070600425CFC","0199d605-184b-76b0-94ad-e45a8cf516d5","0199d5ef-c7d4-7cab-a194-b2c3afbaf8e8","","null","<div style=""display: flex; justify-content: center; align-items: center;"">
                     <img src=""images/causal/causal_series_6/causal_series_6_a.png"" style=""width: 300px; height: 300px;"" />
                   </div>","null","6","2","A","",""
"","","","","","html-keyboard-response","26","912817","0.0-22.0","4440CF210E074C508EBB070600425CFC","0199d605-184b-76b0-94ad-e45a8cf516d5","0199d5ef-c7d4-7cab-a194-b2c3afbaf8e8","","null","<div style=""display: flex; justify-content: center; align-items: center;"">
                     <img src=""images/causal/causal_series_6/causal_series_6_b.png"" style=""width: 300px; height: 300px;"" />
                   </div>","null","6","2","B","",""
"","","","","","html-keyboard-response","27","918818","0.0-23.0","4440CF210E074C508EBB070600425CFC","0199d605-184b-76b0-94ad-e45a8cf516d5","0199d5ef-c7d4-7cab-a194-b2c3afbaf8e8","","null","<div style=""display: flex; justify-content: center; align-items: center;"">
                     <img src=""images/causal/causal_series_6/causal_series_6_c.png"" style=""width: 300px; height: 300px;"" />
                   </div>","null","6","2","C","",""
"","","","","","html-button-response","28","920059","0.0-24.0","4440CF210E074C508EBB070600425CFC","0199d605-184b-76b0-94ad-e45a8cf516d5","0199d5ef-c7d4-7cab-a194-b2c3afbaf8e8","","1240","
        <div style=""display: flex; justify-content: center; align-items: center;"">
          <img src=""images/red_deck_2.png"" style=""width: 300px; height: 300px; margin-right: 10px;"" />
          <img src=""images/blue_deck_1.png"" style=""width: 300px; height: 300px;"" />
        </div>","0","6","2","choice","0",""
"","","","","","html-keyboard-response","29","926072","0.0-25.0-0.0-0.0","4440CF210E074C508EBB070600425CFC","0199d605-184b-76b0-94ad-e45a8cf516d5","0199d5ef-c7d4-7cab-a194-b2c3afbaf8e8","","null","<div style=""display: flex; justify-content: center; align-items: center;"">
                     <img src=""images/causal/causal_series_6/causal_series_6_d.png"" style=""width: 300px; height: 300px;"" />
                   </div>","null","6","2","D","",""
"","","","","","html-keyboard-response","30","932087","0.0-25.0-0.0-1.0","4440CF210E074C508EBB070600425CFC","0199d605-184b-76b0-94ad-e45a8cf516d5","0199d5ef-c7d4-7cab-a194-b2c3afbaf8e8","","null","<div style=""display: flex; justify-content: center; align-items: center;"">
                     <img src=""images/causal/causal_series_6/causal_series_6_e.png"" style=""width: 300px; height: 300px;"" />
                   </div>","null","6","2","E","",""
"","","","","","html-keyboard-response","31","938095","0.0-25.0-0.0-2.0","4440CF210E074C508EBB070600425CFC","0199d605-184b-76b0-94ad-e45a8cf516d5","0199d5ef-c7d4-7cab-a194-b2c3afbaf8e8","","null","<div style=""display: flex; justify-content: center; align-items: center;"">
                     <img src=""images/causal/causal_series_6/causal_series_6_f.png"" style=""width: 300px; height: 300px;"" />
                   </div>","null","6","2","F","",""
"","","","","","survey-likert","32","942860","0.0-26.0","4440CF210E074C508EBB070600425CFC","0199d605-184b-76b0-94ad-e45a8cf516d5","0199d5ef-c7d4-7cab-a194-b2c3afbaf8e8","","4764","","{""Q0"":1}","6","2","surprise_rating","","[0]"
"","","","","","survey-likert","33","945199","0.0-27.0","4440CF210E074C508EBB070600425CFC","0199d605-184b-76b0-94ad-e45a8cf516d5","0199d5ef-c7d4-7cab-a194-b2c3afbaf8e8","","2339","","{""Q0"":2}","6","2","enjoyment_rating","","[0]"
"","","","","","html-keyboard-response","34","951209","0.0-28.0","4440CF210E074C508EBB070600425CFC","0199d605-184b-76b0-94ad-e45a8cf516d5","0199d5ef-c7d4-7cab-a194-b2c3afbaf8e8","","null","<div style=""display: flex; justify-content: center; align-items: center;"">
                     <img src=""images/other/blank.png"" style=""width: 300px; height: 300px;"" />
                   </div>","null","0","0","blank","",""
"","","","","","html-keyboard-response","35","957214","0.0-29.0","4440CF210E074C508EBB070600425CFC","0199d605-184b-76b0-94ad-e45a8cf516d5","0199d5ef-c7d4-7cab-a194-b2c3afbaf8e8","","null","<div style=""display: flex; justify-content: center; align-items: center;"">
                     <img src=""images/causal/causal_series_10/causal_series_10_a.png"" style=""width: 300px; height: 300px;"" />
                   </div>","null","10","1","A","",""
"","","","","","html-keyboard-response","36","963226","0.0-30.0","4440CF210E074C508EBB070600425CFC","0199d605-184b-76b0-94ad-e45a8cf516d5","0199d5ef-c7d4-7cab-a194-b2c3afbaf8e8","","null","<div style=""display: flex; justify-content: center; align-items: center;"">
                     <img src=""images/causal/causal_series_10/causal_series_10_b.png"" style=""width: 300px; height: 300px;"" />
                   </div>","null","10","1","B","",""
"","","","","","html-keyboard-response","37","969227","0.0-31.0","4440CF210E074C508EBB070600425CFC","0199d605-184b-76b0-94ad-e45a8cf516d5","0199d5ef-c7d4-7cab-a194-b2c3afbaf8e8","","null","<div style=""display: flex; justify-content: center; align-items: center;"">
                     <img src=""images/causal/causal_series_10/causal_series_10_c.png"" style=""width: 300px; height: 300px;"" />
                   </div>","null","10","1","C","",""
"","","","","","html-button-response","38","970278","0.0-32.0","4440CF210E074C508EBB070600425CFC","0199d605-184b-76b0-94ad-e45a8cf516d5","0199d5ef-c7d4-7cab-a194-b2c3afbaf8e8","","1050","
        <div style=""display: flex; justify-content: center; align-items: center;"">
          <img src=""images/red_deck_2.png"" style=""width: 300px; height: 300px; margin-right: 10px;"" />
          <img src=""images/blue_deck_1.png"" style=""width: 300px; height: 300px;"" />
        </div>","0","10","1","choice","0",""
"","","","","","html-keyboard-response","39","976286","0.0-33.0-0.0-0.0","4440CF210E074C508EBB070600425CFC","0199d605-184b-76b0-94ad-e45a8cf516d5","0199d5ef-c7d4-7cab-a194-b2c3afbaf8e8","","null","<div style=""display: flex; justify-content: center; align-items: center;"">
                     <img src=""images/causal/causal_series_10/causal_series_10_d.png"" style=""width: 300px; height: 300px;"" />
                   </div>","null","10","1","D","",""
"","","","","","html-keyboard-response","40","982296","0.0-33.0-0.0-1.0","4440CF210E074C508EBB070600425CFC","0199d605-184b-76b0-94ad-e45a8cf516d5","0199d5ef-c7d4-7cab-a194-b2c3afbaf8e8","","null","<div style=""display: flex; justify-content: center; align-items: center;"">
                     <img src=""images/causal/causal_series_10/causal_series_10_e.png"" style=""width: 300px; height: 300px;"" />
                   </div>","null","10","1","E","",""
"","","","","","html-keyboard-response","41","988299","0.0-33.0-0.0-2.0","4440CF210E074C508EBB070600425CFC","0199d605-184b-76b0-94ad-e45a8cf516d5","0199d5ef-c7d4-7cab-a194-b2c3afbaf8e8","","null","<div style=""display: flex; justify-content: center; align-items: center;"">
                     <img src=""images/causal/causal_series_10/causal_series_10_f.png"" style=""width: 300px; height: 300px;"" />
                   </div>","null","10","1","F","",""
"","","","","","survey-likert","42","990841","0.0-34.0","4440CF210E074C508EBB070600425CFC","0199d605-184b-76b0-94ad-e45a8cf516d5","0199d5ef-c7d4-7cab-a194-b2c3afbaf8e8","","2541","","{""Q0"":3}","10","1","surprise_rating","","[0]"
"","","","","","survey-likert","43","992441","0.0-35.0","4440CF210E074C508EBB070600425CFC","0199d605-184b-76b0-94ad-e45a8cf516d5","0199d5ef-c7d4-7cab-a194-b2c3afbaf8e8","","1598","","{""Q0"":3}","10","1","enjoyment_rating","","[0]"
"","","","","","html-keyboard-response","44","998447","0.0-36.0","4440CF210E074C508EBB070600425CFC","0199d605-184b-76b0-94ad-e45a8cf516d5","0199d5ef-c7d4-7cab-a194-b2c3afbaf8e8","","null","<div style=""display: flex; justify-content: center; align-items: center;"">
                     <img src=""images/other/blank.png"" style=""width: 300px; height: 300px;"" />
                   </div>","null","0","0","blank","",""
"","","","","","html-keyboard-response","45","1004464","0.0-37.0","4440CF210E074C508EBB070600425CFC","0199d605-184b-76b0-94ad-e45a8cf516d5","0199d5ef-c7d4-7cab-a194-b2c3afbaf8e8","","null","<div style=""display: flex; justify-content: center; align-items: center;"">
                     <img src=""images/causal/causal_series_2/causal_series_2_a.png"" style=""width: 300px; height: 300px;"" />
                   </div>","null","2","2","A","",""
"","","","","","html-keyboard-response","46","1010478","0.0-38.0","4440CF210E074C508EBB070600425CFC","0199d605-184b-76b0-94ad-e45a8cf516d5","0199d5ef-c7d4-7cab-a194-b2c3afbaf8e8","","null","<div style=""display: flex; justify-content: center; align-items: center;"">
                     <img src=""images/causal/causal_series_2/causal_series_2_b.png"" style=""width: 300px; height: 300px;"" />
                   </div>","null","2","2","B","",""
"","","","","","html-keyboard-response","47","1016487","0.0-39.0","4440CF210E074C508EBB070600425CFC","0199d605-184b-76b0-94ad-e45a8cf516d5","0199d5ef-c7d4-7cab-a194-b2c3afbaf8e8","","null","<div style=""display: flex; justify-content: center; align-items: center;"">
                     <img src=""images/causal/causal_series_2/causal_series_2_c.png"" style=""width: 300px; height: 300px;"" />
                   </div>","null","2","2","C","",""
"","","","","","html-button-response","48","1019103","0.0-40.0","4440CF210E074C508EBB070600425CFC","0199d605-184b-76b0-94ad-e45a8cf516d5","0199d5ef-c7d4-7cab-a194-b2c3afbaf8e8","","2614","
        <div style=""display: flex; justify-content: center; align-items: center;"">
          <img src=""images/red_deck_2.png"" style=""width: 300px; height: 300px; margin-right: 10px;"" />
          <img src=""images/blue_deck_1.png"" style=""width: 300px; height: 300px;"" />
        </div>","0","2","2","choice","0",""
"","","","","","html-keyboard-response","49","1025115","0.0-41.0-0.0-0.0","4440CF210E074C508EBB070600425CFC","0199d605-184b-76b0-94ad-e45a8cf516d5","0199d5ef-c7d4-7cab-a194-b2c3afbaf8e8","","null","<div style=""display: flex; justify-content: center; align-items: center;"">
                     <img src=""images/causal/causal_series_2/causal_series_2_d.png"" style=""width: 300px; height: 300px;"" />
                   </div>","null","2","2","D","",""
"","","","","","html-keyboard-response","50","1031117","0.0-41.0-0.0-1.0","4440CF210E074C508EBB070600425CFC","0199d605-184b-76b0-94ad-e45a8cf516d5","0199d5ef-c7d4-7cab-a194-b2c3afbaf8e8","","null","<div style=""display: flex; justify-content: center; align-items: center;"">
                     <img src=""images/causal/causal_series_2/causal_series_2_e.png"" style=""width: 300px; height: 300px;"" />
                   </div>","null","2","2","E","",""
"","","","","","html-keyboard-response","51","1037120","0.0-41.0-0.0-2.0","4440CF210E074C508EBB070600425CFC","0199d605-184b-76b0-94ad-e45a8cf516d5","0199d5ef-c7d4-7cab-a194-b2c3afbaf8e8","","null","<div style=""display: flex; justify-content: center; align-items: center;"">
                     <img src=""images/causal/causal_series_2/causal_series_2_f.png"" style=""width: 300px; height: 300px;"" />
                   </div>","null","2","2","F","",""
"","","","","","survey-likert","52","1040928","0.0-42.0","4440CF210E074C508EBB070600425CFC","0199d605-184b-76b0-94ad-e45a8cf516d5","0199d5ef-c7d4-7cab-a194-b2c3afbaf8e8","","3806","","{""Q0"":1}","2","2","surprise_rating","","[0]"
"","","","","","survey-likert","53","1042761","0.0-43.0","4440CF210E074C508EBB070600425CFC","0199d605-184b-76b0-94ad-e45a8cf516d5","0199d5ef-c7d4-7cab-a194-b2c3afbaf8e8","","1832","","{""Q0"":2}","2","2","enjoyment_rating","","[0]"
"","","","","","html-keyboard-response","54","1048771","0.0-44.0","4440CF210E074C508EBB070600425CFC","0199d605-184b-76b0-94ad-e45a8cf516d5","0199d5ef-c7d4-7cab-a194-b2c3afbaf8e8","","null","<div style=""display: flex; justify-content: center; align-items: center;"">
                     <img src=""images/other/blank.png"" style=""width: 300px; height: 300px;"" />
                   </div>","null","0","0","blank","",""
"","","","","","html-keyboard-response","55","1054775","0.0-45.0","4440CF210E074C508EBB070600425CFC","0199d605-184b-76b0-94ad-e45a8cf516d5","0199d5ef-c7d4-7cab-a194-b2c3afbaf8e8","","null","<div style=""display: flex; justify-content: center; align-items: center;"">
                     <img src=""images/causal/causal_series_6/causal_series_6_a.png"" style=""width: 300px; height: 300px;"" />
                   </div>","null","6","1","A","",""
"","","","","","html-keyboard-response","56","1060784","0.0-46.0","4440CF210E074C508EBB070600425CFC","0199d605-184b-76b0-94ad-e45a8cf516d5","0199d5ef-c7d4-7cab-a194-b2c3afbaf8e8","","null","<div style=""display: flex; justify-content: center; align-items: center;"">
                     <img src=""images/causal/causal_series_6/causal_series_6_b.png"" style=""width: 300px; height: 300px;"" />
                   </div>","null","6","1","B","",""
"","","","","","html-keyboard-response","57","1066800","0.0-47.0","4440CF210E074C508EBB070600425CFC","0199d605-184b-76b0-94ad-e45a8cf516d5","0199d5ef-c7d4-7cab-a194-b2c3afbaf8e8","","null","<div style=""display: flex; justify-content: center; align-items: center;"">
                     <img src=""images/causal/causal_series_6/causal_series_6_c.png"" style=""width: 300px; height: 300px;"" />
                   </div>","null","6","1","C","",""
"","","","","","html-button-response","58","1068738","0.0-48.0","4440CF210E074C508EBB070600425CFC","0199d605-184b-76b0-94ad-e45a8cf516d5","0199d5ef-c7d4-7cab-a194-b2c3afbaf8e8","","1936","
        <div style=""display: flex; justify-content: center; align-items: center;"">
          <img src=""images/red_deck_2.png"" style=""width: 300px; height: 300px; margin-right: 10px;"" />
          <img src=""images/blue_deck_1.png"" style=""width: 300px; height: 300px;"" />
        </div>","1","6","1","choice","1",""
"","","","","","html-keyboard-response","59","1074749","0.0-49.0-1.0-0.0","4440CF210E074C508EBB070600425CFC","0199d605-184b-76b0-94ad-e45a8cf516d5","0199d5ef-c7d4-7cab-a194-b2c3afbaf8e8","","null","<div style=""display: flex; justify-content: center; align-items: center;"">
                     <img src=""images/semantic/semantic_series_6/semantic_series_6_d.png"" style=""width: 300px; height: 300px;"" />
                   </div>","null","6","1","D","",""
"","","","","","html-keyboard-response","60","1080750","0.0-49.0-1.0-1.0","4440CF210E074C508EBB070600425CFC","0199d605-184b-76b0-94ad-e45a8cf516d5","0199d5ef-c7d4-7cab-a194-b2c3afbaf8e8","","null","<div style=""display: flex; justify-content: center; align-items: center;"">
                     <img src=""images/semantic/semantic_series_6/semantic_series_6_e.png"" style=""width: 300px; height: 300px;"" />
                   </div>","null","6","1","E","",""
"","","","","","html-keyboard-response","61","1086762","0.0-49.0-1.0-2.0","4440CF210E074C508EBB070600425CFC","0199d605-184b-76b0-94ad-e45a8cf516d5","0199d5ef-c7d4-7cab-a194-b2c3afbaf8e8","","null","<div style=""display: flex; justify-content: center; align-items: center;"">
                     <img src=""images/semantic/semantic_series_6/semantic_series_6_f.png"" style=""width: 300px; height: 300px;"" />
                   </div>","null","6","1","F","",""
"","","","","","survey-likert","62","1090922","0.0-50.0","4440CF210E074C508EBB070600425CFC","0199d605-184b-76b0-94ad-e45a8cf516d5","0199d5ef-c7d4-7cab-a194-b2c3afbaf8e8","","4160","","{""Q0"":1}","6","1","surprise_rating","","[0]"
"","","","","","survey-likert","63","1097434","0.0-51.0","4440CF210E074C508EBB070600425CFC","0199d605-184b-76b0-94ad-e45a8cf516d5","0199d5ef-c7d4-7cab-a194-b2c3afbaf8e8","","6512","","{""Q0"":2}","6","1","enjoyment_rating","","[0]"
"","","","","","html-keyboard-response","64","1103438","0.0-52.0","4440CF210E074C508EBB070600425CFC","0199d605-184b-76b0-94ad-e45a8cf516d5","0199d5ef-c7d4-7cab-a194-b2c3afbaf8e8","","null","<div style=""display: flex; justify-content: center; align-items: center;"">
                     <img src=""images/other/blank.png"" style=""width: 300px; height: 300px;"" />
                   </div>","null","0","0","blank","",""
"","","","","","html-keyboard-response","65","1109445","0.0-53.0","4440CF210E074C508EBB070600425CFC","0199d605-184b-76b0-94ad-e45a8cf516d5","0199d5ef-c7d4-7cab-a194-b2c3afbaf8e8","","null","<div style=""display: flex; justify-content: center; align-items: center;"">
                     <img src=""images/causal/causal_series_1/causal_series_1_a.png"" style=""width: 300px; height: 300px;"" />
                   </div>","null","1","2","A","",""
"","","","","","html-keyboard-response","66","1115450","0.0-54.0","4440CF210E074C508EBB070600425CFC","0199d605-184b-76b0-94ad-e45a8cf516d5","0199d5ef-c7d4-7cab-a194-b2c3afbaf8e8","","null","<div style=""display: flex; justify-content: center; align-items: center;"">
                     <img src=""images/causal/causal_series_1/causal_series_1_b.png"" style=""width: 300px; height: 300px;"" />
                   </div>","null","1","2","B","",""
"","","","","","html-keyboard-response","67","1121455","0.0-55.0","4440CF210E074C508EBB070600425CFC","0199d605-184b-76b0-94ad-e45a8cf516d5","0199d5ef-c7d4-7cab-a194-b2c3afbaf8e8","","null","<div style=""display: flex; justify-content: center; align-items: center;"">
                     <img src=""images/causal/causal_series_1/causal_series_1_c.png"" style=""width: 300px; height: 300px;"" />
                   </div>","null","1","2","C","",""
"","","","","","html-button-response","68","1123142","0.0-56.0","4440CF210E074C508EBB070600425CFC","0199d605-184b-76b0-94ad-e45a8cf516d5","0199d5ef-c7d4-7cab-a194-b2c3afbaf8e8","","1685","
        <div style=""display: flex; justify-content: center; align-items: center;"">
          <img src=""images/red_deck_2.png"" style=""width: 300px; height: 300px; margin-right: 10px;"" />
          <img src=""images/blue_deck_1.png"" style=""width: 300px; height: 300px;"" />
        </div>","1","1","2","choice","1",""
"","","","","","html-keyboard-response","69","1129150","0.0-57.0-1.0-0.0","4440CF210E074C508EBB070600425CFC","0199d605-184b-76b0-94ad-e45a8cf516d5","0199d5ef-c7d4-7cab-a194-b2c3afbaf8e8","","null","<div style=""display: flex; justify-content: center; align-items: center;"">
                     <img src=""images/semantic/semantic_series_1/semantic_series_1_d.png"" style=""width: 300px; height: 300px;"" />
                   </div>","null","1","2","D","",""
"","","","","","html-keyboard-response","70","1135160","0.0-57.0-1.0-1.0","4440CF210E074C508EBB070600425CFC","0199d605-184b-76b0-94ad-e45a8cf516d5","0199d5ef-c7d4-7cab-a194-b2c3afbaf8e8","","null","<div style=""display: flex; justify-content: center; align-items: center;"">
                     <img src=""images/semantic/semantic_series_1/semantic_series_1_e.png"" style=""width: 300px; height: 300px;"" />
                   </div>","null","1","2","E","",""
"","","","","","html-keyboard-response","71","1141175","0.0-57.0-1.0-2.0","4440CF210E074C508EBB070600425CFC","0199d605-184b-76b0-94ad-e45a8cf516d5","0199d5ef-c7d4-7cab-a194-b2c3afbaf8e8","","null","<div style=""display: flex; justify-content: center; align-items: center;"">
                     <img src=""images/semantic/semantic_series_1/semantic_series_1_f.png"" style=""width: 300px; height: 300px;"" />
                   </div>","null","1","2","F","",""
"","","","","","survey-likert","72","1147644","0.0-58.0","4440CF210E074C508EBB070600425CFC","0199d605-184b-76b0-94ad-e45a8cf516d5","0199d5ef-c7d4-7cab-a194-b2c3afbaf8e8","","6466","","{""Q0"":2}","1","2","surprise_rating","","[0]"
"","","","","","survey-likert","73","1149183","0.0-59.0","4440CF210E074C508EBB070600425CFC","0199d605-184b-76b0-94ad-e45a8cf516d5","0199d5ef-c7d4-7cab-a194-b2c3afbaf8e8","","1539","","{""Q0"":2}","1","2","enjoyment_rating","","[0]"
"","","","","","html-keyboard-response","74","1155194","0.0-60.0","4440CF210E074C508EBB070600425CFC","0199d605-184b-76b0-94ad-e45a8cf516d5","0199d5ef-c7d4-7cab-a194-b2c3afbaf8e8","","null","<div style=""display: flex; justify-content: center; align-items: center;"">
                     <img src=""images/other/blank.png"" style=""width: 300px; height: 300px;"" />
                   </div>","null","0","0","blank","",""
"","","","","","html-keyboard-response","75","1161201","0.0-61.0","4440CF210E074C508EBB070600425CFC","0199d605-184b-76b0-94ad-e45a8cf516d5","0199d5ef-c7d4-7cab-a194-b2c3afbaf8e8","","null","<div style=""display: flex; justify-content: center; align-items: center;"">
                     <img src=""images/causal/causal_series_2/causal_series_2_a.png"" style=""width: 300px; height: 300px;"" />
                   </div>","null","2","1","A","",""
"","","","","","html-keyboard-response","76","1167212","0.0-62.0","4440CF210E074C508EBB070600425CFC","0199d605-184b-76b0-94ad-e45a8cf516d5","0199d5ef-c7d4-7cab-a194-b2c3afbaf8e8","","null","<div style=""display: flex; justify-content: center; align-items: center;"">
                     <img src=""images/causal/causal_series_2/causal_series_2_b.png"" style=""width: 300px; height: 300px;"" />
                   </div>","null","2","1","B","",""
"","","","","","html-keyboard-response","77","1173214","0.0-63.0","4440CF210E074C508EBB070600425CFC","0199d605-184b-76b0-94ad-e45a8cf516d5","0199d5ef-c7d4-7cab-a194-b2c3afbaf8e8","","null","<div style=""display: flex; justify-content: center; align-items: center;"">
                     <img src=""images/causal/causal_series_2/causal_series_2_c.png"" style=""width: 300px; height: 300px;"" />
                   </div>","null","2","1","C","",""
"","","","","","html-button-response","78","1175070","0.0-64.0","4440CF210E074C508EBB070600425CFC","0199d605-184b-76b0-94ad-e45a8cf516d5","0199d5ef-c7d4-7cab-a194-b2c3afbaf8e8","","1855","
        <div style=""display: flex; justify-content: center; align-items: center;"">
          <img src=""images/red_deck_2.png"" style=""width: 300px; height: 300px; margin-right: 10px;"" />
          <img src=""images/blue_deck_1.png"" style=""width: 300px; height: 300px;"" />
        </div>","0","2","1","choice","0",""
"","","","","","html-keyboard-response","79","1181073","0.0-65.0-0.0-0.0","4440CF210E074C508EBB070600425CFC","0199d605-184b-76b0-94ad-e45a8cf516d5","0199d5ef-c7d4-7cab-a194-b2c3afbaf8e8","","null","<div style=""display: flex; justify-content: center; align-items: center;"">
                     <img src=""images/causal/causal_series_2/causal_series_2_d.png"" style=""width: 300px; height: 300px;"" />
                   </div>","null","2","1","D","",""
"","","","","","html-keyboard-response","80","1187082","0.0-65.0-0.0-1.0","4440CF210E074C508EBB070600425CFC","0199d605-184b-76b0-94ad-e45a8cf516d5","0199d5ef-c7d4-7cab-a194-b2c3afbaf8e8","","null","<div style=""display: flex; justify-content: center; align-items: center;"">
                     <img src=""images/causal/causal_series_2/causal_series_2_e.png"" style=""width: 300px; height: 300px;"" />
                   </div>","null","2","1","E","",""
"","","","","","html-keyboard-response","81","1193085","0.0-65.0-0.0-2.0","4440CF210E074C508EBB070600425CFC","0199d605-184b-76b0-94ad-e45a8cf516d5","0199d5ef-c7d4-7cab-a194-b2c3afbaf8e8","","null","<div style=""display: flex; justify-content: center; align-items: center;"">
                     <img src=""images/causal/causal_series_2/causal_series_2_f.png"" style=""width: 300px; height: 300px;"" />
                   </div>","null","2","1","F","",""
"","","","","","survey-likert","82","1201745","0.0-66.0","4440CF210E074C508EBB070600425CFC","0199d605-184b-76b0-94ad-e45a8cf516d5","0199d5ef-c7d4-7cab-a194-b2c3afbaf8e8","","8659","","{""Q0"":0}","2","1","surprise_rating","","[0]"
"","","","","","survey-likert","83","1204299","0.0-67.0","4440CF210E074C508EBB070600425CFC","0199d605-184b-76b0-94ad-e45a8cf516d5","0199d5ef-c7d4-7cab-a194-b2c3afbaf8e8","","2553","","{""Q0"":1}","2","1","enjoyment_rating","","[0]"
"","","","","","html-keyboard-response","84","1210301","0.0-68.0","4440CF210E074C508EBB070600425CFC","0199d605-184b-76b0-94ad-e45a8cf516d5","0199d5ef-c7d4-7cab-a194-b2c3afbaf8e8","","null","<div style=""display: flex; justify-content: center; align-items: center;"">
                     <img src=""images/other/blank.png"" style=""width: 300px; height: 300px;"" />
                   </div>","null","0","0","blank","",""
"","","","","","html-keyboard-response","85","1216308","0.0-69.0","4440CF210E074C508EBB070600425CFC","0199d605-184b-76b0-94ad-e45a8cf516d5","0199d5ef-c7d4-7cab-a194-b2c3afbaf8e8","","null","<div style=""display: flex; justify-content: center; align-items: center;"">
                     <img src=""images/causal/causal_series_4/causal_series_4_a.png"" style=""width: 300px; height: 300px;"" />
                   </div>","null","4","2","A","",""
"","","","","","html-keyboard-response","86","1222325","0.0-70.0","4440CF210E074C508EBB070600425CFC","0199d605-184b-76b0-94ad-e45a8cf516d5","0199d5ef-c7d4-7cab-a194-b2c3afbaf8e8","","null","<div style=""display: flex; justify-content: center; align-items: center;"">
                     <img src=""images/causal/causal_series_4/causal_series_4_b.png"" style=""width: 300px; height: 300px;"" />
                   </div>","null","4","2","B","",""
"","","","","","html-keyboard-response","87","1228335","0.0-71.0","4440CF210E074C508EBB070600425CFC","0199d605-184b-76b0-94ad-e45a8cf516d5","0199d5ef-c7d4-7cab-a194-b2c3afbaf8e8","","null","<div style=""display: flex; justify-content: center; align-items: center;"">
                     <img src=""images/causal/causal_series_4/causal_series_4_c.png"" style=""width: 300px; height: 300px;"" />
                   </div>","null","4","2","C","",""
"","","","","","html-button-response","88","1229949","0.0-72.0","4440CF210E074C508EBB070600425CFC","0199d605-184b-76b0-94ad-e45a8cf516d5","0199d5ef-c7d4-7cab-a194-b2c3afbaf8e8","","1613","
        <div style=""display: flex; justify-content: center; align-items: center;"">
          <img src=""images/red_deck_2.png"" style=""width: 300px; height: 300px; margin-right: 10px;"" />
          <img src=""images/blue_deck_1.png"" style=""width: 300px; height: 300px;"" />
        </div>","1","4","2","choice","1",""
"","","","","","html-keyboard-response","89","1235961","0.0-73.0-1.0-0.0","4440CF210E074C508EBB070600425CFC","0199d605-184b-76b0-94ad-e45a8cf516d5","0199d5ef-c7d4-7cab-a194-b2c3afbaf8e8","","null","<div style=""display: flex; justify-content: center; align-items: center;"">
                     <img src=""images/semantic/semantic_series_4/semantic_series_4_d.png"" style=""width: 300px; height: 300px;"" />
                   </div>","null","4","2","D","",""
"","","","","","html-keyboard-response","90","1241965","0.0-73.0-1.0-1.0","4440CF210E074C508EBB070600425CFC","0199d605-184b-76b0-94ad-e45a8cf516d5","0199d5ef-c7d4-7cab-a194-b2c3afbaf8e8","","null","<div style=""display: flex; justify-content: center; align-items: center;"">
                     <img src=""images/semantic/semantic_series_4/semantic_series_4_e.png"" style=""width: 300px; height: 300px;"" />
                   </div>","null","4","2","E","",""
"","","","","","html-keyboard-response","91","1247980","0.0-73.0-1.0-2.0","4440CF210E074C508EBB070600425CFC","0199d605-184b-76b0-94ad-e45a8cf516d5","0199d5ef-c7d4-7cab-a194-b2c3afbaf8e8","","null","<div style=""display: flex; justify-content: center; align-items: center;"">
                     <img src=""images/semantic/semantic_series_4/semantic_series_4_f.png"" style=""width: 300px; height: 300px;"" />
                   </div>","null","4","2","F","",""
"","","","","","survey-likert","92","1249512","0.0-74.0","4440CF210E074C508EBB070600425CFC","0199d605-184b-76b0-94ad-e45a8cf516d5","0199d5ef-c7d4-7cab-a194-b2c3afbaf8e8","","1530","","{""Q0"":0}","4","2","surprise_rating","","[0]"
"","","","","","survey-likert","93","1251774","0.0-75.0","4440CF210E074C508EBB070600425CFC","0199d605-184b-76b0-94ad-e45a8cf516d5","0199d5ef-c7d4-7cab-a194-b2c3afbaf8e8","","2261","","{""Q0"":1}","4","2","enjoyment_rating","","[0]"
"","","","","","html-keyboard-response","94","1257786","0.0-76.0","4440CF210E074C508EBB070600425CFC","0199d605-184b-76b0-94ad-e45a8cf516d5","0199d5ef-c7d4-7cab-a194-b2c3afbaf8e8","","null","<div style=""display: flex; justify-content: center; align-items: center;"">
                     <img src=""images/other/blank.png"" style=""width: 300px; height: 300px;"" />
                   </div>","null","0","0","blank","",""
"","","","","","html-keyboard-response","95","1263788","0.0-77.0","4440CF210E074C508EBB070600425CFC","0199d605-184b-76b0-94ad-e45a8cf516d5","0199d5ef-c7d4-7cab-a194-b2c3afbaf8e8","","null","<div style=""display: flex; justify-content: center; align-items: center;"">
                     <img src=""images/causal/causal_series_3/causal_series_3_a.png"" style=""width: 300px; height: 300px;"" />
                   </div>","null","3","1","A","",""
"","","","","","html-keyboard-response","96","1269793","0.0-78.0","4440CF210E074C508EBB070600425CFC","0199d605-184b-76b0-94ad-e45a8cf516d5","0199d5ef-c7d4-7cab-a194-b2c3afbaf8e8","","null","<div style=""display: flex; justify-content: center; align-items: center;"">
                     <img src=""images/causal/causal_series_3/causal_series_3_b.png"" style=""width: 300px; height: 300px;"" />
                   </div>","null","3","1","B","",""
"","","","","","html-keyboard-response","97","1275805","0.0-79.0","4440CF210E074C508EBB070600425CFC","0199d605-184b-76b0-94ad-e45a8cf516d5","0199d5ef-c7d4-7cab-a194-b2c3afbaf8e8","","null","<div style=""display: flex; justify-content: center; align-items: center;"">
                     <img src=""images/causal/causal_series_3/causal_series_3_c.png"" style=""width: 300px; height: 300px;"" />
                   </div>","null","3","1","C","",""
"","","","","","html-button-response","98","1281235","0.0-80.0","4440CF210E074C508EBB070600425CFC","0199d605-184b-76b0-94ad-e45a8cf516d5","0199d5ef-c7d4-7cab-a194-b2c3afbaf8e8","","5430","
        <div style=""display: flex; justify-content: center; align-items: center;"">
          <img src=""images/red_deck_2.png"" style=""width: 300px; height: 300px; margin-right: 10px;"" />
          <img src=""images/blue_deck_1.png"" style=""width: 300px; height: 300px;"" />
        </div>","1","3","1","choice","1",""
"","","","","","html-keyboard-response","99","1287245","0.0-81.0-1.0-0.0","4440CF210E074C508EBB070600425CFC","0199d605-184b-76b0-94ad-e45a8cf516d5","0199d5ef-c7d4-7cab-a194-b2c3afbaf8e8","","null","<div style=""display: flex; justify-content: center; align-items: center;"">
                     <img src=""images/semantic/semantic_series_3/semantic_series_3_d.png"" style=""width: 300px; height: 300px;"" />
                   </div>","null","3","1","D","",""
"","","","","","html-keyboard-response","100","1293254","0.0-81.0-1.0-1.0","4440CF210E074C508EBB070600425CFC","0199d605-184b-76b0-94ad-e45a8cf516d5","0199d5ef-c7d4-7cab-a194-b2c3afbaf8e8","","null","<div style=""display: flex; justify-content: center; align-items: center;"">
                     <img src=""images/semantic/semantic_series_3/semantic_series_3_e.png"" style=""width: 300px; height: 300px;"" />
                   </div>","null","3","1","E","",""
"","","","","","html-keyboard-response","101","1299255","0.0-81.0-1.0-2.0","4440CF210E074C508EBB070600425CFC","0199d605-184b-76b0-94ad-e45a8cf516d5","0199d5ef-c7d4-7cab-a194-b2c3afbaf8e8","","null","<div style=""display: flex; justify-content: center; align-items: center;"">
                     <img src=""images/semantic/semantic_series_3/semantic_series_3_f.png"" style=""width: 300px; height: 300px;"" />
                   </div>","null","3","1","F","",""
"","","","","","survey-likert","102","1302152","0.0-82.0","4440CF210E074C508EBB070600425CFC","0199d605-184b-76b0-94ad-e45a8cf516d5","0199d5ef-c7d4-7cab-a194-b2c3afbaf8e8","","2896","","{""Q0"":2}","3","1","surprise_rating","","[0]"
"","","","","","survey-likert","103","1303477","0.0-83.0","4440CF210E074C508EBB070600425CFC","0199d605-184b-76b0-94ad-e45a8cf516d5","0199d5ef-c7d4-7cab-a194-b2c3afbaf8e8","","1325","","{""Q0"":2}","3","1","enjoyment_rating","","[0]"
"","","","","","html-keyboard-response","104","1309494","0.0-84.0","4440CF210E074C508EBB070600425CFC","0199d605-184b-76b0-94ad-e45a8cf516d5","0199d5ef-c7d4-7cab-a194-b2c3afbaf8e8","","null","<div style=""display: flex; justify-content: center; align-items: center;"">
                     <img src=""images/other/blank.png"" style=""width: 300px; height: 300px;"" />
                   </div>","null","0","0","blank","",""
"","","","","","html-keyboard-response","105","1315498","0.0-85.0","4440CF210E074C508EBB070600425CFC","0199d605-184b-76b0-94ad-e45a8cf516d5","0199d5ef-c7d4-7cab-a194-b2c3afbaf8e8","","null","<div style=""display: flex; justify-content: center; align-items: center;"">
                     <img src=""images/causal/causal_series_8/causal_series_8_a.png"" style=""width: 300px; height: 300px;"" />
                   </div>","null","8","2","A","",""
"","","","","","html-keyboard-response","106","1321510","0.0-86.0","4440CF210E074C508EBB070600425CFC","0199d605-184b-76b0-94ad-e45a8cf516d5","0199d5ef-c7d4-7cab-a194-b2c3afbaf8e8","","null","<div style=""display: flex; justify-content: center; align-items: center;"">
                     <img src=""images/causal/causal_series_8/causal_series_8_b.png"" style=""width: 300px; height: 300px;"" />
                   </div>","null","8","2","B","",""
"","","","","","html-keyboard-response","107","1327515","0.0-87.0","4440CF210E074C508EBB070600425CFC","0199d605-184b-76b0-94ad-e45a8cf516d5","0199d5ef-c7d4-7cab-a194-b2c3afbaf8e8","","null","<div style=""display: flex; justify-content: center; align-items: center;"">
                     <img src=""images/causal/causal_series_8/causal_series_8_c.png"" style=""width: 300px; height: 300px;"" />
                   </div>","null","8","2","C","",""
"","","","","","html-button-response","108","1329859","0.0-88.0","4440CF210E074C508EBB070600425CFC","0199d605-184b-76b0-94ad-e45a8cf516d5","0199d5ef-c7d4-7cab-a194-b2c3afbaf8e8","","2343","
        <div style=""display: flex; justify-content: center; align-items: center;"">
          <img src=""images/red_deck_2.png"" style=""width: 300px; height: 300px; margin-right: 10px;"" />
          <img src=""images/blue_deck_1.png"" style=""width: 300px; height: 300px;"" />
        </div>","0","8","2","choice","0",""
"","","","","","html-keyboard-response","109","1335869","0.0-89.0-0.0-0.0","4440CF210E074C508EBB070600425CFC","0199d605-184b-76b0-94ad-e45a8cf516d5","0199d5ef-c7d4-7cab-a194-b2c3afbaf8e8","","null","<div style=""display: flex; justify-content: center; align-items: center;"">
                     <img src=""images/causal/causal_series_8/causal_series_8_d.png"" style=""width: 300px; height: 300px;"" />
                   </div>","null","8","2","D","",""
"","","","","","html-keyboard-response","110","1341877","0.0-89.0-0.0-1.0","4440CF210E074C508EBB070600425CFC","0199d605-184b-76b0-94ad-e45a8cf516d5","0199d5ef-c7d4-7cab-a194-b2c3afbaf8e8","","null","<div style=""display: flex; justify-content: center; align-items: center;"">
                     <img src=""images/causal/causal_series_8/causal_series_8_e.png"" style=""width: 300px; height: 300px;"" />
                   </div>","null","8","2","E","",""
"","","","","","html-keyboard-response","111","1347881","0.0-89.0-0.0-2.0","4440CF210E074C508EBB070600425CFC","0199d605-184b-76b0-94ad-e45a8cf516d5","0199d5ef-c7d4-7cab-a194-b2c3afbaf8e8","","null","<div style=""display: flex; justify-content: center; align-items: center;"">
                     <img src=""images/causal/causal_series_8/causal_series_8_f.png"" style=""width: 300px; height: 300px;"" />
                   </div>","null","8","2","F","",""
"","","","","","survey-likert","112","1350558","0.0-90.0","4440CF210E074C508EBB070600425CFC","0199d605-184b-76b0-94ad-e45a8cf516d5","0199d5ef-c7d4-7cab-a194-b2c3afbaf8e8","","2676","","{""Q0"":2}","8","2","surprise_rating","","[0]"
"","","","","","survey-likert","113","1352301","0.0-91.0","4440CF210E074C508EBB070600425CFC","0199d605-184b-76b0-94ad-e45a8cf516d5","0199d5ef-c7d4-7cab-a194-b2c3afbaf8e8","","1742","","{""Q0"":2}","8","2","enjoyment_rating","","[0]"
"","","","","","html-keyboard-response","114","1358310","0.0-92.0","4440CF210E074C508EBB070600425CFC","0199d605-184b-76b0-94ad-e45a8cf516d5","0199d5ef-c7d4-7cab-a194-b2c3afbaf8e8","","null","<div style=""display: flex; justify-content: center; align-items: center;"">
                     <img src=""images/other/blank.png"" style=""width: 300px; height: 300px;"" />
                   </div>","null","0","0","blank","",""
"","","","","","html-keyboard-response","115","1364313","0.0-93.0","4440CF210E074C508EBB070600425CFC","0199d605-184b-76b0-94ad-e45a8cf516d5","0199d5ef-c7d4-7cab-a194-b2c3afbaf8e8","","null","<div style=""display: flex; justify-content: center; align-items: center;"">
                     <img src=""images/causal/causal_series_9/causal_series_9_a.png"" style=""width: 300px; height: 300px;"" />
                   </div>","null","9","1","A","",""
"","","","","","html-keyboard-response","116","1370322","0.0-94.0","4440CF210E074C508EBB070600425CFC","0199d605-184b-76b0-94ad-e45a8cf516d5","0199d5ef-c7d4-7cab-a194-b2c3afbaf8e8","","null","<div style=""display: flex; justify-content: center; align-items: center;"">
                     <img src=""images/causal/causal_series_9/causal_series_9_b.png"" style=""width: 300px; height: 300px;"" />
                   </div>","null","9","1","B","",""
"","","","","","html-keyboard-response","117","1376336","0.0-95.0","4440CF210E074C508EBB070600425CFC","0199d605-184b-76b0-94ad-e45a8cf516d5","0199d5ef-c7d4-7cab-a194-b2c3afbaf8e8","","null","<div style=""display: flex; justify-content: center; align-items: center;"">
                     <img src=""images/causal/causal_series_9/causal_series_9_c.png"" style=""width: 300px; height: 300px;"" />
                   </div>","null","9","1","C","",""
"","","","","","html-button-response","118","1380505","0.0-96.0","4440CF210E074C508EBB070600425CFC","0199d605-184b-76b0-94ad-e45a8cf516d5","0199d5ef-c7d4-7cab-a194-b2c3afbaf8e8","","4168","
        <div style=""display: flex; justify-content: center; align-items: center;"">
          <img src=""images/red_deck_2.png"" style=""width: 300px; height: 300px; margin-right: 10px;"" />
          <img src=""images/blue_deck_1.png"" style=""width: 300px; height: 300px;"" />
        </div>","1","9","1","choice","1",""
"","","","","","html-keyboard-response","119","1386513","0.0-97.0-1.0-0.0","4440CF210E074C508EBB070600425CFC","0199d605-184b-76b0-94ad-e45a8cf516d5","0199d5ef-c7d4-7cab-a194-b2c3afbaf8e8","","null","<div style=""display: flex; justify-content: center; align-items: center;"">
                     <img src=""images/semantic/semantic_series_9/semantic_series_9_d.png"" style=""width: 300px; height: 300px;"" />
                   </div>","null","9","1","D","",""
"","","","","","html-keyboard-response","120","1392524","0.0-97.0-1.0-1.0","4440CF210E074C508EBB070600425CFC","0199d605-184b-76b0-94ad-e45a8cf516d5","0199d5ef-c7d4-7cab-a194-b2c3afbaf8e8","","null","<div style=""display: flex; justify-content: center; align-items: center;"">
                     <img src=""images/semantic/semantic_series_9/semantic_series_9_e.png"" style=""width: 300px; height: 300px;"" />
                   </div>","null","9","1","E","",""
"","","","","","html-keyboard-response","121","1398537","0.0-97.0-1.0-2.0","4440CF210E074C508EBB070600425CFC","0199d605-184b-76b0-94ad-e45a8cf516d5","0199d5ef-c7d4-7cab-a194-b2c3afbaf8e8","","null","<div style=""display: flex; justify-content: center; align-items: center;"">
                     <img src=""images/semantic/semantic_series_9/semantic_series_9_f.png"" style=""width: 300px; height: 300px;"" />
                   </div>","null","9","1","F","",""
"","","","","","survey-likert","122","1400565","0.0-98.0","4440CF210E074C508EBB070600425CFC","0199d605-184b-76b0-94ad-e45a8cf516d5","0199d5ef-c7d4-7cab-a194-b2c3afbaf8e8","","2026","","{""Q0"":2}","9","1","surprise_rating","","[0]"
"","","","","","survey-likert","123","1402344","0.0-99.0","4440CF210E074C508EBB070600425CFC","0199d605-184b-76b0-94ad-e45a8cf516d5","0199d5ef-c7d4-7cab-a194-b2c3afbaf8e8","","1778","","{""Q0"":2}","9","1","enjoyment_rating","","[0]"
"","","","","","html-keyboard-response","124","1408354","0.0-100.0","4440CF210E074C508EBB070600425CFC","0199d605-184b-76b0-94ad-e45a8cf516d5","0199d5ef-c7d4-7cab-a194-b2c3afbaf8e8","","null","<div style=""display: flex; justify-content: center; align-items: center;"">
                     <img src=""images/other/blank.png"" style=""width: 300px; height: 300px;"" />
                   </div>","null","0","0","blank","",""
"","","","","","html-keyboard-response","125","1414357","0.0-101.0","4440CF210E074C508EBB070600425CFC","0199d605-184b-76b0-94ad-e45a8cf516d5","0199d5ef-c7d4-7cab-a194-b2c3afbaf8e8","","null","<div style=""display: flex; justify-content: center; align-items: center;"">
                     <img src=""images/causal/causal_series_8/causal_series_8_a.png"" style=""width: 300px; height: 300px;"" />
                   </div>","null","8","1","A","",""
"","","","","","html-keyboard-response","126","1420359","0.0-102.0","4440CF210E074C508EBB070600425CFC","0199d605-184b-76b0-94ad-e45a8cf516d5","0199d5ef-c7d4-7cab-a194-b2c3afbaf8e8","","null","<div style=""display: flex; justify-content: center; align-items: center;"">
                     <img src=""images/causal/causal_series_8/causal_series_8_b.png"" style=""width: 300px; height: 300px;"" />
                   </div>","null","8","1","B","",""
"","","","","","html-keyboard-response","127","1426369","0.0-103.0","4440CF210E074C508EBB070600425CFC","0199d605-184b-76b0-94ad-e45a8cf516d5","0199d5ef-c7d4-7cab-a194-b2c3afbaf8e8","","null","<div style=""display: flex; justify-content: center; align-items: center;"">
                     <img src=""images/causal/causal_series_8/causal_series_8_c.png"" style=""width: 300px; height: 300px;"" />
                   </div>","null","8","1","C","",""
"","","","","","html-button-response","128","1462372","0.0-104.0","4440CF210E074C508EBB070600425CFC","0199d605-184b-76b0-94ad-e45a8cf516d5","0199d5ef-c7d4-7cab-a194-b2c3afbaf8e8","","36002","
        <div style=""display: flex; justify-content: center; align-items: center;"">
          <img src=""images/red_deck_2.png"" style=""width: 300px; height: 300px; margin-right: 10px;"" />
          <img src=""images/blue_deck_1.png"" style=""width: 300px; height: 300px;"" />
        </div>","1","8","1","choice","1",""
"","","","","","html-keyboard-response","129","1468380","0.0-105.0-1.0-0.0","4440CF210E074C508EBB070600425CFC","0199d605-184b-76b0-94ad-e45a8cf516d5","0199d5ef-c7d4-7cab-a194-b2c3afbaf8e8","","null","<div style=""display: flex; justify-content: center; align-items: center;"">
                     <img src=""images/semantic/semantic_series_8/semantic_series_8_d.png"" style=""width: 300px; height: 300px;"" />
                   </div>","null","8","1","D","",""
"","","","","","html-keyboard-response","130","1474383","0.0-105.0-1.0-1.0","4440CF210E074C508EBB070600425CFC","0199d605-184b-76b0-94ad-e45a8cf516d5","0199d5ef-c7d4-7cab-a194-b2c3afbaf8e8","","null","<div style=""display: flex; justify-content: center; align-items: center;"">
                     <img src=""images/semantic/semantic_series_8/semantic_series_8_e.png"" style=""width: 300px; height: 300px;"" />
                   </div>","null","8","1","E","",""
"","","","","","html-keyboard-response","131","1480390","0.0-105.0-1.0-2.0","4440CF210E074C508EBB070600425CFC","0199d605-184b-76b0-94ad-e45a8cf516d5","0199d5ef-c7d4-7cab-a194-b2c3afbaf8e8","","null","<div style=""display: flex; justify-content: center; align-items: center;"">
                     <img src=""images/semantic/semantic_series_8/semantic_series_8_f.png"" style=""width: 300px; height: 300px;"" />
                   </div>","null","8","1","F","",""
"","","","","","survey-likert","132","1483611","0.0-106.0","4440CF210E074C508EBB070600425CFC","0199d605-184b-76b0-94ad-e45a8cf516d5","0199d5ef-c7d4-7cab-a194-b2c3afbaf8e8","","3220","","{""Q0"":1}","8","1","surprise_rating","","[0]"
"","","","","","survey-likert","133","1485342","0.0-107.0","4440CF210E074C508EBB070600425CFC","0199d605-184b-76b0-94ad-e45a8cf516d5","0199d5ef-c7d4-7cab-a194-b2c3afbaf8e8","","1730","","{""Q0"":2}","8","1","enjoyment_rating","","[0]"
"","","","","","html-keyboard-response","134","1491344","0.0-108.0","4440CF210E074C508EBB070600425CFC","0199d605-184b-76b0-94ad-e45a8cf516d5","0199d5ef-c7d4-7cab-a194-b2c3afbaf8e8","","null","<div style=""display: flex; justify-content: center; align-items: center;"">
                     <img src=""images/other/blank.png"" style=""width: 300px; height: 300px;"" />
                   </div>","null","0","0","blank","",""
"","","","","","html-keyboard-response","135","1497359","0.0-109.0","4440CF210E074C508EBB070600425CFC","0199d605-184b-76b0-94ad-e45a8cf516d5","0199d5ef-c7d4-7cab-a194-b2c3afbaf8e8","","null","<div style=""display: flex; justify-content: center; align-items: center;"">
                     <img src=""images/causal/causal_series_7/causal_series_7_a.png"" style=""width: 300px; height: 300px;"" />
                   </div>","null","7","1","A","",""
"","","","","","html-keyboard-response","136","1503367","0.0-110.0","4440CF210E074C508EBB070600425CFC","0199d605-184b-76b0-94ad-e45a8cf516d5","0199d5ef-c7d4-7cab-a194-b2c3afbaf8e8","","null","<div style=""display: flex; justify-content: center; align-items: center;"">
                     <img src=""images/causal/causal_series_7/causal_series_7_b.png"" style=""width: 300px; height: 300px;"" />
                   </div>","null","7","1","B","",""
"","","","","","html-keyboard-response","137","1509369","0.0-111.0","4440CF210E074C508EBB070600425CFC","0199d605-184b-76b0-94ad-e45a8cf516d5","0199d5ef-c7d4-7cab-a194-b2c3afbaf8e8","","null","<div style=""display: flex; justify-content: center; align-items: center;"">
                     <img src=""images/causal/causal_series_7/causal_series_7_c.png"" style=""width: 300px; height: 300px;"" />
                   </div>","null","7","1","C","",""
"","","","","","html-button-response","138","1511049","0.0-112.0","4440CF210E074C508EBB070600425CFC","0199d605-184b-76b0-94ad-e45a8cf516d5","0199d5ef-c7d4-7cab-a194-b2c3afbaf8e8","","1678","
        <div style=""display: flex; justify-content: center; align-items: center;"">
          <img src=""images/red_deck_2.png"" style=""width: 300px; height: 300px; margin-right: 10px;"" />
          <img src=""images/blue_deck_1.png"" style=""width: 300px; height: 300px;"" />
        </div>","0","7","1","choice","0",""
"","","","","","html-keyboard-response","139","1517052","0.0-113.0-0.0-0.0","4440CF210E074C508EBB070600425CFC","0199d605-184b-76b0-94ad-e45a8cf516d5","0199d5ef-c7d4-7cab-a194-b2c3afbaf8e8","","null","<div style=""display: flex; justify-content: center; align-items: center;"">
                     <img src=""images/causal/causal_series_7/causal_series_7_d.png"" style=""width: 300px; height: 300px;"" />
                   </div>","null","7","1","D","",""
"","","","","","html-keyboard-response","140","1523068","0.0-113.0-0.0-1.0","4440CF210E074C508EBB070600425CFC","0199d605-184b-76b0-94ad-e45a8cf516d5","0199d5ef-c7d4-7cab-a194-b2c3afbaf8e8","","null","<div style=""display: flex; justify-content: center; align-items: center;"">
                     <img src=""images/causal/causal_series_7/causal_series_7_e.png"" style=""width: 300px; height: 300px;"" />
                   </div>","null","7","1","E","",""
"","","","","","html-keyboard-response","141","1529072","0.0-113.0-0.0-2.0","4440CF210E074C508EBB070600425CFC","0199d605-184b-76b0-94ad-e45a8cf516d5","0199d5ef-c7d4-7cab-a194-b2c3afbaf8e8","","null","<div style=""display: flex; justify-content: center; align-items: center;"">
                     <img src=""images/causal/causal_series_7/causal_series_7_f.png"" style=""width: 300px; height: 300px;"" />
                   </div>","null","7","1","F","",""
"","","","","","survey-likert","142","1537669","0.0-114.0","4440CF210E074C508EBB070600425CFC","0199d605-184b-76b0-94ad-e45a8cf516d5","0199d5ef-c7d4-7cab-a194-b2c3afbaf8e8","","8597","","{""Q0"":1}","7","1","surprise_rating","","[0]"
"","","","","","survey-likert","143","1551695","0.0-115.0","4440CF210E074C508EBB070600425CFC","0199d605-184b-76b0-94ad-e45a8cf516d5","0199d5ef-c7d4-7cab-a194-b2c3afbaf8e8","","14026","","{""Q0"":2}","7","1","enjoyment_rating","","[0]"
"","","","","","html-keyboard-response","144","1557709","0.0-116.0","4440CF210E074C508EBB070600425CFC","0199d605-184b-76b0-94ad-e45a8cf516d5","0199d5ef-c7d4-7cab-a194-b2c3afbaf8e8","","null","<div style=""display: flex; justify-content: center; align-items: center;"">
                     <img src=""images/other/blank.png"" style=""width: 300px; height: 300px;"" />
                   </div>","null","0","0","blank","",""
"","","","","","html-keyboard-response","145","1563719","0.0-117.0","4440CF210E074C508EBB070600425CFC","0199d605-184b-76b0-94ad-e45a8cf516d5","0199d5ef-c7d4-7cab-a194-b2c3afbaf8e8","","null","<div style=""display: flex; justify-content: center; align-items: center;"">
                     <img src=""images/causal/causal_series_7/causal_series_7_a.png"" style=""width: 300px; height: 300px;"" />
                   </div>","null","7","2","A","",""
"","","","","","html-keyboard-response","146","1569728","0.0-118.0","4440CF210E074C508EBB070600425CFC","0199d605-184b-76b0-94ad-e45a8cf516d5","0199d5ef-c7d4-7cab-a194-b2c3afbaf8e8","","null","<div style=""display: flex; justify-content: center; align-items: center;"">
                     <img src=""images/causal/causal_series_7/causal_series_7_b.png"" style=""width: 300px; height: 300px;"" />
                   </div>","null","7","2","B","",""
"","","","","","html-keyboard-response","147","1575731","0.0-119.0","4440CF210E074C508EBB070600425CFC","0199d605-184b-76b0-94ad-e45a8cf516d5","0199d5ef-c7d4-7cab-a194-b2c3afbaf8e8","","null","<div style=""display: flex; justify-content: center; align-items: center;"">
                     <img src=""images/causal/causal_series_7/causal_series_7_c.png"" style=""width: 300px; height: 300px;"" />
                   </div>","null","7","2","C","",""
"","","","","","html-button-response","148","1581350","0.0-120.0","4440CF210E074C508EBB070600425CFC","0199d605-184b-76b0-94ad-e45a8cf516d5","0199d5ef-c7d4-7cab-a194-b2c3afbaf8e8","","5619","
        <div style=""display: flex; justify-content: center; align-items: center;"">
          <img src=""images/red_deck_2.png"" style=""width: 300px; height: 300px; margin-right: 10px;"" />
          <img src=""images/blue_deck_1.png"" style=""width: 300px; height: 300px;"" />
        </div>","1","7","2","choice","1",""
"","","","","","html-keyboard-response","149","1587363","0.0-121.0-1.0-0.0","4440CF210E074C508EBB070600425CFC","0199d605-184b-76b0-94ad-e45a8cf516d5","0199d5ef-c7d4-7cab-a194-b2c3afbaf8e8","","null","<div style=""display: flex; justify-content: center; align-items: center;"">
                     <img src=""images/semantic/semantic_series_7/semantic_series_7_d.png"" style=""width: 300px; height: 300px;"" />
                   </div>","null","7","2","D","",""
"","","","","","html-keyboard-response","150","1593365","0.0-121.0-1.0-1.0","4440CF210E074C508EBB070600425CFC","0199d605-184b-76b0-94ad-e45a8cf516d5","0199d5ef-c7d4-7cab-a194-b2c3afbaf8e8","","null","<div style=""display: flex; justify-content: center; align-items: center;"">
                     <img src=""images/semantic/semantic_series_7/semantic_series_7_e.png"" style=""width: 300px; height: 300px;"" />
                   </div>","null","7","2","E","",""
"","","","","","html-keyboard-response","151","1599379","0.0-121.0-1.0-2.0","4440CF210E074C508EBB070600425CFC","0199d605-184b-76b0-94ad-e45a8cf516d5","0199d5ef-c7d4-7cab-a194-b2c3afbaf8e8","","null","<div style=""display: flex; justify-content: center; align-items: center;"">
                     <img src=""images/semantic/semantic_series_7/semantic_series_7_f.png"" style=""width: 300px; height: 300px;"" />
                   </div>","null","7","2","F","",""
"","","","","","survey-likert","152","1609060","0.0-122.0","4440CF210E074C508EBB070600425CFC","0199d605-184b-76b0-94ad-e45a8cf516d5","0199d5ef-c7d4-7cab-a194-b2c3afbaf8e8","","9679","","{""Q0"":2}","7","2","surprise_rating","","[0]"
"","","","","","survey-likert","153","1610501","0.0-123.0","4440CF210E074C508EBB070600425CFC","0199d605-184b-76b0-94ad-e45a8cf516d5","0199d5ef-c7d4-7cab-a194-b2c3afbaf8e8","","1440","","{""Q0"":2}","7","2","enjoyment_rating","","[0]"
"","","","","","html-keyboard-response","154","1616516","0.0-124.0","4440CF210E074C508EBB070600425CFC","0199d605-184b-76b0-94ad-e45a8cf516d5","0199d5ef-c7d4-7cab-a194-b2c3afbaf8e8","","null","<div style=""display: flex; justify-content: center; align-items: center;"">
                     <img src=""images/other/blank.png"" style=""width: 300px; height: 300px;"" />
                   </div>","null","0","0","blank","",""
"","","","","","html-keyboard-response","155","1622532","0.0-125.0","4440CF210E074C508EBB070600425CFC","0199d605-184b-76b0-94ad-e45a8cf516d5","0199d5ef-c7d4-7cab-a194-b2c3afbaf8e8","","null","<div style=""display: flex; justify-content: center; align-items: center;"">
                     <img src=""images/causal/causal_series_4/causal_series_4_a.png"" style=""width: 300px; height: 300px;"" />
                   </div>","null","4","1","A","",""
"","","","","","html-keyboard-response","156","1628534","0.0-126.0","4440CF210E074C508EBB070600425CFC","0199d605-184b-76b0-94ad-e45a8cf516d5","0199d5ef-c7d4-7cab-a194-b2c3afbaf8e8","","null","<div style=""display: flex; justify-content: center; align-items: center;"">
                     <img src=""images/causal/causal_series_4/causal_series_4_b.png"" style=""width: 300px; height: 300px;"" />
                   </div>","null","4","1","B","",""
"","","","","","html-keyboard-response","157","1634549","0.0-127.0","4440CF210E074C508EBB070600425CFC","0199d605-184b-76b0-94ad-e45a8cf516d5","0199d5ef-c7d4-7cab-a194-b2c3afbaf8e8","","null","<div style=""display: flex; justify-content: center; align-items: center;"">
                     <img src=""images/causal/causal_series_4/causal_series_4_c.png"" style=""width: 300px; height: 300px;"" />
                   </div>","null","4","1","C","",""
"","","","","","html-button-response","158","1636060","0.0-128.0","4440CF210E074C508EBB070600425CFC","0199d605-184b-76b0-94ad-e45a8cf516d5","0199d5ef-c7d4-7cab-a194-b2c3afbaf8e8","","1510","
        <div style=""display: flex; justify-content: center; align-items: center;"">
          <img src=""images/red_deck_2.png"" style=""width: 300px; height: 300px; margin-right: 10px;"" />
          <img src=""images/blue_deck_1.png"" style=""width: 300px; height: 300px;"" />
        </div>","1","4","1","choice","1",""
"","","","","","html-keyboard-response","159","1642074","0.0-129.0-1.0-0.0","4440CF210E074C508EBB070600425CFC","0199d605-184b-76b0-94ad-e45a8cf516d5","0199d5ef-c7d4-7cab-a194-b2c3afbaf8e8","","null","<div style=""display: flex; justify-content: center; align-items: center;"">
                     <img src=""images/semantic/semantic_series_4/semantic_series_4_d.png"" style=""width: 300px; height: 300px;"" />
                   </div>","null","4","1","D","",""
"","","","","","html-keyboard-response","160","1648089","0.0-129.0-1.0-1.0","4440CF210E074C508EBB070600425CFC","0199d605-184b-76b0-94ad-e45a8cf516d5","0199d5ef-c7d4-7cab-a194-b2c3afbaf8e8","","null","<div style=""display: flex; justify-content: center; align-items: center;"">
                     <img src=""images/semantic/semantic_series_4/semantic_series_4_e.png"" style=""width: 300px; height: 300px;"" />
                   </div>","null","4","1","E","",""
"","","","","","html-keyboard-response","161","1654105","0.0-129.0-1.0-2.0","4440CF210E074C508EBB070600425CFC","0199d605-184b-76b0-94ad-e45a8cf516d5","0199d5ef-c7d4-7cab-a194-b2c3afbaf8e8","","null","<div style=""display: flex; justify-content: center; align-items: center;"">
                     <img src=""images/semantic/semantic_series_4/semantic_series_4_f.png"" style=""width: 300px; height: 300px;"" />
                   </div>","null","4","1","F","",""
"","","","","","survey-likert","162","1665209","0.0-130.0","4440CF210E074C508EBB070600425CFC","0199d605-184b-76b0-94ad-e45a8cf516d5","0199d5ef-c7d4-7cab-a194-b2c3afbaf8e8","","11103","","{""Q0"":0}","4","1","surprise_rating","","[0]"
"","","","","","survey-likert","163","1667695","0.0-131.0","4440CF210E074C508EBB070600425CFC","0199d605-184b-76b0-94ad-e45a8cf516d5","0199d5ef-c7d4-7cab-a194-b2c3afbaf8e8","","2484","","{""Q0"":1}","4","1","enjoyment_rating","","[0]"
"","","","","","html-keyboard-response","164","1673704","0.0-132.0","4440CF210E074C508EBB070600425CFC","0199d605-184b-76b0-94ad-e45a8cf516d5","0199d5ef-c7d4-7cab-a194-b2c3afbaf8e8","","null","<div style=""display: flex; justify-content: center; align-items: center;"">
                     <img src=""images/other/blank.png"" style=""width: 300px; height: 300px;"" />
                   </div>","null","0","0","blank","",""
"","","","","","html-keyboard-response","165","1679710","0.0-133.0","4440CF210E074C508EBB070600425CFC","0199d605-184b-76b0-94ad-e45a8cf516d5","0199d5ef-c7d4-7cab-a194-b2c3afbaf8e8","","null","<div style=""display: flex; justify-content: center; align-items: center;"">
                     <img src=""images/causal/causal_series_9/causal_series_9_a.png"" style=""width: 300px; height: 300px;"" />
                   </div>","null","9","2","A","",""
"","","","","","html-keyboard-response","166","1685715","0.0-134.0","4440CF210E074C508EBB070600425CFC","0199d605-184b-76b0-94ad-e45a8cf516d5","0199d5ef-c7d4-7cab-a194-b2c3afbaf8e8","","null","<div style=""display: flex; justify-content: center; align-items: center;"">
                     <img src=""images/causal/causal_series_9/causal_series_9_b.png"" style=""width: 300px; height: 300px;"" />
                   </div>","null","9","2","B","",""
"","","","","","html-keyboard-response","167","1691720","0.0-135.0","4440CF210E074C508EBB070600425CFC","0199d605-184b-76b0-94ad-e45a8cf516d5","0199d5ef-c7d4-7cab-a194-b2c3afbaf8e8","","null","<div style=""display: flex; justify-content: center; align-items: center;"">
                     <img src=""images/causal/causal_series_9/causal_series_9_c.png"" style=""width: 300px; height: 300px;"" />
                   </div>","null","9","2","C","",""
"","","","","","html-button-response","168","1693232","0.0-136.0","4440CF210E074C508EBB070600425CFC","0199d605-184b-76b0-94ad-e45a8cf516d5","0199d5ef-c7d4-7cab-a194-b2c3afbaf8e8","","1510","
        <div style=""display: flex; justify-content: center; align-items: center;"">
          <img src=""images/red_deck_2.png"" style=""width: 300px; height: 300px; margin-right: 10px;"" />
          <img src=""images/blue_deck_1.png"" style=""width: 300px; height: 300px;"" />
        </div>","1","9","2","choice","1",""
"","","","","","html-keyboard-response","169","1699236","0.0-137.0-1.0-0.0","4440CF210E074C508EBB070600425CFC","0199d605-184b-76b0-94ad-e45a8cf516d5","0199d5ef-c7d4-7cab-a194-b2c3afbaf8e8","","null","<div style=""display: flex; justify-content: center; align-items: center;"">
                     <img src=""images/semantic/semantic_series_9/semantic_series_9_d.png"" style=""width: 300px; height: 300px;"" />
                   </div>","null","9","2","D","",""
"","","","","","html-keyboard-response","170","1705237","0.0-137.0-1.0-1.0","4440CF210E074C508EBB070600425CFC","0199d605-184b-76b0-94ad-e45a8cf516d5","0199d5ef-c7d4-7cab-a194-b2c3afbaf8e8","","null","<div style=""display: flex; justify-content: center; align-items: center;"">
                     <img src=""images/semantic/semantic_series_9/semantic_series_9_e.png"" style=""width: 300px; height: 300px;"" />
                   </div>","null","9","2","E","",""
"","","","","","html-keyboard-response","171","1711242","0.0-137.0-1.0-2.0","4440CF210E074C508EBB070600425CFC","0199d605-184b-76b0-94ad-e45a8cf516d5","0199d5ef-c7d4-7cab-a194-b2c3afbaf8e8","","null","<div style=""display: flex; justify-content: center; align-items: center;"">
                     <img src=""images/semantic/semantic_series_9/semantic_series_9_f.png"" style=""width: 300px; height: 300px;"" />
                   </div>","null","9","2","F","",""
"","","","","","survey-likert","172","1713007","0.0-138.0","4440CF210E074C508EBB070600425CFC","0199d605-184b-76b0-94ad-e45a8cf516d5","0199d5ef-c7d4-7cab-a194-b2c3afbaf8e8","","1765","","{""Q0"":0}","9","2","surprise_rating","","[0]"
"","","","","","survey-likert","173","1718025","0.0-139.0","4440CF210E074C508EBB070600425CFC","0199d605-184b-76b0-94ad-e45a8cf516d5","0199d5ef-c7d4-7cab-a194-b2c3afbaf8e8","","5017","","{""Q0"":0}","9","2","enjoyment_rating","","[0]"
"","","","","","html-keyboard-response","174","1724041","0.0-140.0","4440CF210E074C508EBB070600425CFC","0199d605-184b-76b0-94ad-e45a8cf516d5","0199d5ef-c7d4-7cab-a194-b2c3afbaf8e8","","null","<div style=""display: flex; justify-content: center; align-items: center;"">
                     <img src=""images/other/blank.png"" style=""width: 300px; height: 300px;"" />
                   </div>","null","0","0","blank","",""
"","","","","","html-keyboard-response","175","1730057","0.0-141.0","4440CF210E074C508EBB070600425CFC","0199d605-184b-76b0-94ad-e45a8cf516d5","0199d5ef-c7d4-7cab-a194-b2c3afbaf8e8","","null","<div style=""display: flex; justify-content: center; align-items: center;"">
                     <img src=""images/causal/causal_series_1/causal_series_1_a.png"" style=""width: 300px; height: 300px;"" />
                   </div>","null","1","1","A","",""
"","","","","","html-keyboard-response","176","1736069","0.0-142.0","4440CF210E074C508EBB070600425CFC","0199d605-184b-76b0-94ad-e45a8cf516d5","0199d5ef-c7d4-7cab-a194-b2c3afbaf8e8","","null","<div style=""display: flex; justify-content: center; align-items: center;"">
                     <img src=""images/causal/causal_series_1/causal_series_1_b.png"" style=""width: 300px; height: 300px;"" />
                   </div>","null","1","1","B","",""
"","","","","","html-keyboard-response","177","1742084","0.0-143.0","4440CF210E074C508EBB070600425CFC","0199d605-184b-76b0-94ad-e45a8cf516d5","0199d5ef-c7d4-7cab-a194-b2c3afbaf8e8","","null","<div style=""display: flex; justify-content: center; align-items: center;"">
                     <img src=""images/causal/causal_series_1/causal_series_1_c.png"" style=""width: 300px; height: 300px;"" />
                   </div>","null","1","1","C","",""
"","","","","","html-button-response","178","1743654","0.0-144.0","4440CF210E074C508EBB070600425CFC","0199d605-184b-76b0-94ad-e45a8cf516d5","0199d5ef-c7d4-7cab-a194-b2c3afbaf8e8","","1569","
        <div style=""display: flex; justify-content: center; align-items: center;"">
          <img src=""images/red_deck_2.png"" style=""width: 300px; height: 300px; margin-right: 10px;"" />
          <img src=""images/blue_deck_1.png"" style=""width: 300px; height: 300px;"" />
        </div>","1","1","1","choice","1",""
"","","","","","html-keyboard-response","179","1749664","0.0-145.0-1.0-0.0","4440CF210E074C508EBB070600425CFC","0199d605-184b-76b0-94ad-e45a8cf516d5","0199d5ef-c7d4-7cab-a194-b2c3afbaf8e8","","null","<div style=""display: flex; justify-content: center; align-items: center;"">
                     <img src=""images/semantic/semantic_series_1/semantic_series_1_d.png"" style=""width: 300px; height: 300px;"" />
                   </div>","null","1","1","D","",""
"","","","","","html-keyboard-response","180","1755671","0.0-145.0-1.0-1.0","4440CF210E074C508EBB070600425CFC","0199d605-184b-76b0-94ad-e45a8cf516d5","0199d5ef-c7d4-7cab-a194-b2c3afbaf8e8","","null","<div style=""display: flex; justify-content: center; align-items: center;"">
                     <img src=""images/semantic/semantic_series_1/semantic_series_1_e.png"" style=""width: 300px; height: 300px;"" />
                   </div>","null","1","1","E","",""
"","","","","","html-keyboard-response","181","1761675","0.0-145.0-1.0-2.0","4440CF210E074C508EBB070600425CFC","0199d605-184b-76b0-94ad-e45a8cf516d5","0199d5ef-c7d4-7cab-a194-b2c3afbaf8e8","","null","<div style=""display: flex; justify-content: center; align-items: center;"">
                     <img src=""images/semantic/semantic_series_1/semantic_series_1_f.png"" style=""width: 300px; height: 300px;"" />
                   </div>","null","1","1","F","",""
"","","","","","survey-likert","182","1766097","0.0-146.0","4440CF210E074C508EBB070600425CFC","0199d605-184b-76b0-94ad-e45a8cf516d5","0199d5ef-c7d4-7cab-a194-b2c3afbaf8e8","","4422","","{""Q0"":2}","1","1","surprise_rating","","[0]"
"","","","","","survey-likert","183","1768222","0.0-147.0","4440CF210E074C508EBB070600425CFC","0199d605-184b-76b0-94ad-e45a8cf516d5","0199d5ef-c7d4-7cab-a194-b2c3afbaf8e8","","2124","","{""Q0"":2}","1","1","enjoyment_rating","","[0]"
"","","","","","html-keyboard-response","184","1774224","0.0-148.0","4440CF210E074C508EBB070600425CFC","0199d605-184b-76b0-94ad-e45a8cf516d5","0199d5ef-c7d4-7cab-a194-b2c3afbaf8e8","","null","<div style=""display: flex; justify-content: center; align-items: center;"">
                     <img src=""images/other/blank.png"" style=""width: 300px; height: 300px;"" />
                   </div>","null","0","0","blank","",""
"","","","","","html-keyboard-response","185","1780226","0.0-149.0","4440CF210E074C508EBB070600425CFC","0199d605-184b-76b0-94ad-e45a8cf516d5","0199d5ef-c7d4-7cab-a194-b2c3afbaf8e8","","null","<div style=""display: flex; justify-content: center; align-items: center;"">
                     <img src=""images/causal/causal_series_5/causal_series_5_a.png"" style=""width: 300px; height: 300px;"" />
                   </div>","null","5","2","A","",""
"","","","","","html-keyboard-response","186","1786230","0.0-150.0","4440CF210E074C508EBB070600425CFC","0199d605-184b-76b0-94ad-e45a8cf516d5","0199d5ef-c7d4-7cab-a194-b2c3afbaf8e8","","null","<div style=""display: flex; justify-content: center; align-items: center;"">
                     <img src=""images/causal/causal_series_5/causal_series_5_b.png"" style=""width: 300px; height: 300px;"" />
                   </div>","null","5","2","B","",""
"","","","","","html-keyboard-response","187","1792243","0.0-151.0","4440CF210E074C508EBB070600425CFC","0199d605-184b-76b0-94ad-e45a8cf516d5","0199d5ef-c7d4-7cab-a194-b2c3afbaf8e8","","null","<div style=""display: flex; justify-content: center; align-items: center;"">
                     <img src=""images/causal/causal_series_5/causal_series_5_c.png"" style=""width: 300px; height: 300px;"" />
                   </div>","null","5","2","C","",""
"","","","","","html-button-response","188","1797552","0.0-152.0","4440CF210E074C508EBB070600425CFC","0199d605-184b-76b0-94ad-e45a8cf516d5","0199d5ef-c7d4-7cab-a194-b2c3afbaf8e8","","5308","
        <div style=""display: flex; justify-content: center; align-items: center;"">
          <img src=""images/red_deck_2.png"" style=""width: 300px; height: 300px; margin-right: 10px;"" />
          <img src=""images/blue_deck_1.png"" style=""width: 300px; height: 300px;"" />
        </div>","1","5","2","choice","1",""
"","","","","","html-keyboard-response","189","1803564","0.0-153.0-1.0-0.0","4440CF210E074C508EBB070600425CFC","0199d605-184b-76b0-94ad-e45a8cf516d5","0199d5ef-c7d4-7cab-a194-b2c3afbaf8e8","","null","<div style=""display: flex; justify-content: center; align-items: center;"">
                     <img src=""images/semantic/semantic_series_5/semantic_series_5_d.png"" style=""width: 300px; height: 300px;"" />
                   </div>","null","5","2","D","",""
"","","","","","html-keyboard-response","190","1809573","0.0-153.0-1.0-1.0","4440CF210E074C508EBB070600425CFC","0199d605-184b-76b0-94ad-e45a8cf516d5","0199d5ef-c7d4-7cab-a194-b2c3afbaf8e8","","null","<div style=""display: flex; justify-content: center; align-items: center;"">
                     <img src=""images/semantic/semantic_series_5/semantic_series_5_e.png"" style=""width: 300px; height: 300px;"" />
                   </div>","null","5","2","E","",""
"","","","","","html-keyboard-response","191","1815581","0.0-153.0-1.0-2.0","4440CF210E074C508EBB070600425CFC","0199d605-184b-76b0-94ad-e45a8cf516d5","0199d5ef-c7d4-7cab-a194-b2c3afbaf8e8","","null","<div style=""display: flex; justify-content: center; align-items: center;"">
                     <img src=""images/semantic/semantic_series_5/semantic_series_5_f.png"" style=""width: 300px; height: 300px;"" />
                   </div>","null","5","2","F","",""
"","","","","","survey-likert","192","1817984","0.0-154.0","4440CF210E074C508EBB070600425CFC","0199d605-184b-76b0-94ad-e45a8cf516d5","0199d5ef-c7d4-7cab-a194-b2c3afbaf8e8","","2401","","{""Q0"":3}","5","2","surprise_rating","","[0]"
"","","","","","survey-likert","193","1819174","0.0-155.0","4440CF210E074C508EBB070600425CFC","0199d605-184b-76b0-94ad-e45a8cf516d5","0199d5ef-c7d4-7cab-a194-b2c3afbaf8e8","","1190","","{""Q0"":1}","5","2","enjoyment_rating","","[0]"
"","","","","","html-keyboard-response","194","1825188","0.0-156.0","4440CF210E074C508EBB070600425CFC","0199d605-184b-76b0-94ad-e45a8cf516d5","0199d5ef-c7d4-7cab-a194-b2c3afbaf8e8","","null","<div style=""display: flex; justify-content: center; align-items: center;"">
                     <img src=""images/other/blank.png"" style=""width: 300px; height: 300px;"" />
                   </div>","null","0","0","blank","",""
"","","","","","html-keyboard-response","195","1831194","0.0-157.0","4440CF210E074C508EBB070600425CFC","0199d605-184b-76b0-94ad-e45a8cf516d5","0199d5ef-c7d4-7cab-a194-b2c3afbaf8e8","","null","<div style=""display: flex; justify-content: center; align-items: center;"">
                     <img src=""images/causal/causal_series_5/causal_series_5_a.png"" style=""width: 300px; height: 300px;"" />
                   </div>","null","5","1","A","",""
"","","","","","html-keyboard-response","196","1837195","0.0-158.0","4440CF210E074C508EBB070600425CFC","0199d605-184b-76b0-94ad-e45a8cf516d5","0199d5ef-c7d4-7cab-a194-b2c3afbaf8e8","","null","<div style=""display: flex; justify-content: center; align-items: center;"">
                     <img src=""images/causal/causal_series_5/causal_series_5_b.png"" style=""width: 300px; height: 300px;"" />
                   </div>","null","5","1","B","",""
"","","","","","html-keyboard-response","197","1843206","0.0-159.0","4440CF210E074C508EBB070600425CFC","0199d605-184b-76b0-94ad-e45a8cf516d5","0199d5ef-c7d4-7cab-a194-b2c3afbaf8e8","","null","<div style=""display: flex; justify-content: center; align-items: center;"">
                     <img src=""images/causal/causal_series_5/causal_series_5_c.png"" style=""width: 300px; height: 300px;"" />
                   </div>","null","5","1","C","",""
"","","","","","html-button-response","198","1844555","0.0-160.0","4440CF210E074C508EBB070600425CFC","0199d605-184b-76b0-94ad-e45a8cf516d5","0199d5ef-c7d4-7cab-a194-b2c3afbaf8e8","","1347","
        <div style=""display: flex; justify-content: center; align-items: center;"">
          <img src=""images/red_deck_2.png"" style=""width: 300px; height: 300px; margin-right: 10px;"" />
          <img src=""images/blue_deck_1.png"" style=""width: 300px; height: 300px;"" />
        </div>","0","5","1","choice","0",""
"","","","","","html-keyboard-response","199","1850560","0.0-161.0-0.0-0.0","4440CF210E074C508EBB070600425CFC","0199d605-184b-76b0-94ad-e45a8cf516d5","0199d5ef-c7d4-7cab-a194-b2c3afbaf8e8","","null","<div style=""display: flex; justify-content: center; align-items: center;"">
                     <img src=""images/causal/causal_series_5/causal_series_5_d.png"" style=""width: 300px; height: 300px;"" />
                   </div>","null","5","1","D","",""
"","","","","","html-keyboard-response","200","1856571","0.0-161.0-0.0-1.0","4440CF210E074C508EBB070600425CFC","0199d605-184b-76b0-94ad-e45a8cf516d5","0199d5ef-c7d4-7cab-a194-b2c3afbaf8e8","","null","<div style=""display: flex; justify-content: center; align-items: center;"">
                     <img src=""images/causal/causal_series_5/causal_series_5_e.png"" style=""width: 300px; height: 300px;"" />
                   </div>","null","5","1","E","",""
"","","","","","html-keyboard-response","201","1862581","0.0-161.0-0.0-2.0","4440CF210E074C508EBB070600425CFC","0199d605-184b-76b0-94ad-e45a8cf516d5","0199d5ef-c7d4-7cab-a194-b2c3afbaf8e8","","null","<div style=""display: flex; justify-content: center; align-items: center;"">
                     <img src=""images/causal/causal_series_5/causal_series_5_f.png"" style=""width: 300px; height: 300px;"" />
                   </div>","null","5","1","F","",""
"","","","","","survey-likert","202","1870520","0.0-162.0","4440CF210E074C508EBB070600425CFC","0199d605-184b-76b0-94ad-e45a8cf516d5","0199d5ef-c7d4-7cab-a194-b2c3afbaf8e8","","7938","","{""Q0"":1}","5","1","surprise_rating","","[0]"
"","","","","","survey-likert","203","1872668","0.0-163.0","4440CF210E074C508EBB070600425CFC","0199d605-184b-76b0-94ad-e45a8cf516d5","0199d5ef-c7d4-7cab-a194-b2c3afbaf8e8","","2146","","{""Q0"":1}","5","1","enjoyment_rating","","[0]"
"","","","","","html-keyboard-response","204","1878681","0.0-164.0","4440CF210E074C508EBB070600425CFC","0199d605-184b-76b0-94ad-e45a8cf516d5","0199d5ef-c7d4-7cab-a194-b2c3afbaf8e8","","null","<div style=""display: flex; justify-content: center; align-items: center;"">
                     <img src=""images/other/blank.png"" style=""width: 300px; height: 300px;"" />
                   </div>","null","0","0","blank","",""
"","","","","","survey-text","205","1892748","0.0-165.0","4440CF210E074C508EBB070600425CFC","0199d605-184b-76b0-94ad-e45a8cf516d5","0199d5ef-c7d4-7cab-a194-b2c3afbaf8e8","","14058","","{""Q0"":""I think the red one gave more outlandish scenarios than the blue one generally.""}","","","","",""
"","","","","","html-button-response","206","1900513","0.0-166.0","4440CF210E074C508EBB070600425CFC","0199d605-184b-76b0-94ad-e45a8cf516d5","0199d5ef-c7d4-7cab-a194-b2c3afbaf8e8","","7764","Which color deck do the following sentences continue the story from?","0","","","","",""
"","","","","","html-button-response","207","1901659","0.0-167.0","4440CF210E074C508EBB070600425CFC","0199d605-184b-76b0-94ad-e45a8cf516d5","0199d5ef-c7d4-7cab-a194-b2c3afbaf8e8","","1146","Which color deck do the following sentences NOT follow the story from?","1","","","","",""
"","","","","","html-button-response","208","1906058","0.0-168.0","4440CF210E074C508EBB070600425CFC","0199d605-184b-76b0-94ad-e45a8cf516d5","0199d5ef-c7d4-7cab-a194-b2c3afbaf8e8","","4398","Which type of deck did you prefer overall?","0","","","","",""
"","","","","","survey-text","209","1912288","0.0-169.0","4440CF210E074C508EBB070600425CFC","0199d605-184b-76b0-94ad-e45a8cf516d5","0199d5ef-c7d4-7cab-a194-b2c3afbaf8e8","","6226","","{""Q0"":""MALE"",""Q1"":""28""}","","","","",""
"","","","","","instructions","210","1916082","0.0-170.0","4440CF210E074C508EBB070600425CFC","0199d605-184b-76b0-94ad-e45a8cf516d5","0199d5ef-c7d4-7cab-a194-b2c3afbaf8e8","[{""page_index"":0,""viewing_time"":3792}]","3793","","","","","","",""
