"success","timeout","failed_images","failed_audio","failed_video","trial_type","trial_index","time_elapsed","internal_node_id","subject_id","study_id","session_id","view_history","rt","stimulus","response","choice"
"true","false","[]","[]","[]","preload","0","1429","0.0-0.0","51D131577874460C9A2A0A378E420CEB","0047f23a-0161-49e3-890c-763a371b0a48","4f03f330-5f91-43fc-aa61-d9dda6d26521","","","","",""
"","","","","","instructions","1","9236","0.0-1.0","51D131577874460C9A2A0A378E420CEB","0047f23a-0161-49e3-890c-763a371b0a48","4f03f330-5f91-43fc-aa61-d9dda6d26521","[{""page_index"":0,""viewing_time"":7806}]","7806","","",""
"","","","","","instructions","2","21958","0.0-2.0","51D131577874460C9A2A0A378E420CEB","0047f23a-0161-49e3-890c-763a371b0a48","4f03f330-5f91-43fc-aa61-d9dda6d26521","[{""page_index"":0,""viewing_time"":12722}]","12722","","",""
"true","","","","","fullscreen","3","38697","0.0-3.0","51D131577874460C9A2A0A378E420CEB","0047f23a-0161-49e3-890c-763a371b0a48","4f03f330-5f91-43fc-aa61-d9dda6d26521","","15732","","",""
"","","","","","instructions","4","50232","0.0-4.0","51D131577874460C9A2A0A378E420CEB","0047f23a-0161-49e3-890c-763a371b0a48","4f03f330-5f91-43fc-aa61-d9dda6d26521","[{""page_index"":0,""viewing_time"":11534}]","11534","","",""
"","","","","","html-keyboard-response","5","53242","0.0-5.0","51D131577874460C9A2A0A378E420CEB","0047f23a-0161-49e3-890c-763a371b0a48","4f03f330-5f91-43fc-aa61-d9dda6d26521","","null","<div style=""display: flex; justify-content: center; align-items: center;"">
                <img src=""images/causal/causal_series_18/causal_series_18_a.jpg"" style=""width: 300px; height: 300px;"" />
              </div>","null",""
"","","","","","html-button-response","6","56153","0.0-6.0","51D131577874460C9A2A0A378E420CEB","0047f23a-0161-49e3-890c-763a371b0a48","4f03f330-5f91-43fc-aa61-d9dda6d26521","","2911","
    <div style=""display: flex; justify-content: center; align-items: center;"">
      <img src=""images/red_deck_2.png"" style=""width: 300px; height: 300px; margin-right: 10px;"" />
      <img src=""images/blue_deck_1.png"" style=""width: 300px; height: 300px;"" />
    </div>","0","0"
"","","","","","html-keyboard-response","7","59161","0.0-7.0-0.0-0.0","51D131577874460C9A2A0A378E420CEB","0047f23a-0161-49e3-890c-763a371b0a48","4f03f330-5f91-43fc-aa61-d9dda6d26521","","null","<div style=""display: flex; justify-content: center; align-items: center;"">
                <img src=""images/causal/causal_series_18/causal_series_18_b.jpg"" style=""width: 300px; height: 300px;"" />
              </div>","null",""
"","","","","","html-keyboard-response","8","62174","0.0-7.0-0.0-1.0","51D131577874460C9A2A0A378E420CEB","0047f23a-0161-49e3-890c-763a371b0a48","4f03f330-5f91-43fc-aa61-d9dda6d26521","","null","<div style=""display: flex; justify-content: center; align-items: center;"">
                <img src=""images/causal/causal_series_18/causal_series_18_c.jpg"" style=""width: 300px; height: 300px;"" />
              </div>","null",""
"","","","","","html-keyboard-response","9","65176","0.0-7.0-0.0-2.0","51D131577874460C9A2A0A378E420CEB","0047f23a-0161-49e3-890c-763a371b0a48","4f03f330-5f91-43fc-aa61-d9dda6d26521","","null","<div style=""display: flex; justify-content: center; align-items: center;"">
                <img src=""images/causal/causal_series_18/causal_series_18_d.jpg"" style=""width: 300px; height: 300px;"" />
              </div>","null",""
"","","","","","html-keyboard-response","10","68178","0.0-8.0","51D131577874460C9A2A0A378E420CEB","0047f23a-0161-49e3-890c-763a371b0a48","4f03f330-5f91-43fc-aa61-d9dda6d26521","","null","<div style=""display: flex; justify-content: center; align-items: center;"">
                <img src=""images/other/blank.jpg"" style=""width: 300px; height: 300px;"" />
              </div>","null",""
"","","","","","html-keyboard-response","11","71188","0.0-9.0","51D131577874460C9A2A0A378E420CEB","0047f23a-0161-49e3-890c-763a371b0a48","4f03f330-5f91-43fc-aa61-d9dda6d26521","","null","<div style=""display: flex; justify-content: center; align-items: center;"">
                <img src=""images/causal/causal_series_2/causal_series_2_a.jpg"" style=""width: 300px; height: 300px;"" />
              </div>","null",""
"","","","","","html-button-response","12","72540","0.0-10.0","51D131577874460C9A2A0A378E420CEB","0047f23a-0161-49e3-890c-763a371b0a48","4f03f330-5f91-43fc-aa61-d9dda6d26521","","1351","
    <div style=""display: flex; justify-content: center; align-items: center;"">
      <img src=""images/red_deck_2.png"" style=""width: 300px; height: 300px; margin-right: 10px;"" />
      <img src=""images/blue_deck_1.png"" style=""width: 300px; height: 300px;"" />
    </div>","1","1"
"","","","","","html-keyboard-response","13","75543","0.0-11.0-1.0-0.0","51D131577874460C9A2A0A378E420CEB","0047f23a-0161-49e3-890c-763a371b0a48","4f03f330-5f91-43fc-aa61-d9dda6d26521","","null","<div style=""display: flex; justify-content: center; align-items: center;"">
                <img src=""images/semantic/semantic_series_3/semantic_series_3_d.jpg"" style=""width: 300px; height: 300px;"" />
              </div>","null",""
"","","","","","html-keyboard-response","14","78548","0.0-11.0-1.0-1.0","51D131577874460C9A2A0A378E420CEB","0047f23a-0161-49e3-890c-763a371b0a48","4f03f330-5f91-43fc-aa61-d9dda6d26521","","null","<div style=""display: flex; justify-content: center; align-items: center;"">
                <img src=""images/semantic/semantic_series_4/semantic_series_4_d.jpg"" style=""width: 300px; height: 300px;"" />
              </div>","null",""
"","","","","","html-keyboard-response","15","81549","0.0-11.0-1.0-2.0","51D131577874460C9A2A0A378E420CEB","0047f23a-0161-49e3-890c-763a371b0a48","4f03f330-5f91-43fc-aa61-d9dda6d26521","","null","<div style=""display: flex; justify-content: center; align-items: center;"">
                <img src=""images/semantic/semantic_series_5/semantic_series_5_d.jpg"" style=""width: 300px; height: 300px;"" />
              </div>","null",""
"","","","","","html-keyboard-response","16","84564","0.0-12.0","51D131577874460C9A2A0A378E420CEB","0047f23a-0161-49e3-890c-763a371b0a48","4f03f330-5f91-43fc-aa61-d9dda6d26521","","null","<div style=""display: flex; justify-content: center; align-items: center;"">
                <img src=""images/other/blank.jpg"" style=""width: 300px; height: 300px;"" />
              </div>","null",""
"","","","","","html-keyboard-response","17","87580","0.0-13.0","51D131577874460C9A2A0A378E420CEB","0047f23a-0161-49e3-890c-763a371b0a48","4f03f330-5f91-43fc-aa61-d9dda6d26521","","null","<div style=""display: flex; justify-content: center; align-items: center;"">
                <img src=""images/causal/causal_series_13/causal_series_13_a.jpg"" style=""width: 300px; height: 300px;"" />
              </div>","null",""
"","","","","","html-button-response","18","88587","0.0-14.0","51D131577874460C9A2A0A378E420CEB","0047f23a-0161-49e3-890c-763a371b0a48","4f03f330-5f91-43fc-aa61-d9dda6d26521","","1006","
    <div style=""display: flex; justify-content: center; align-items: center;"">
      <img src=""images/red_deck_2.png"" style=""width: 300px; height: 300px; margin-right: 10px;"" />
      <img src=""images/blue_deck_1.png"" style=""width: 300px; height: 300px;"" />
    </div>","1","1"
"","","","","","html-keyboard-response","19","91598","0.0-15.0-1.0-0.0","51D131577874460C9A2A0A378E420CEB","0047f23a-0161-49e3-890c-763a371b0a48","4f03f330-5f91-43fc-aa61-d9dda6d26521","","null","<div style=""display: flex; justify-content: center; align-items: center;"">
                <img src=""images/semantic/semantic_series_18/semantic_series_18_d.jpg"" style=""width: 300px; height: 300px;"" />
              </div>","null",""
"","","","","","html-keyboard-response","20","94611","0.0-15.0-1.0-1.0","51D131577874460C9A2A0A378E420CEB","0047f23a-0161-49e3-890c-763a371b0a48","4f03f330-5f91-43fc-aa61-d9dda6d26521","","null","<div style=""display: flex; justify-content: center; align-items: center;"">
                <img src=""images/semantic/semantic_series_1/semantic_series_1_d.jpg"" style=""width: 300px; height: 300px;"" />
              </div>","null",""
"","","","","","html-keyboard-response","21","97623","0.0-15.0-1.0-2.0","51D131577874460C9A2A0A378E420CEB","0047f23a-0161-49e3-890c-763a371b0a48","4f03f330-5f91-43fc-aa61-d9dda6d26521","","null","<div style=""display: flex; justify-content: center; align-items: center;"">
                <img src=""images/semantic/semantic_series_2/semantic_series_2_d.jpg"" style=""width: 300px; height: 300px;"" />
              </div>","null",""
"","","","","","html-keyboard-response","22","100638","0.0-16.0","51D131577874460C9A2A0A378E420CEB","0047f23a-0161-49e3-890c-763a371b0a48","4f03f330-5f91-43fc-aa61-d9dda6d26521","","null","<div style=""display: flex; justify-content: center; align-items: center;"">
                <img src=""images/other/blank.jpg"" style=""width: 300px; height: 300px;"" />
              </div>","null",""
"","","","","","html-keyboard-response","23","103643","0.0-17.0","51D131577874460C9A2A0A378E420CEB","0047f23a-0161-49e3-890c-763a371b0a48","4f03f330-5f91-43fc-aa61-d9dda6d26521","","null","<div style=""display: flex; justify-content: center; align-items: center;"">
                <img src=""images/causal/causal_series_14/causal_series_14_a.jpg"" style=""width: 300px; height: 300px;"" />
              </div>","null",""
"","","","","","html-button-response","24","105121","0.0-18.0","51D131577874460C9A2A0A378E420CEB","0047f23a-0161-49e3-890c-763a371b0a48","4f03f330-5f91-43fc-aa61-d9dda6d26521","","1477","
    <div style=""display: flex; justify-content: center; align-items: center;"">
      <img src=""images/red_deck_2.png"" style=""width: 300px; height: 300px; margin-right: 10px;"" />
      <img src=""images/blue_deck_1.png"" style=""width: 300px; height: 300px;"" />
    </div>","0","0"
"","","","","","html-keyboard-response","25","108137","0.0-19.0-0.0-0.0","51D131577874460C9A2A0A378E420CEB","0047f23a-0161-49e3-890c-763a371b0a48","4f03f330-5f91-43fc-aa61-d9dda6d26521","","null","<div style=""display: flex; justify-content: center; align-items: center;"">
                <img src=""images/causal/causal_series_14/causal_series_14_b.jpg"" style=""width: 300px; height: 300px;"" />
              </div>","null",""
"","","","","","html-keyboard-response","26","111142","0.0-19.0-0.0-1.0","51D131577874460C9A2A0A378E420CEB","0047f23a-0161-49e3-890c-763a371b0a48","4f03f330-5f91-43fc-aa61-d9dda6d26521","","null","<div style=""display: flex; justify-content: center; align-items: center;"">
                <img src=""images/causal/causal_series_14/causal_series_14_c.jpg"" style=""width: 300px; height: 300px;"" />
              </div>","null",""
"","","","","","html-keyboard-response","27","114151","0.0-19.0-0.0-2.0","51D131577874460C9A2A0A378E420CEB","0047f23a-0161-49e3-890c-763a371b0a48","4f03f330-5f91-43fc-aa61-d9dda6d26521","","null","<div style=""display: flex; justify-content: center; align-items: center;"">
                <img src=""images/causal/causal_series_14/causal_series_14_d.jpg"" style=""width: 300px; height: 300px;"" />
              </div>","null",""
"","","","","","html-keyboard-response","28","117162","0.0-20.0","51D131577874460C9A2A0A378E420CEB","0047f23a-0161-49e3-890c-763a371b0a48","4f03f330-5f91-43fc-aa61-d9dda6d26521","","null","<div style=""display: flex; justify-content: center; align-items: center;"">
                <img src=""images/other/blank.jpg"" style=""width: 300px; height: 300px;"" />
              </div>","null",""
"","","","","","html-keyboard-response","29","120164","0.0-21.0","51D131577874460C9A2A0A378E420CEB","0047f23a-0161-49e3-890c-763a371b0a48","4f03f330-5f91-43fc-aa61-d9dda6d26521","","null","<div style=""display: flex; justify-content: center; align-items: center;"">
                <img src=""images/causal/causal_series_10/causal_series_10_a.jpg"" style=""width: 300px; height: 300px;"" />
              </div>","null",""
"","","","","","html-button-response","30","121577","0.0-22.0","51D131577874460C9A2A0A378E420CEB","0047f23a-0161-49e3-890c-763a371b0a48","4f03f330-5f91-43fc-aa61-d9dda6d26521","","1413","
    <div style=""display: flex; justify-content: center; align-items: center;"">
      <img src=""images/red_deck_2.png"" style=""width: 300px; height: 300px; margin-right: 10px;"" />
      <img src=""images/blue_deck_1.png"" style=""width: 300px; height: 300px;"" />
    </div>","0","0"
"","","","","","html-keyboard-response","31","124579","0.0-23.0-0.0-0.0","51D131577874460C9A2A0A378E420CEB","0047f23a-0161-49e3-890c-763a371b0a48","4f03f330-5f91-43fc-aa61-d9dda6d26521","","null","<div style=""display: flex; justify-content: center; align-items: center;"">
                <img src=""images/causal/causal_series_10/causal_series_10_b.jpg"" style=""width: 300px; height: 300px;"" />
              </div>","null",""
"","","","","","html-keyboard-response","32","127590","0.0-23.0-0.0-1.0","51D131577874460C9A2A0A378E420CEB","0047f23a-0161-49e3-890c-763a371b0a48","4f03f330-5f91-43fc-aa61-d9dda6d26521","","null","<div style=""display: flex; justify-content: center; align-items: center;"">
                <img src=""images/causal/causal_series_10/causal_series_10_c.jpg"" style=""width: 300px; height: 300px;"" />
              </div>","null",""
"","","","","","html-keyboard-response","33","130604","0.0-23.0-0.0-2.0","51D131577874460C9A2A0A378E420CEB","0047f23a-0161-49e3-890c-763a371b0a48","4f03f330-5f91-43fc-aa61-d9dda6d26521","","null","<div style=""display: flex; justify-content: center; align-items: center;"">
                <img src=""images/causal/causal_series_10/causal_series_10_d.jpg"" style=""width: 300px; height: 300px;"" />
              </div>","null",""
"","","","","","html-keyboard-response","34","133608","0.0-24.0","51D131577874460C9A2A0A378E420CEB","0047f23a-0161-49e3-890c-763a371b0a48","4f03f330-5f91-43fc-aa61-d9dda6d26521","","null","<div style=""display: flex; justify-content: center; align-items: center;"">
                <img src=""images/other/blank.jpg"" style=""width: 300px; height: 300px;"" />
              </div>","null",""
"","","","","","html-keyboard-response","35","136615","0.0-25.0","51D131577874460C9A2A0A378E420CEB","0047f23a-0161-49e3-890c-763a371b0a48","4f03f330-5f91-43fc-aa61-d9dda6d26521","","null","<div style=""display: flex; justify-content: center; align-items: center;"">
                <img src=""images/causal/causal_series_1/causal_series_1_a.jpg"" style=""width: 300px; height: 300px;"" />
              </div>","null",""
"","","","","","html-button-response","36","139678","0.0-26.0","51D131577874460C9A2A0A378E420CEB","0047f23a-0161-49e3-890c-763a371b0a48","4f03f330-5f91-43fc-aa61-d9dda6d26521","","3063","
    <div style=""display: flex; justify-content: center; align-items: center;"">
      <img src=""images/red_deck_2.png"" style=""width: 300px; height: 300px; margin-right: 10px;"" />
      <img src=""images/blue_deck_1.png"" style=""width: 300px; height: 300px;"" />
    </div>","0","0"
"","","","","","html-keyboard-response","37","142694","0.0-27.0-0.0-0.0","51D131577874460C9A2A0A378E420CEB","0047f23a-0161-49e3-890c-763a371b0a48","4f03f330-5f91-43fc-aa61-d9dda6d26521","","null","<div style=""display: flex; justify-content: center; align-items: center;"">
                <img src=""images/causal/causal_series_1/causal_series_1_b.jpg"" style=""width: 300px; height: 300px;"" />
              </div>","null",""
"","","","","","html-keyboard-response","38","145697","0.0-27.0-0.0-1.0","51D131577874460C9A2A0A378E420CEB","0047f23a-0161-49e3-890c-763a371b0a48","4f03f330-5f91-43fc-aa61-d9dda6d26521","","null","<div style=""display: flex; justify-content: center; align-items: center;"">
                <img src=""images/causal/causal_series_1/causal_series_1_c.jpg"" style=""width: 300px; height: 300px;"" />
              </div>","null",""
"","","","","","html-keyboard-response","39","148705","0.0-27.0-0.0-2.0","51D131577874460C9A2A0A378E420CEB","0047f23a-0161-49e3-890c-763a371b0a48","4f03f330-5f91-43fc-aa61-d9dda6d26521","","null","<div style=""display: flex; justify-content: center; align-items: center;"">
                <img src=""images/causal/causal_series_1/causal_series_1_d.jpg"" style=""width: 300px; height: 300px;"" />
              </div>","null",""
"","","","","","html-keyboard-response","40","151709","0.0-28.0","51D131577874460C9A2A0A378E420CEB","0047f23a-0161-49e3-890c-763a371b0a48","4f03f330-5f91-43fc-aa61-d9dda6d26521","","null","<div style=""display: flex; justify-content: center; align-items: center;"">
                <img src=""images/other/blank.jpg"" style=""width: 300px; height: 300px;"" />
              </div>","null",""
"","","","","","html-keyboard-response","41","154719","0.0-29.0","51D131577874460C9A2A0A378E420CEB","0047f23a-0161-49e3-890c-763a371b0a48","4f03f330-5f91-43fc-aa61-d9dda6d26521","","null","<div style=""display: flex; justify-content: center; align-items: center;"">
                <img src=""images/causal/causal_series_4/causal_series_4_a.jpg"" style=""width: 300px; height: 300px;"" />
              </div>","null",""
"","","","","","html-button-response","42","155578","0.0-30.0","51D131577874460C9A2A0A378E420CEB","0047f23a-0161-49e3-890c-763a371b0a48","4f03f330-5f91-43fc-aa61-d9dda6d26521","","859","
    <div style=""display: flex; justify-content: center; align-items: center;"">
      <img src=""images/red_deck_2.png"" style=""width: 300px; height: 300px; margin-right: 10px;"" />
      <img src=""images/blue_deck_1.png"" style=""width: 300px; height: 300px;"" />
    </div>","1","1"
"","","","","","html-keyboard-response","43","158589","0.0-31.0-1.0-0.0","51D131577874460C9A2A0A378E420CEB","0047f23a-0161-49e3-890c-763a371b0a48","4f03f330-5f91-43fc-aa61-d9dda6d26521","","null","<div style=""display: flex; justify-content: center; align-items: center;"">
                <img src=""images/semantic/semantic_series_9/semantic_series_9_d.jpg"" style=""width: 300px; height: 300px;"" />
              </div>","null",""
"","","","","","html-keyboard-response","44","161590","0.0-31.0-1.0-1.0","51D131577874460C9A2A0A378E420CEB","0047f23a-0161-49e3-890c-763a371b0a48","4f03f330-5f91-43fc-aa61-d9dda6d26521","","null","<div style=""display: flex; justify-content: center; align-items: center;"">
                <img src=""images/semantic/semantic_series_10/semantic_series_10_d.jpg"" style=""width: 300px; height: 300px;"" />
              </div>","null",""
"","","","","","html-keyboard-response","45","164599","0.0-31.0-1.0-2.0","51D131577874460C9A2A0A378E420CEB","0047f23a-0161-49e3-890c-763a371b0a48","4f03f330-5f91-43fc-aa61-d9dda6d26521","","null","<div style=""display: flex; justify-content: center; align-items: center;"">
                <img src=""images/semantic/semantic_series_11/semantic_series_11_d.jpg"" style=""width: 300px; height: 300px;"" />
              </div>","null",""
"","","","","","html-keyboard-response","46","167600","0.0-32.0","51D131577874460C9A2A0A378E420CEB","0047f23a-0161-49e3-890c-763a371b0a48","4f03f330-5f91-43fc-aa61-d9dda6d26521","","null","<div style=""display: flex; justify-content: center; align-items: center;"">
                <img src=""images/other/blank.jpg"" style=""width: 300px; height: 300px;"" />
              </div>","null",""
"","","","","","html-keyboard-response","47","170602","0.0-33.0","51D131577874460C9A2A0A378E420CEB","0047f23a-0161-49e3-890c-763a371b0a48","4f03f330-5f91-43fc-aa61-d9dda6d26521","","null","<div style=""display: flex; justify-content: center; align-items: center;"">
                <img src=""images/causal/causal_series_6/causal_series_6_a.jpg"" style=""width: 300px; height: 300px;"" />
              </div>","null",""
"","","","","","html-button-response","48","171387","0.0-34.0","51D131577874460C9A2A0A378E420CEB","0047f23a-0161-49e3-890c-763a371b0a48","4f03f330-5f91-43fc-aa61-d9dda6d26521","","785","
    <div style=""display: flex; justify-content: center; align-items: center;"">
      <img src=""images/red_deck_2.png"" style=""width: 300px; height: 300px; margin-right: 10px;"" />
      <img src=""images/blue_deck_1.png"" style=""width: 300px; height: 300px;"" />
    </div>","0","0"
"","","","","","html-keyboard-response","49","174393","0.0-35.0-0.0-0.0","51D131577874460C9A2A0A378E420CEB","0047f23a-0161-49e3-890c-763a371b0a48","4f03f330-5f91-43fc-aa61-d9dda6d26521","","null","<div style=""display: flex; justify-content: center; align-items: center;"">
                <img src=""images/causal/causal_series_6/causal_series_6_b.jpg"" style=""width: 300px; height: 300px;"" />
              </div>","null",""
"","","","","","html-keyboard-response","50","177394","0.0-35.0-0.0-1.0","51D131577874460C9A2A0A378E420CEB","0047f23a-0161-49e3-890c-763a371b0a48","4f03f330-5f91-43fc-aa61-d9dda6d26521","","null","<div style=""display: flex; justify-content: center; align-items: center;"">
                <img src=""images/causal/causal_series_6/causal_series_6_c.jpg"" style=""width: 300px; height: 300px;"" />
              </div>","null",""
"","","","","","html-keyboard-response","51","180407","0.0-35.0-0.0-2.0","51D131577874460C9A2A0A378E420CEB","0047f23a-0161-49e3-890c-763a371b0a48","4f03f330-5f91-43fc-aa61-d9dda6d26521","","null","<div style=""display: flex; justify-content: center; align-items: center;"">
                <img src=""images/causal/causal_series_6/causal_series_6_d.jpg"" style=""width: 300px; height: 300px;"" />
              </div>","null",""
"","","","","","html-keyboard-response","52","183408","0.0-36.0","51D131577874460C9A2A0A378E420CEB","0047f23a-0161-49e3-890c-763a371b0a48","4f03f330-5f91-43fc-aa61-d9dda6d26521","","null","<div style=""display: flex; justify-content: center; align-items: center;"">
                <img src=""images/other/blank.jpg"" style=""width: 300px; height: 300px;"" />
              </div>","null",""
"","","","","","html-keyboard-response","53","186409","0.0-37.0","51D131577874460C9A2A0A378E420CEB","0047f23a-0161-49e3-890c-763a371b0a48","4f03f330-5f91-43fc-aa61-d9dda6d26521","","null","<div style=""display: flex; justify-content: center; align-items: center;"">
                <img src=""images/causal/causal_series_12/causal_series_12_a.jpg"" style=""width: 300px; height: 300px;"" />
              </div>","null",""
"","","","","","html-button-response","54","187776","0.0-38.0","51D131577874460C9A2A0A378E420CEB","0047f23a-0161-49e3-890c-763a371b0a48","4f03f330-5f91-43fc-aa61-d9dda6d26521","","1367","
    <div style=""display: flex; justify-content: center; align-items: center;"">
      <img src=""images/red_deck_2.png"" style=""width: 300px; height: 300px; margin-right: 10px;"" />
      <img src=""images/blue_deck_1.png"" style=""width: 300px; height: 300px;"" />
    </div>","0","0"
"","","","","","html-keyboard-response","55","190783","0.0-39.0-0.0-0.0","51D131577874460C9A2A0A378E420CEB","0047f23a-0161-49e3-890c-763a371b0a48","4f03f330-5f91-43fc-aa61-d9dda6d26521","","null","<div style=""display: flex; justify-content: center; align-items: center;"">
                <img src=""images/causal/causal_series_12/causal_series_12_b.jpg"" style=""width: 300px; height: 300px;"" />
              </div>","null",""
"","","","","","html-keyboard-response","56","193797","0.0-39.0-0.0-1.0","51D131577874460C9A2A0A378E420CEB","0047f23a-0161-49e3-890c-763a371b0a48","4f03f330-5f91-43fc-aa61-d9dda6d26521","","null","<div style=""display: flex; justify-content: center; align-items: center;"">
                <img src=""images/causal/causal_series_12/causal_series_12_c.jpg"" style=""width: 300px; height: 300px;"" />
              </div>","null",""
"","","","","","html-keyboard-response","57","196799","0.0-39.0-0.0-2.0","51D131577874460C9A2A0A378E420CEB","0047f23a-0161-49e3-890c-763a371b0a48","4f03f330-5f91-43fc-aa61-d9dda6d26521","","null","<div style=""display: flex; justify-content: center; align-items: center;"">
                <img src=""images/causal/causal_series_12/causal_series_12_d.jpg"" style=""width: 300px; height: 300px;"" />
              </div>","null",""
"","","","","","html-keyboard-response","58","199812","0.0-40.0","51D131577874460C9A2A0A378E420CEB","0047f23a-0161-49e3-890c-763a371b0a48","4f03f330-5f91-43fc-aa61-d9dda6d26521","","null","<div style=""display: flex; justify-content: center; align-items: center;"">
                <img src=""images/other/blank.jpg"" style=""width: 300px; height: 300px;"" />
              </div>","null",""
"","","","","","html-keyboard-response","59","202816","0.0-41.0","51D131577874460C9A2A0A378E420CEB","0047f23a-0161-49e3-890c-763a371b0a48","4f03f330-5f91-43fc-aa61-d9dda6d26521","","null","<div style=""display: flex; justify-content: center; align-items: center;"">
                <img src=""images/causal/causal_series_9/causal_series_9_a.jpg"" style=""width: 300px; height: 300px;"" />
              </div>","null",""
"","","","","","html-button-response","60","203689","0.0-42.0","51D131577874460C9A2A0A378E420CEB","0047f23a-0161-49e3-890c-763a371b0a48","4f03f330-5f91-43fc-aa61-d9dda6d26521","","872","
    <div style=""display: flex; justify-content: center; align-items: center;"">
      <img src=""images/red_deck_2.png"" style=""width: 300px; height: 300px; margin-right: 10px;"" />
      <img src=""images/blue_deck_1.png"" style=""width: 300px; height: 300px;"" />
    </div>","0","0"
"","","","","","html-keyboard-response","61","206701","0.0-43.0-0.0-0.0","51D131577874460C9A2A0A378E420CEB","0047f23a-0161-49e3-890c-763a371b0a48","4f03f330-5f91-43fc-aa61-d9dda6d26521","","null","<div style=""display: flex; justify-content: center; align-items: center;"">
                <img src=""images/causal/causal_series_9/causal_series_9_b.jpg"" style=""width: 300px; height: 300px;"" />
              </div>","null",""
"","","","","","html-keyboard-response","62","209706","0.0-43.0-0.0-1.0","51D131577874460C9A2A0A378E420CEB","0047f23a-0161-49e3-890c-763a371b0a48","4f03f330-5f91-43fc-aa61-d9dda6d26521","","null","<div style=""display: flex; justify-content: center; align-items: center;"">
                <img src=""images/causal/causal_series_9/causal_series_9_c.jpg"" style=""width: 300px; height: 300px;"" />
              </div>","null",""
"","","","","","html-keyboard-response","63","212711","0.0-43.0-0.0-2.0","51D131577874460C9A2A0A378E420CEB","0047f23a-0161-49e3-890c-763a371b0a48","4f03f330-5f91-43fc-aa61-d9dda6d26521","","null","<div style=""display: flex; justify-content: center; align-items: center;"">
                <img src=""images/causal/causal_series_9/causal_series_9_d.jpg"" style=""width: 300px; height: 300px;"" />
              </div>","null",""
"","","","","","html-keyboard-response","64","215714","0.0-44.0","51D131577874460C9A2A0A378E420CEB","0047f23a-0161-49e3-890c-763a371b0a48","4f03f330-5f91-43fc-aa61-d9dda6d26521","","null","<div style=""display: flex; justify-content: center; align-items: center;"">
                <img src=""images/other/blank.jpg"" style=""width: 300px; height: 300px;"" />
              </div>","null",""
"","","","","","html-keyboard-response","65","218715","0.0-45.0","51D131577874460C9A2A0A378E420CEB","0047f23a-0161-49e3-890c-763a371b0a48","4f03f330-5f91-43fc-aa61-d9dda6d26521","","null","<div style=""display: flex; justify-content: center; align-items: center;"">
                <img src=""images/causal/causal_series_7/causal_series_7_a.jpg"" style=""width: 300px; height: 300px;"" />
              </div>","null",""
"","","","","","html-button-response","66","219412","0.0-46.0","51D131577874460C9A2A0A378E420CEB","0047f23a-0161-49e3-890c-763a371b0a48","4f03f330-5f91-43fc-aa61-d9dda6d26521","","697","
    <div style=""display: flex; justify-content: center; align-items: center;"">
      <img src=""images/red_deck_2.png"" style=""width: 300px; height: 300px; margin-right: 10px;"" />
      <img src=""images/blue_deck_1.png"" style=""width: 300px; height: 300px;"" />
    </div>","0","0"
"","","","","","html-keyboard-response","67","222425","0.0-47.0-0.0-0.0","51D131577874460C9A2A0A378E420CEB","0047f23a-0161-49e3-890c-763a371b0a48","4f03f330-5f91-43fc-aa61-d9dda6d26521","","null","<div style=""display: flex; justify-content: center; align-items: center;"">
                <img src=""images/causal/causal_series_7/causal_series_7_b.jpg"" style=""width: 300px; height: 300px;"" />
              </div>","null",""
"","","","","","html-keyboard-response","68","225435","0.0-47.0-0.0-1.0","51D131577874460C9A2A0A378E420CEB","0047f23a-0161-49e3-890c-763a371b0a48","4f03f330-5f91-43fc-aa61-d9dda6d26521","","null","<div style=""display: flex; justify-content: center; align-items: center;"">
                <img src=""images/causal/causal_series_7/causal_series_7_c.jpg"" style=""width: 300px; height: 300px;"" />
              </div>","null",""
"","","","","","html-keyboard-response","69","228448","0.0-47.0-0.0-2.0","51D131577874460C9A2A0A378E420CEB","0047f23a-0161-49e3-890c-763a371b0a48","4f03f330-5f91-43fc-aa61-d9dda6d26521","","null","<div style=""display: flex; justify-content: center; align-items: center;"">
                <img src=""images/causal/causal_series_7/causal_series_7_d.jpg"" style=""width: 300px; height: 300px;"" />
              </div>","null",""
"","","","","","html-keyboard-response","70","231452","0.0-48.0","51D131577874460C9A2A0A378E420CEB","0047f23a-0161-49e3-890c-763a371b0a48","4f03f330-5f91-43fc-aa61-d9dda6d26521","","null","<div style=""display: flex; justify-content: center; align-items: center;"">
                <img src=""images/other/blank.jpg"" style=""width: 300px; height: 300px;"" />
              </div>","null",""
"","","","","","html-keyboard-response","71","234464","0.0-49.0","51D131577874460C9A2A0A378E420CEB","0047f23a-0161-49e3-890c-763a371b0a48","4f03f330-5f91-43fc-aa61-d9dda6d26521","","null","<div style=""display: flex; justify-content: center; align-items: center;"">
                <img src=""images/causal/causal_series_16/causal_series_16_a.jpg"" style=""width: 300px; height: 300px;"" />
              </div>","null",""
"","","","","","html-button-response","72","235190","0.0-50.0","51D131577874460C9A2A0A378E420CEB","0047f23a-0161-49e3-890c-763a371b0a48","4f03f330-5f91-43fc-aa61-d9dda6d26521","","725","
    <div style=""display: flex; justify-content: center; align-items: center;"">
      <img src=""images/red_deck_2.png"" style=""width: 300px; height: 300px; margin-right: 10px;"" />
      <img src=""images/blue_deck_1.png"" style=""width: 300px; height: 300px;"" />
    </div>","1","1"
"","","","","","html-keyboard-response","73","238194","0.0-51.0-1.0-0.0","51D131577874460C9A2A0A378E420CEB","0047f23a-0161-49e3-890c-763a371b0a48","4f03f330-5f91-43fc-aa61-d9dda6d26521","","null","<div style=""display: flex; justify-content: center; align-items: center;"">
                <img src=""images/semantic/semantic_series_9/semantic_series_9_d.jpg"" style=""width: 300px; height: 300px;"" />
              </div>","null",""
"","","","","","html-keyboard-response","74","241196","0.0-51.0-1.0-1.0","51D131577874460C9A2A0A378E420CEB","0047f23a-0161-49e3-890c-763a371b0a48","4f03f330-5f91-43fc-aa61-d9dda6d26521","","null","<div style=""display: flex; justify-content: center; align-items: center;"">
                <img src=""images/semantic/semantic_series_10/semantic_series_10_d.jpg"" style=""width: 300px; height: 300px;"" />
              </div>","null",""
"","","","","","html-keyboard-response","75","244211","0.0-51.0-1.0-2.0","51D131577874460C9A2A0A378E420CEB","0047f23a-0161-49e3-890c-763a371b0a48","4f03f330-5f91-43fc-aa61-d9dda6d26521","","null","<div style=""display: flex; justify-content: center; align-items: center;"">
                <img src=""images/semantic/semantic_series_11/semantic_series_11_d.jpg"" style=""width: 300px; height: 300px;"" />
              </div>","null",""
"","","","","","html-keyboard-response","76","247220","0.0-52.0","51D131577874460C9A2A0A378E420CEB","0047f23a-0161-49e3-890c-763a371b0a48","4f03f330-5f91-43fc-aa61-d9dda6d26521","","null","<div style=""display: flex; justify-content: center; align-items: center;"">
                <img src=""images/other/blank.jpg"" style=""width: 300px; height: 300px;"" />
              </div>","null",""
"","","","","","html-keyboard-response","77","250228","0.0-53.0","51D131577874460C9A2A0A378E420CEB","0047f23a-0161-49e3-890c-763a371b0a48","4f03f330-5f91-43fc-aa61-d9dda6d26521","","null","<div style=""display: flex; justify-content: center; align-items: center;"">
                <img src=""images/causal/causal_series_17/causal_series_17_a.jpg"" style=""width: 300px; height: 300px;"" />
              </div>","null",""
"","","","","","html-button-response","78","250901","0.0-54.0","51D131577874460C9A2A0A378E420CEB","0047f23a-0161-49e3-890c-763a371b0a48","4f03f330-5f91-43fc-aa61-d9dda6d26521","","673","
    <div style=""display: flex; justify-content: center; align-items: center;"">
      <img src=""images/red_deck_2.png"" style=""width: 300px; height: 300px; margin-right: 10px;"" />
      <img src=""images/blue_deck_1.png"" style=""width: 300px; height: 300px;"" />
    </div>","1","1"
"","","","","","html-keyboard-response","79","253909","0.0-55.0-1.0-0.0","51D131577874460C9A2A0A378E420CEB","0047f23a-0161-49e3-890c-763a371b0a48","4f03f330-5f91-43fc-aa61-d9dda6d26521","","null","<div style=""display: flex; justify-content: center; align-items: center;"">
                <img src=""images/semantic/semantic_series_12/semantic_series_12_d.jpg"" style=""width: 300px; height: 300px;"" />
              </div>","null",""
"","","","","","html-keyboard-response","80","256918","0.0-55.0-1.0-1.0","51D131577874460C9A2A0A378E420CEB","0047f23a-0161-49e3-890c-763a371b0a48","4f03f330-5f91-43fc-aa61-d9dda6d26521","","null","<div style=""display: flex; justify-content: center; align-items: center;"">
                <img src=""images/semantic/semantic_series_13/semantic_series_13_d.jpg"" style=""width: 300px; height: 300px;"" />
              </div>","null",""
"","","","","","html-keyboard-response","81","259924","0.0-55.0-1.0-2.0","51D131577874460C9A2A0A378E420CEB","0047f23a-0161-49e3-890c-763a371b0a48","4f03f330-5f91-43fc-aa61-d9dda6d26521","","null","<div style=""display: flex; justify-content: center; align-items: center;"">
                <img src=""images/semantic/semantic_series_14/semantic_series_14_d.jpg"" style=""width: 300px; height: 300px;"" />
              </div>","null",""
"","","","","","html-keyboard-response","82","262935","0.0-56.0","51D131577874460C9A2A0A378E420CEB","0047f23a-0161-49e3-890c-763a371b0a48","4f03f330-5f91-43fc-aa61-d9dda6d26521","","null","<div style=""display: flex; justify-content: center; align-items: center;"">
                <img src=""images/other/blank.jpg"" style=""width: 300px; height: 300px;"" />
              </div>","null",""
"","","","","","html-keyboard-response","83","265936","0.0-57.0","51D131577874460C9A2A0A378E420CEB","0047f23a-0161-49e3-890c-763a371b0a48","4f03f330-5f91-43fc-aa61-d9dda6d26521","","null","<div style=""display: flex; justify-content: center; align-items: center;"">
                <img src=""images/causal/causal_series_11/causal_series_11_a.jpg"" style=""width: 300px; height: 300px;"" />
              </div>","null",""
"","","","","","html-button-response","84","266822","0.0-58.0","51D131577874460C9A2A0A378E420CEB","0047f23a-0161-49e3-890c-763a371b0a48","4f03f330-5f91-43fc-aa61-d9dda6d26521","","885","
    <div style=""display: flex; justify-content: center; align-items: center;"">
      <img src=""images/red_deck_2.png"" style=""width: 300px; height: 300px; margin-right: 10px;"" />
      <img src=""images/blue_deck_1.png"" style=""width: 300px; height: 300px;"" />
    </div>","1","1"
"","","","","","html-keyboard-response","85","269832","0.0-59.0-1.0-0.0","51D131577874460C9A2A0A378E420CEB","0047f23a-0161-49e3-890c-763a371b0a48","4f03f330-5f91-43fc-aa61-d9dda6d26521","","null","<div style=""display: flex; justify-content: center; align-items: center;"">
                <img src=""images/semantic/semantic_series_12/semantic_series_12_d.jpg"" style=""width: 300px; height: 300px;"" />
              </div>","null",""
"","","","","","html-keyboard-response","86","272839","0.0-59.0-1.0-1.0","51D131577874460C9A2A0A378E420CEB","0047f23a-0161-49e3-890c-763a371b0a48","4f03f330-5f91-43fc-aa61-d9dda6d26521","","null","<div style=""display: flex; justify-content: center; align-items: center;"">
                <img src=""images/semantic/semantic_series_13/semantic_series_13_d.jpg"" style=""width: 300px; height: 300px;"" />
              </div>","null",""
"","","","","","html-keyboard-response","87","275851","0.0-59.0-1.0-2.0","51D131577874460C9A2A0A378E420CEB","0047f23a-0161-49e3-890c-763a371b0a48","4f03f330-5f91-43fc-aa61-d9dda6d26521","","null","<div style=""display: flex; justify-content: center; align-items: center;"">
                <img src=""images/semantic/semantic_series_14/semantic_series_14_d.jpg"" style=""width: 300px; height: 300px;"" />
              </div>","null",""
"","","","","","html-keyboard-response","88","278855","0.0-60.0","51D131577874460C9A2A0A378E420CEB","0047f23a-0161-49e3-890c-763a371b0a48","4f03f330-5f91-43fc-aa61-d9dda6d26521","","null","<div style=""display: flex; justify-content: center; align-items: center;"">
                <img src=""images/other/blank.jpg"" style=""width: 300px; height: 300px;"" />
              </div>","null",""
"","","","","","html-keyboard-response","89","281857","0.0-61.0","51D131577874460C9A2A0A378E420CEB","0047f23a-0161-49e3-890c-763a371b0a48","4f03f330-5f91-43fc-aa61-d9dda6d26521","","null","<div style=""display: flex; justify-content: center; align-items: center;"">
                <img src=""images/causal/causal_series_15/causal_series_15_a.jpg"" style=""width: 300px; height: 300px;"" />
              </div>","null",""
"","","","","","html-button-response","90","283034","0.0-62.0","51D131577874460C9A2A0A378E420CEB","0047f23a-0161-49e3-890c-763a371b0a48","4f03f330-5f91-43fc-aa61-d9dda6d26521","","1177","
    <div style=""display: flex; justify-content: center; align-items: center;"">
      <img src=""images/red_deck_2.png"" style=""width: 300px; height: 300px; margin-right: 10px;"" />
      <img src=""images/blue_deck_1.png"" style=""width: 300px; height: 300px;"" />
    </div>","0","0"
"","","","","","html-keyboard-response","91","286049","0.0-63.0-0.0-0.0","51D131577874460C9A2A0A378E420CEB","0047f23a-0161-49e3-890c-763a371b0a48","4f03f330-5f91-43fc-aa61-d9dda6d26521","","null","<div style=""display: flex; justify-content: center; align-items: center;"">
                <img src=""images/causal/causal_series_15/causal_series_15_b.jpg"" style=""width: 300px; height: 300px;"" />
              </div>","null",""
"","","","","","html-keyboard-response","92","289059","0.0-63.0-0.0-1.0","51D131577874460C9A2A0A378E420CEB","0047f23a-0161-49e3-890c-763a371b0a48","4f03f330-5f91-43fc-aa61-d9dda6d26521","","null","<div style=""display: flex; justify-content: center; align-items: center;"">
                <img src=""images/causal/causal_series_15/causal_series_15_c.jpg"" style=""width: 300px; height: 300px;"" />
              </div>","null",""
"","","","","","html-keyboard-response","93","292075","0.0-63.0-0.0-2.0","51D131577874460C9A2A0A378E420CEB","0047f23a-0161-49e3-890c-763a371b0a48","4f03f330-5f91-43fc-aa61-d9dda6d26521","","null","<div style=""display: flex; justify-content: center; align-items: center;"">
                <img src=""images/causal/causal_series_15/causal_series_15_d.jpg"" style=""width: 300px; height: 300px;"" />
              </div>","null",""
"","","","","","html-keyboard-response","94","295085","0.0-64.0","51D131577874460C9A2A0A378E420CEB","0047f23a-0161-49e3-890c-763a371b0a48","4f03f330-5f91-43fc-aa61-d9dda6d26521","","null","<div style=""display: flex; justify-content: center; align-items: center;"">
                <img src=""images/other/blank.jpg"" style=""width: 300px; height: 300px;"" />
              </div>","null",""
"","","","","","html-keyboard-response","95","298101","0.0-65.0","51D131577874460C9A2A0A378E420CEB","0047f23a-0161-49e3-890c-763a371b0a48","4f03f330-5f91-43fc-aa61-d9dda6d26521","","null","<div style=""display: flex; justify-content: center; align-items: center;"">
                <img src=""images/causal/causal_series_3/causal_series_3_a.jpg"" style=""width: 300px; height: 300px;"" />
              </div>","null",""
"","","","","","html-button-response","96","299334","0.0-66.0","51D131577874460C9A2A0A378E420CEB","0047f23a-0161-49e3-890c-763a371b0a48","4f03f330-5f91-43fc-aa61-d9dda6d26521","","1233","
    <div style=""display: flex; justify-content: center; align-items: center;"">
      <img src=""images/red_deck_2.png"" style=""width: 300px; height: 300px; margin-right: 10px;"" />
      <img src=""images/blue_deck_1.png"" style=""width: 300px; height: 300px;"" />
    </div>","1","1"
"","","","","","html-keyboard-response","97","302337","0.0-67.0-1.0-0.0","51D131577874460C9A2A0A378E420CEB","0047f23a-0161-49e3-890c-763a371b0a48","4f03f330-5f91-43fc-aa61-d9dda6d26521","","null","<div style=""display: flex; justify-content: center; align-items: center;"">
                <img src=""images/semantic/semantic_series_6/semantic_series_6_d.jpg"" style=""width: 300px; height: 300px;"" />
              </div>","null",""
"","","","","","html-keyboard-response","98","305343","0.0-67.0-1.0-1.0","51D131577874460C9A2A0A378E420CEB","0047f23a-0161-49e3-890c-763a371b0a48","4f03f330-5f91-43fc-aa61-d9dda6d26521","","null","<div style=""display: flex; justify-content: center; align-items: center;"">
                <img src=""images/semantic/semantic_series_7/semantic_series_7_d.jpg"" style=""width: 300px; height: 300px;"" />
              </div>","null",""
"","","","","","html-keyboard-response","99","308358","0.0-67.0-1.0-2.0","51D131577874460C9A2A0A378E420CEB","0047f23a-0161-49e3-890c-763a371b0a48","4f03f330-5f91-43fc-aa61-d9dda6d26521","","null","<div style=""display: flex; justify-content: center; align-items: center;"">
                <img src=""images/semantic/semantic_series_8/semantic_series_8_d.jpg"" style=""width: 300px; height: 300px;"" />
              </div>","null",""
"","","","","","html-keyboard-response","100","311373","0.0-68.0","51D131577874460C9A2A0A378E420CEB","0047f23a-0161-49e3-890c-763a371b0a48","4f03f330-5f91-43fc-aa61-d9dda6d26521","","null","<div style=""display: flex; justify-content: center; align-items: center;"">
                <img src=""images/other/blank.jpg"" style=""width: 300px; height: 300px;"" />
              </div>","null",""
"","","","","","html-keyboard-response","101","314387","0.0-69.0","51D131577874460C9A2A0A378E420CEB","0047f23a-0161-49e3-890c-763a371b0a48","4f03f330-5f91-43fc-aa61-d9dda6d26521","","null","<div style=""display: flex; justify-content: center; align-items: center;"">
                <img src=""images/causal/causal_series_8/causal_series_8_a.jpg"" style=""width: 300px; height: 300px;"" />
              </div>","null",""
"","","","","","html-button-response","102","315514","0.0-70.0","51D131577874460C9A2A0A378E420CEB","0047f23a-0161-49e3-890c-763a371b0a48","4f03f330-5f91-43fc-aa61-d9dda6d26521","","1126","
    <div style=""display: flex; justify-content: center; align-items: center;"">
      <img src=""images/red_deck_2.png"" style=""width: 300px; height: 300px; margin-right: 10px;"" />
      <img src=""images/blue_deck_1.png"" style=""width: 300px; height: 300px;"" />
    </div>","0","0"
"","","","","","html-keyboard-response","103","318527","0.0-71.0-0.0-0.0","51D131577874460C9A2A0A378E420CEB","0047f23a-0161-49e3-890c-763a371b0a48","4f03f330-5f91-43fc-aa61-d9dda6d26521","","null","<div style=""display: flex; justify-content: center; align-items: center;"">
                <img src=""images/causal/causal_series_8/causal_series_8_b.jpg"" style=""width: 300px; height: 300px;"" />
              </div>","null",""
"","","","","","html-keyboard-response","104","321533","0.0-71.0-0.0-1.0","51D131577874460C9A2A0A378E420CEB","0047f23a-0161-49e3-890c-763a371b0a48","4f03f330-5f91-43fc-aa61-d9dda6d26521","","null","<div style=""display: flex; justify-content: center; align-items: center;"">
                <img src=""images/causal/causal_series_8/causal_series_8_c.jpg"" style=""width: 300px; height: 300px;"" />
              </div>","null",""
"","","","","","html-keyboard-response","105","324549","0.0-71.0-0.0-2.0","51D131577874460C9A2A0A378E420CEB","0047f23a-0161-49e3-890c-763a371b0a48","4f03f330-5f91-43fc-aa61-d9dda6d26521","","null","<div style=""display: flex; justify-content: center; align-items: center;"">
                <img src=""images/causal/causal_series_8/causal_series_8_d.jpg"" style=""width: 300px; height: 300px;"" />
              </div>","null",""
"","","","","","html-keyboard-response","106","327563","0.0-72.0","51D131577874460C9A2A0A378E420CEB","0047f23a-0161-49e3-890c-763a371b0a48","4f03f330-5f91-43fc-aa61-d9dda6d26521","","null","<div style=""display: flex; justify-content: center; align-items: center;"">
                <img src=""images/other/blank.jpg"" style=""width: 300px; height: 300px;"" />
              </div>","null",""
"","","","","","html-keyboard-response","107","330568","0.0-73.0","51D131577874460C9A2A0A378E420CEB","0047f23a-0161-49e3-890c-763a371b0a48","4f03f330-5f91-43fc-aa61-d9dda6d26521","","null","<div style=""display: flex; justify-content: center; align-items: center;"">
                <img src=""images/causal/causal_series_5/causal_series_5_a.jpg"" style=""width: 300px; height: 300px;"" />
              </div>","null",""
"","","","","","html-button-response","108","332455","0.0-74.0","51D131577874460C9A2A0A378E420CEB","0047f23a-0161-49e3-890c-763a371b0a48","4f03f330-5f91-43fc-aa61-d9dda6d26521","","1887","
    <div style=""display: flex; justify-content: center; align-items: center;"">
      <img src=""images/red_deck_2.png"" style=""width: 300px; height: 300px; margin-right: 10px;"" />
      <img src=""images/blue_deck_1.png"" style=""width: 300px; height: 300px;"" />
    </div>","1","1"
"","","","","","html-keyboard-response","109","335463","0.0-75.0-1.0-0.0","51D131577874460C9A2A0A378E420CEB","0047f23a-0161-49e3-890c-763a371b0a48","4f03f330-5f91-43fc-aa61-d9dda6d26521","","null","<div style=""display: flex; justify-content: center; align-items: center;"">
                <img src=""images/semantic/semantic_series_12/semantic_series_12_d.jpg"" style=""width: 300px; height: 300px;"" />
              </div>","null",""
"","","","","","html-keyboard-response","110","338474","0.0-75.0-1.0-1.0","51D131577874460C9A2A0A378E420CEB","0047f23a-0161-49e3-890c-763a371b0a48","4f03f330-5f91-43fc-aa61-d9dda6d26521","","null","<div style=""display: flex; justify-content: center; align-items: center;"">
                <img src=""images/semantic/semantic_series_13/semantic_series_13_d.jpg"" style=""width: 300px; height: 300px;"" />
              </div>","null",""
"","","","","","html-keyboard-response","111","341477","0.0-75.0-1.0-2.0","51D131577874460C9A2A0A378E420CEB","0047f23a-0161-49e3-890c-763a371b0a48","4f03f330-5f91-43fc-aa61-d9dda6d26521","","null","<div style=""display: flex; justify-content: center; align-items: center;"">
                <img src=""images/semantic/semantic_series_14/semantic_series_14_d.jpg"" style=""width: 300px; height: 300px;"" />
              </div>","null",""
"","","","","","html-keyboard-response","112","344483","0.0-76.0","51D131577874460C9A2A0A378E420CEB","0047f23a-0161-49e3-890c-763a371b0a48","4f03f330-5f91-43fc-aa61-d9dda6d26521","","null","<div style=""display: flex; justify-content: center; align-items: center;"">
                <img src=""images/other/blank.jpg"" style=""width: 300px; height: 300px;"" />
              </div>","null",""
"","","","","","survey-text","113","374976","0.0-77.0","51D131577874460C9A2A0A378E420CEB","0047f23a-0161-49e3-890c-763a371b0a48","4f03f330-5f91-43fc-aa61-d9dda6d26521","","30491","","{""Q0"":""Red continues  the set of pictures, blue is random""}",""
"","","","","","survey-text","114","390961","0.0-78.0","51D131577874460C9A2A0A378E420CEB","0047f23a-0161-49e3-890c-763a371b0a48","4f03f330-5f91-43fc-aa61-d9dda6d26521","","15984","","{""Q0"":""Red""}",""
"","","","","","html-button-response","115","409900","0.0-79.0","51D131577874460C9A2A0A378E420CEB","0047f23a-0161-49e3-890c-763a371b0a48","4f03f330-5f91-43fc-aa61-d9dda6d26521","","18939","Which color deck does the fourth image continue the story from the series?","1",""
"","","","","","html-button-response","116","413085","0.0-80.0","51D131577874460C9A2A0A378E420CEB","0047f23a-0161-49e3-890c-763a371b0a48","4f03f330-5f91-43fc-aa61-d9dda6d26521","","3184","Which color deck does the fourth image not follow the story from the series?","0",""
"","","","","","survey-text","117","419432","0.0-81.0","51D131577874460C9A2A0A378E420CEB","0047f23a-0161-49e3-890c-763a371b0a48","4f03f330-5f91-43fc-aa61-d9dda6d26521","","6345","","{""Q0"":""Female"",""Q1"":""27""}",""
"","","","","","instructions","118","423446","0.0-82.0","51D131577874460C9A2A0A378E420CEB","0047f23a-0161-49e3-890c-763a371b0a48","4f03f330-5f91-43fc-aa61-d9dda6d26521","[{""page_index"":0,""viewing_time"":4014}]","4014","","",""
