"success","timeout","failed_images","failed_audio","failed_video","trial_type","trial_index","time_elapsed","internal_node_id","subject_id","study_id","session_id","view_history","rt","stimulus","response","series","repetition","phase","choice","question_order"
"true","false","[]","[]","[]","preload","0","493","0.0-0.0","8DB8AAE0ADE141ACAA8C487CC311A959","0199d605-67d5-7fe8-89e3-f2ba6ae59dae","0199d5ef-c7d4-7cab-a194-b2c3afbaf8e8","","","","","","","","",""
"","","","","","instructions","1","10987","0.0-1.0","8DB8AAE0ADE141ACAA8C487CC311A959","0199d605-67d5-7fe8-89e3-f2ba6ae59dae","0199d5ef-c7d4-7cab-a194-b2c3afbaf8e8","[{""page_index"":0,""viewing_time"":10492}]","10492","","","","","","",""
"","","","","","instructions","2","19066","0.0-2.0","8DB8AAE0ADE141ACAA8C487CC311A959","0199d605-67d5-7fe8-89e3-f2ba6ae59dae","0199d5ef-c7d4-7cab-a194-b2c3afbaf8e8","[{""page_index"":0,""viewing_time"":8079}]","8079","","","","","","",""
"true","","","","","fullscreen","3","25882","0.0-3.0","8DB8AAE0ADE141ACAA8C487CC311A959","0199d605-67d5-7fe8-89e3-f2ba6ae59dae","0199d5ef-c7d4-7cab-a194-b2c3afbaf8e8","","5648","","","","","","",""
"","","","","","instructions","4","53810","0.0-4.0","8DB8AAE0ADE141ACAA8C487CC311A959","0199d605-67d5-7fe8-89e3-f2ba6ae59dae","0199d5ef-c7d4-7cab-a194-b2c3afbaf8e8","[{""page_index"":0,""viewing_time"":27926}]","27927","","","","","","",""
"","","","","","html-keyboard-response","5","60946","0.0-5.0","8DB8AAE0ADE141ACAA8C487CC311A959","0199d605-67d5-7fe8-89e3-f2ba6ae59dae","0199d5ef-c7d4-7cab-a194-b2c3afbaf8e8","","null","<div style=""display: flex; justify-content: center; align-items: center;"">
                     <img src=""images/causal/causal_series_7/causal_series_7_a.png"" style=""width: 300px; height: 300px;"" />
                   </div>","null","7","1","A","",""
"","","","","","html-keyboard-response","6","66963","0.0-6.0","8DB8AAE0ADE141ACAA8C487CC311A959","0199d605-67d5-7fe8-89e3-f2ba6ae59dae","0199d5ef-c7d4-7cab-a194-b2c3afbaf8e8","","null","<div style=""display: flex; justify-content: center; align-items: center;"">
                     <img src=""images/causal/causal_series_7/causal_series_7_b.png"" style=""width: 300px; height: 300px;"" />
                   </div>","null","7","1","B","",""
"","","","","","html-keyboard-response","7","72971","0.0-7.0","8DB8AAE0ADE141ACAA8C487CC311A959","0199d605-67d5-7fe8-89e3-f2ba6ae59dae","0199d5ef-c7d4-7cab-a194-b2c3afbaf8e8","","null","<div style=""display: flex; justify-content: center; align-items: center;"">
                     <img src=""images/causal/causal_series_7/causal_series_7_c.png"" style=""width: 300px; height: 300px;"" />
                   </div>","null","7","1","C","",""
"","","","","","html-button-response","8","76555","0.0-8.0","8DB8AAE0ADE141ACAA8C487CC311A959","0199d605-67d5-7fe8-89e3-f2ba6ae59dae","0199d5ef-c7d4-7cab-a194-b2c3afbaf8e8","","3580","
        <div style=""display: flex; justify-content: center; align-items: center;"">
          <img src=""images/red_deck_2.png"" style=""width: 300px; height: 300px; margin-right: 10px;"" />
          <img src=""images/blue_deck_1.png"" style=""width: 300px; height: 300px;"" />
        </div>","1","7","1","choice","1",""
"","","","","","html-keyboard-response","9","82564","0.0-9.0-1.0-0.0","8DB8AAE0ADE141ACAA8C487CC311A959","0199d605-67d5-7fe8-89e3-f2ba6ae59dae","0199d5ef-c7d4-7cab-a194-b2c3afbaf8e8","","null","<div style=""display: flex; justify-content: center; align-items: center;"">
                     <img src=""images/semantic/semantic_series_7/semantic_series_7_d.png"" style=""width: 300px; height: 300px;"" />
                   </div>","null","7","1","D","",""
"","","","","","html-keyboard-response","10","88574","0.0-9.0-1.0-1.0","8DB8AAE0ADE141ACAA8C487CC311A959","0199d605-67d5-7fe8-89e3-f2ba6ae59dae","0199d5ef-c7d4-7cab-a194-b2c3afbaf8e8","","null","<div style=""display: flex; justify-content: center; align-items: center;"">
                     <img src=""images/semantic/semantic_series_7/semantic_series_7_e.png"" style=""width: 300px; height: 300px;"" />
                   </div>","null","7","1","E","",""
"","","","","","html-keyboard-response","11","94579","0.0-9.0-1.0-2.0","8DB8AAE0ADE141ACAA8C487CC311A959","0199d605-67d5-7fe8-89e3-f2ba6ae59dae","0199d5ef-c7d4-7cab-a194-b2c3afbaf8e8","","null","<div style=""display: flex; justify-content: center; align-items: center;"">
                     <img src=""images/semantic/semantic_series_7/semantic_series_7_f.png"" style=""width: 300px; height: 300px;"" />
                   </div>","null","7","1","F","",""
"","","","","","survey-likert","12","99435","0.0-10.0","8DB8AAE0ADE141ACAA8C487CC311A959","0199d605-67d5-7fe8-89e3-f2ba6ae59dae","0199d5ef-c7d4-7cab-a194-b2c3afbaf8e8","","4832","","{""Q0"":2}","7","1","surprise_rating","","[0]"
"","","","","","survey-likert","13","102515","0.0-11.0","8DB8AAE0ADE141ACAA8C487CC311A959","0199d605-67d5-7fe8-89e3-f2ba6ae59dae","0199d5ef-c7d4-7cab-a194-b2c3afbaf8e8","","3078","","{""Q0"":0}","7","1","enjoyment_rating","","[0]"
"","","","","","html-keyboard-response","14","108527","0.0-12.0","8DB8AAE0ADE141ACAA8C487CC311A959","0199d605-67d5-7fe8-89e3-f2ba6ae59dae","0199d5ef-c7d4-7cab-a194-b2c3afbaf8e8","","null","<div style=""display: flex; justify-content: center; align-items: center;"">
                     <img src=""images/other/blank.png"" style=""width: 300px; height: 300px;"" />
                   </div>","null","0","0","blank","",""
"","","","","","html-keyboard-response","15","114532","0.0-13.0","8DB8AAE0ADE141ACAA8C487CC311A959","0199d605-67d5-7fe8-89e3-f2ba6ae59dae","0199d5ef-c7d4-7cab-a194-b2c3afbaf8e8","","null","<div style=""display: flex; justify-content: center; align-items: center;"">
                     <img src=""images/causal/causal_series_5/causal_series_5_a.png"" style=""width: 300px; height: 300px;"" />
                   </div>","null","5","2","A","",""
"","","","","","html-keyboard-response","16","120536","0.0-14.0","8DB8AAE0ADE141ACAA8C487CC311A959","0199d605-67d5-7fe8-89e3-f2ba6ae59dae","0199d5ef-c7d4-7cab-a194-b2c3afbaf8e8","","null","<div style=""display: flex; justify-content: center; align-items: center;"">
                     <img src=""images/causal/causal_series_5/causal_series_5_b.png"" style=""width: 300px; height: 300px;"" />
                   </div>","null","5","2","B","",""
"","","","","","html-keyboard-response","17","126551","0.0-15.0","8DB8AAE0ADE141ACAA8C487CC311A959","0199d605-67d5-7fe8-89e3-f2ba6ae59dae","0199d5ef-c7d4-7cab-a194-b2c3afbaf8e8","","null","<div style=""display: flex; justify-content: center; align-items: center;"">
                     <img src=""images/causal/causal_series_5/causal_series_5_c.png"" style=""width: 300px; height: 300px;"" />
                   </div>","null","5","2","C","",""
"","","","","","html-button-response","18","128650","0.0-16.0","8DB8AAE0ADE141ACAA8C487CC311A959","0199d605-67d5-7fe8-89e3-f2ba6ae59dae","0199d5ef-c7d4-7cab-a194-b2c3afbaf8e8","","2096","
        <div style=""display: flex; justify-content: center; align-items: center;"">
          <img src=""images/red_deck_2.png"" style=""width: 300px; height: 300px; margin-right: 10px;"" />
          <img src=""images/blue_deck_1.png"" style=""width: 300px; height: 300px;"" />
        </div>","1","5","2","choice","1",""
"","","","","","html-keyboard-response","19","134661","0.0-17.0-1.0-0.0","8DB8AAE0ADE141ACAA8C487CC311A959","0199d605-67d5-7fe8-89e3-f2ba6ae59dae","0199d5ef-c7d4-7cab-a194-b2c3afbaf8e8","","null","<div style=""display: flex; justify-content: center; align-items: center;"">
                     <img src=""images/semantic/semantic_series_5/semantic_series_5_d.png"" style=""width: 300px; height: 300px;"" />
                   </div>","null","5","2","D","",""
"","","","","","html-keyboard-response","20","140669","0.0-17.0-1.0-1.0","8DB8AAE0ADE141ACAA8C487CC311A959","0199d605-67d5-7fe8-89e3-f2ba6ae59dae","0199d5ef-c7d4-7cab-a194-b2c3afbaf8e8","","null","<div style=""display: flex; justify-content: center; align-items: center;"">
                     <img src=""images/semantic/semantic_series_5/semantic_series_5_e.png"" style=""width: 300px; height: 300px;"" />
                   </div>","null","5","2","E","",""
"","","","","","html-keyboard-response","21","146685","0.0-17.0-1.0-2.0","8DB8AAE0ADE141ACAA8C487CC311A959","0199d605-67d5-7fe8-89e3-f2ba6ae59dae","0199d5ef-c7d4-7cab-a194-b2c3afbaf8e8","","null","<div style=""display: flex; justify-content: center; align-items: center;"">
                     <img src=""images/semantic/semantic_series_5/semantic_series_5_f.png"" style=""width: 300px; height: 300px;"" />
                   </div>","null","5","2","F","",""
"","","","","","survey-likert","22","189941","0.0-18.0","8DB8AAE0ADE141ACAA8C487CC311A959","0199d605-67d5-7fe8-89e3-f2ba6ae59dae","0199d5ef-c7d4-7cab-a194-b2c3afbaf8e8","","43254","","{""Q0"":2}","5","2","surprise_rating","","[0]"
"","","","","","survey-likert","23","663795","0.0-19.0","8DB8AAE0ADE141ACAA8C487CC311A959","0199d605-67d5-7fe8-89e3-f2ba6ae59dae","0199d5ef-c7d4-7cab-a194-b2c3afbaf8e8","","473850","","{""Q0"":1}","5","2","enjoyment_rating","","[0]"
"","","","","","html-keyboard-response","24","669805","0.0-20.0","8DB8AAE0ADE141ACAA8C487CC311A959","0199d605-67d5-7fe8-89e3-f2ba6ae59dae","0199d5ef-c7d4-7cab-a194-b2c3afbaf8e8","","null","<div style=""display: flex; justify-content: center; align-items: center;"">
                     <img src=""images/other/blank.png"" style=""width: 300px; height: 300px;"" />
                   </div>","null","0","0","blank","",""
"","","","","","html-keyboard-response","25","675814","0.0-21.0","8DB8AAE0ADE141ACAA8C487CC311A959","0199d605-67d5-7fe8-89e3-f2ba6ae59dae","0199d5ef-c7d4-7cab-a194-b2c3afbaf8e8","","null","<div style=""display: flex; justify-content: center; align-items: center;"">
                     <img src=""images/causal/causal_series_10/causal_series_10_a.png"" style=""width: 300px; height: 300px;"" />
                   </div>","null","10","1","A","",""
"","","","","","html-keyboard-response","26","681823","0.0-22.0","8DB8AAE0ADE141ACAA8C487CC311A959","0199d605-67d5-7fe8-89e3-f2ba6ae59dae","0199d5ef-c7d4-7cab-a194-b2c3afbaf8e8","","null","<div style=""display: flex; justify-content: center; align-items: center;"">
                     <img src=""images/causal/causal_series_10/causal_series_10_b.png"" style=""width: 300px; height: 300px;"" />
                   </div>","null","10","1","B","",""
"","","","","","html-keyboard-response","27","687838","0.0-23.0","8DB8AAE0ADE141ACAA8C487CC311A959","0199d605-67d5-7fe8-89e3-f2ba6ae59dae","0199d5ef-c7d4-7cab-a194-b2c3afbaf8e8","","null","<div style=""display: flex; justify-content: center; align-items: center;"">
                     <img src=""images/causal/causal_series_10/causal_series_10_c.png"" style=""width: 300px; height: 300px;"" />
                   </div>","null","10","1","C","",""
"","","","","","html-button-response","28","689821","0.0-24.0","8DB8AAE0ADE141ACAA8C487CC311A959","0199d605-67d5-7fe8-89e3-f2ba6ae59dae","0199d5ef-c7d4-7cab-a194-b2c3afbaf8e8","","1981","
        <div style=""display: flex; justify-content: center; align-items: center;"">
          <img src=""images/red_deck_2.png"" style=""width: 300px; height: 300px; margin-right: 10px;"" />
          <img src=""images/blue_deck_1.png"" style=""width: 300px; height: 300px;"" />
        </div>","0","10","1","choice","0",""
"","","","","","html-keyboard-response","29","695831","0.0-25.0-0.0-0.0","8DB8AAE0ADE141ACAA8C487CC311A959","0199d605-67d5-7fe8-89e3-f2ba6ae59dae","0199d5ef-c7d4-7cab-a194-b2c3afbaf8e8","","null","<div style=""display: flex; justify-content: center; align-items: center;"">
                     <img src=""images/causal/causal_series_10/causal_series_10_d.png"" style=""width: 300px; height: 300px;"" />
                   </div>","null","10","1","D","",""
"","","","","","html-keyboard-response","30","701839","0.0-25.0-0.0-1.0","8DB8AAE0ADE141ACAA8C487CC311A959","0199d605-67d5-7fe8-89e3-f2ba6ae59dae","0199d5ef-c7d4-7cab-a194-b2c3afbaf8e8","","null","<div style=""display: flex; justify-content: center; align-items: center;"">
                     <img src=""images/causal/causal_series_10/causal_series_10_e.png"" style=""width: 300px; height: 300px;"" />
                   </div>","null","10","1","E","",""
"","","","","","html-keyboard-response","31","707850","0.0-25.0-0.0-2.0","8DB8AAE0ADE141ACAA8C487CC311A959","0199d605-67d5-7fe8-89e3-f2ba6ae59dae","0199d5ef-c7d4-7cab-a194-b2c3afbaf8e8","","null","<div style=""display: flex; justify-content: center; align-items: center;"">
                     <img src=""images/causal/causal_series_10/causal_series_10_f.png"" style=""width: 300px; height: 300px;"" />
                   </div>","null","10","1","F","",""
"","","","","","survey-likert","32","726522","0.0-26.0","8DB8AAE0ADE141ACAA8C487CC311A959","0199d605-67d5-7fe8-89e3-f2ba6ae59dae","0199d5ef-c7d4-7cab-a194-b2c3afbaf8e8","","18669","","{""Q0"":3}","10","1","surprise_rating","","[0]"
"","","","","","survey-likert","33","738556","0.0-27.0","8DB8AAE0ADE141ACAA8C487CC311A959","0199d605-67d5-7fe8-89e3-f2ba6ae59dae","0199d5ef-c7d4-7cab-a194-b2c3afbaf8e8","","12030","","{""Q0"":3}","10","1","enjoyment_rating","","[0]"
"","","","","","html-keyboard-response","34","744570","0.0-28.0","8DB8AAE0ADE141ACAA8C487CC311A959","0199d605-67d5-7fe8-89e3-f2ba6ae59dae","0199d5ef-c7d4-7cab-a194-b2c3afbaf8e8","","null","<div style=""display: flex; justify-content: center; align-items: center;"">
                     <img src=""images/other/blank.png"" style=""width: 300px; height: 300px;"" />
                   </div>","null","0","0","blank","",""
"","","","","","html-keyboard-response","35","750576","0.0-29.0","8DB8AAE0ADE141ACAA8C487CC311A959","0199d605-67d5-7fe8-89e3-f2ba6ae59dae","0199d5ef-c7d4-7cab-a194-b2c3afbaf8e8","","null","<div style=""display: flex; justify-content: center; align-items: center;"">
                     <img src=""images/causal/causal_series_6/causal_series_6_a.png"" style=""width: 300px; height: 300px;"" />
                   </div>","null","6","1","A","",""
"","","","","","html-keyboard-response","36","756587","0.0-30.0","8DB8AAE0ADE141ACAA8C487CC311A959","0199d605-67d5-7fe8-89e3-f2ba6ae59dae","0199d5ef-c7d4-7cab-a194-b2c3afbaf8e8","","null","<div style=""display: flex; justify-content: center; align-items: center;"">
                     <img src=""images/causal/causal_series_6/causal_series_6_b.png"" style=""width: 300px; height: 300px;"" />
                   </div>","null","6","1","B","",""
"","","","","","html-keyboard-response","37","762596","0.0-31.0","8DB8AAE0ADE141ACAA8C487CC311A959","0199d605-67d5-7fe8-89e3-f2ba6ae59dae","0199d5ef-c7d4-7cab-a194-b2c3afbaf8e8","","null","<div style=""display: flex; justify-content: center; align-items: center;"">
                     <img src=""images/causal/causal_series_6/causal_series_6_c.png"" style=""width: 300px; height: 300px;"" />
                   </div>","null","6","1","C","",""
"","","","","","html-button-response","38","766635","0.0-32.0","8DB8AAE0ADE141ACAA8C487CC311A959","0199d605-67d5-7fe8-89e3-f2ba6ae59dae","0199d5ef-c7d4-7cab-a194-b2c3afbaf8e8","","4036","
        <div style=""display: flex; justify-content: center; align-items: center;"">
          <img src=""images/red_deck_2.png"" style=""width: 300px; height: 300px; margin-right: 10px;"" />
          <img src=""images/blue_deck_1.png"" style=""width: 300px; height: 300px;"" />
        </div>","0","6","1","choice","0",""
"","","","","","html-keyboard-response","39","772651","0.0-33.0-0.0-0.0","8DB8AAE0ADE141ACAA8C487CC311A959","0199d605-67d5-7fe8-89e3-f2ba6ae59dae","0199d5ef-c7d4-7cab-a194-b2c3afbaf8e8","","null","<div style=""display: flex; justify-content: center; align-items: center;"">
                     <img src=""images/causal/causal_series_6/causal_series_6_d.png"" style=""width: 300px; height: 300px;"" />
                   </div>","null","6","1","D","",""
"","","","","","html-keyboard-response","40","778660","0.0-33.0-0.0-1.0","8DB8AAE0ADE141ACAA8C487CC311A959","0199d605-67d5-7fe8-89e3-f2ba6ae59dae","0199d5ef-c7d4-7cab-a194-b2c3afbaf8e8","","null","<div style=""display: flex; justify-content: center; align-items: center;"">
                     <img src=""images/causal/causal_series_6/causal_series_6_e.png"" style=""width: 300px; height: 300px;"" />
                   </div>","null","6","1","E","",""
"","","","","","html-keyboard-response","41","784678","0.0-33.0-0.0-2.0","8DB8AAE0ADE141ACAA8C487CC311A959","0199d605-67d5-7fe8-89e3-f2ba6ae59dae","0199d5ef-c7d4-7cab-a194-b2c3afbaf8e8","","null","<div style=""display: flex; justify-content: center; align-items: center;"">
                     <img src=""images/causal/causal_series_6/causal_series_6_f.png"" style=""width: 300px; height: 300px;"" />
                   </div>","null","6","1","F","",""
"","","","","","survey-likert","42","795988","0.0-34.0","8DB8AAE0ADE141ACAA8C487CC311A959","0199d605-67d5-7fe8-89e3-f2ba6ae59dae","0199d5ef-c7d4-7cab-a194-b2c3afbaf8e8","","11308","","{""Q0"":3}","6","1","surprise_rating","","[0]"
"","","","","","survey-likert","43","800132","0.0-35.0","8DB8AAE0ADE141ACAA8C487CC311A959","0199d605-67d5-7fe8-89e3-f2ba6ae59dae","0199d5ef-c7d4-7cab-a194-b2c3afbaf8e8","","4140","","{""Q0"":1}","6","1","enjoyment_rating","","[0]"
"","","","","","html-keyboard-response","44","806149","0.0-36.0","8DB8AAE0ADE141ACAA8C487CC311A959","0199d605-67d5-7fe8-89e3-f2ba6ae59dae","0199d5ef-c7d4-7cab-a194-b2c3afbaf8e8","","null","<div style=""display: flex; justify-content: center; align-items: center;"">
                     <img src=""images/other/blank.png"" style=""width: 300px; height: 300px;"" />
                   </div>","null","0","0","blank","",""
"","","","","","html-keyboard-response","45","812156","0.0-37.0","8DB8AAE0ADE141ACAA8C487CC311A959","0199d605-67d5-7fe8-89e3-f2ba6ae59dae","0199d5ef-c7d4-7cab-a194-b2c3afbaf8e8","","null","<div style=""display: flex; justify-content: center; align-items: center;"">
                     <img src=""images/causal/causal_series_4/causal_series_4_a.png"" style=""width: 300px; height: 300px;"" />
                   </div>","null","4","2","A","",""
"","","","","","html-keyboard-response","46","818170","0.0-38.0","8DB8AAE0ADE141ACAA8C487CC311A959","0199d605-67d5-7fe8-89e3-f2ba6ae59dae","0199d5ef-c7d4-7cab-a194-b2c3afbaf8e8","","null","<div style=""display: flex; justify-content: center; align-items: center;"">
                     <img src=""images/causal/causal_series_4/causal_series_4_b.png"" style=""width: 300px; height: 300px;"" />
                   </div>","null","4","2","B","",""
"","","","","","html-keyboard-response","47","824185","0.0-39.0","8DB8AAE0ADE141ACAA8C487CC311A959","0199d605-67d5-7fe8-89e3-f2ba6ae59dae","0199d5ef-c7d4-7cab-a194-b2c3afbaf8e8","","null","<div style=""display: flex; justify-content: center; align-items: center;"">
                     <img src=""images/causal/causal_series_4/causal_series_4_c.png"" style=""width: 300px; height: 300px;"" />
                   </div>","null","4","2","C","",""
"","","","","","html-button-response","48","839608","0.0-40.0","8DB8AAE0ADE141ACAA8C487CC311A959","0199d605-67d5-7fe8-89e3-f2ba6ae59dae","0199d5ef-c7d4-7cab-a194-b2c3afbaf8e8","","15419","
        <div style=""display: flex; justify-content: center; align-items: center;"">
          <img src=""images/red_deck_2.png"" style=""width: 300px; height: 300px; margin-right: 10px;"" />
          <img src=""images/blue_deck_1.png"" style=""width: 300px; height: 300px;"" />
        </div>","0","4","2","choice","0",""
"","","","","","html-keyboard-response","49","845623","0.0-41.0-0.0-0.0","8DB8AAE0ADE141ACAA8C487CC311A959","0199d605-67d5-7fe8-89e3-f2ba6ae59dae","0199d5ef-c7d4-7cab-a194-b2c3afbaf8e8","","null","<div style=""display: flex; justify-content: center; align-items: center;"">
                     <img src=""images/causal/causal_series_4/causal_series_4_d.png"" style=""width: 300px; height: 300px;"" />
                   </div>","null","4","2","D","",""
"","","","","","html-keyboard-response","50","851639","0.0-41.0-0.0-1.0","8DB8AAE0ADE141ACAA8C487CC311A959","0199d605-67d5-7fe8-89e3-f2ba6ae59dae","0199d5ef-c7d4-7cab-a194-b2c3afbaf8e8","","null","<div style=""display: flex; justify-content: center; align-items: center;"">
                     <img src=""images/causal/causal_series_4/causal_series_4_e.png"" style=""width: 300px; height: 300px;"" />
                   </div>","null","4","2","E","",""
"","","","","","html-keyboard-response","51","857655","0.0-41.0-0.0-2.0","8DB8AAE0ADE141ACAA8C487CC311A959","0199d605-67d5-7fe8-89e3-f2ba6ae59dae","0199d5ef-c7d4-7cab-a194-b2c3afbaf8e8","","null","<div style=""display: flex; justify-content: center; align-items: center;"">
                     <img src=""images/causal/causal_series_4/causal_series_4_f.png"" style=""width: 300px; height: 300px;"" />
                   </div>","null","4","2","F","",""
"","","","","","survey-likert","52","861354","0.0-42.0","8DB8AAE0ADE141ACAA8C487CC311A959","0199d605-67d5-7fe8-89e3-f2ba6ae59dae","0199d5ef-c7d4-7cab-a194-b2c3afbaf8e8","","3697","","{""Q0"":3}","4","2","surprise_rating","","[0]"
"","","","","","survey-likert","53","863537","0.0-43.0","8DB8AAE0ADE141ACAA8C487CC311A959","0199d605-67d5-7fe8-89e3-f2ba6ae59dae","0199d5ef-c7d4-7cab-a194-b2c3afbaf8e8","","2179","","{""Q0"":2}","4","2","enjoyment_rating","","[0]"
"","","","","","html-keyboard-response","54","869544","0.0-44.0","8DB8AAE0ADE141ACAA8C487CC311A959","0199d605-67d5-7fe8-89e3-f2ba6ae59dae","0199d5ef-c7d4-7cab-a194-b2c3afbaf8e8","","null","<div style=""display: flex; justify-content: center; align-items: center;"">
                     <img src=""images/other/blank.png"" style=""width: 300px; height: 300px;"" />
                   </div>","null","0","0","blank","",""
"","","","","","html-keyboard-response","55","875560","0.0-45.0","8DB8AAE0ADE141ACAA8C487CC311A959","0199d605-67d5-7fe8-89e3-f2ba6ae59dae","0199d5ef-c7d4-7cab-a194-b2c3afbaf8e8","","null","<div style=""display: flex; justify-content: center; align-items: center;"">
                     <img src=""images/causal/causal_series_2/causal_series_2_a.png"" style=""width: 300px; height: 300px;"" />
                   </div>","null","2","2","A","",""
"","","","","","html-keyboard-response","56","881564","0.0-46.0","8DB8AAE0ADE141ACAA8C487CC311A959","0199d605-67d5-7fe8-89e3-f2ba6ae59dae","0199d5ef-c7d4-7cab-a194-b2c3afbaf8e8","","null","<div style=""display: flex; justify-content: center; align-items: center;"">
                     <img src=""images/causal/causal_series_2/causal_series_2_b.png"" style=""width: 300px; height: 300px;"" />
                   </div>","null","2","2","B","",""
"","","","","","html-keyboard-response","57","887574","0.0-47.0","8DB8AAE0ADE141ACAA8C487CC311A959","0199d605-67d5-7fe8-89e3-f2ba6ae59dae","0199d5ef-c7d4-7cab-a194-b2c3afbaf8e8","","null","<div style=""display: flex; justify-content: center; align-items: center;"">
                     <img src=""images/causal/causal_series_2/causal_series_2_c.png"" style=""width: 300px; height: 300px;"" />
                   </div>","null","2","2","C","",""
"","","","","","html-button-response","58","1087762","0.0-48.0","8DB8AAE0ADE141ACAA8C487CC311A959","0199d605-67d5-7fe8-89e3-f2ba6ae59dae","0199d5ef-c7d4-7cab-a194-b2c3afbaf8e8","","200186","
        <div style=""display: flex; justify-content: center; align-items: center;"">
          <img src=""images/red_deck_2.png"" style=""width: 300px; height: 300px; margin-right: 10px;"" />
          <img src=""images/blue_deck_1.png"" style=""width: 300px; height: 300px;"" />
        </div>","1","2","2","choice","1",""
"","","","","","html-keyboard-response","59","1093779","0.0-49.0-1.0-0.0","8DB8AAE0ADE141ACAA8C487CC311A959","0199d605-67d5-7fe8-89e3-f2ba6ae59dae","0199d5ef-c7d4-7cab-a194-b2c3afbaf8e8","","null","<div style=""display: flex; justify-content: center; align-items: center;"">
                     <img src=""images/semantic/semantic_series_2/semantic_series_2_d.png"" style=""width: 300px; height: 300px;"" />
                   </div>","null","2","2","D","",""
"","","","","","html-keyboard-response","60","1099787","0.0-49.0-1.0-1.0","8DB8AAE0ADE141ACAA8C487CC311A959","0199d605-67d5-7fe8-89e3-f2ba6ae59dae","0199d5ef-c7d4-7cab-a194-b2c3afbaf8e8","","null","<div style=""display: flex; justify-content: center; align-items: center;"">
                     <img src=""images/semantic/semantic_series_2/semantic_series_2_e.png"" style=""width: 300px; height: 300px;"" />
                   </div>","null","2","2","E","",""
"","","","","","html-keyboard-response","61","1105792","0.0-49.0-1.0-2.0","8DB8AAE0ADE141ACAA8C487CC311A959","0199d605-67d5-7fe8-89e3-f2ba6ae59dae","0199d5ef-c7d4-7cab-a194-b2c3afbaf8e8","","null","<div style=""display: flex; justify-content: center; align-items: center;"">
                     <img src=""images/semantic/semantic_series_2/semantic_series_2_f.png"" style=""width: 300px; height: 300px;"" />
                   </div>","null","2","2","F","",""
"","","","","","survey-likert","62","1111013","0.0-50.0","8DB8AAE0ADE141ACAA8C487CC311A959","0199d605-67d5-7fe8-89e3-f2ba6ae59dae","0199d5ef-c7d4-7cab-a194-b2c3afbaf8e8","","5219","","{""Q0"":1}","2","2","surprise_rating","","[0]"
"","","","","","survey-likert","63","1113771","0.0-51.0","8DB8AAE0ADE141ACAA8C487CC311A959","0199d605-67d5-7fe8-89e3-f2ba6ae59dae","0199d5ef-c7d4-7cab-a194-b2c3afbaf8e8","","2755","","{""Q0"":1}","2","2","enjoyment_rating","","[0]"
"","","","","","html-keyboard-response","64","1119786","0.0-52.0","8DB8AAE0ADE141ACAA8C487CC311A959","0199d605-67d5-7fe8-89e3-f2ba6ae59dae","0199d5ef-c7d4-7cab-a194-b2c3afbaf8e8","","null","<div style=""display: flex; justify-content: center; align-items: center;"">
                     <img src=""images/other/blank.png"" style=""width: 300px; height: 300px;"" />
                   </div>","null","0","0","blank","",""
"","","","","","html-keyboard-response","65","1125791","0.0-53.0","8DB8AAE0ADE141ACAA8C487CC311A959","0199d605-67d5-7fe8-89e3-f2ba6ae59dae","0199d5ef-c7d4-7cab-a194-b2c3afbaf8e8","","null","<div style=""display: flex; justify-content: center; align-items: center;"">
                     <img src=""images/causal/causal_series_3/causal_series_3_a.png"" style=""width: 300px; height: 300px;"" />
                   </div>","null","3","2","A","",""
"","","","","","html-keyboard-response","66","1131795","0.0-54.0","8DB8AAE0ADE141ACAA8C487CC311A959","0199d605-67d5-7fe8-89e3-f2ba6ae59dae","0199d5ef-c7d4-7cab-a194-b2c3afbaf8e8","","null","<div style=""display: flex; justify-content: center; align-items: center;"">
                     <img src=""images/causal/causal_series_3/causal_series_3_b.png"" style=""width: 300px; height: 300px;"" />
                   </div>","null","3","2","B","",""
"","","","","","html-keyboard-response","67","1137807","0.0-55.0","8DB8AAE0ADE141ACAA8C487CC311A959","0199d605-67d5-7fe8-89e3-f2ba6ae59dae","0199d5ef-c7d4-7cab-a194-b2c3afbaf8e8","","null","<div style=""display: flex; justify-content: center; align-items: center;"">
                     <img src=""images/causal/causal_series_3/causal_series_3_c.png"" style=""width: 300px; height: 300px;"" />
                   </div>","null","3","2","C","",""
"","","","","","html-button-response","68","1543733","0.0-56.0","8DB8AAE0ADE141ACAA8C487CC311A959","0199d605-67d5-7fe8-89e3-f2ba6ae59dae","0199d5ef-c7d4-7cab-a194-b2c3afbaf8e8","","405923","
        <div style=""display: flex; justify-content: center; align-items: center;"">
          <img src=""images/red_deck_2.png"" style=""width: 300px; height: 300px; margin-right: 10px;"" />
          <img src=""images/blue_deck_1.png"" style=""width: 300px; height: 300px;"" />
        </div>","1","3","2","choice","1",""
"","","","","","html-keyboard-response","69","1549749","0.0-57.0-1.0-0.0","8DB8AAE0ADE141ACAA8C487CC311A959","0199d605-67d5-7fe8-89e3-f2ba6ae59dae","0199d5ef-c7d4-7cab-a194-b2c3afbaf8e8","","null","<div style=""display: flex; justify-content: center; align-items: center;"">
                     <img src=""images/semantic/semantic_series_3/semantic_series_3_d.png"" style=""width: 300px; height: 300px;"" />
                   </div>","null","3","2","D","",""
"","","","","","html-keyboard-response","70","1555765","0.0-57.0-1.0-1.0","8DB8AAE0ADE141ACAA8C487CC311A959","0199d605-67d5-7fe8-89e3-f2ba6ae59dae","0199d5ef-c7d4-7cab-a194-b2c3afbaf8e8","","null","<div style=""display: flex; justify-content: center; align-items: center;"">
                     <img src=""images/semantic/semantic_series_3/semantic_series_3_e.png"" style=""width: 300px; height: 300px;"" />
                   </div>","null","3","2","E","",""
"","","","","","html-keyboard-response","71","1561768","0.0-57.0-1.0-2.0","8DB8AAE0ADE141ACAA8C487CC311A959","0199d605-67d5-7fe8-89e3-f2ba6ae59dae","0199d5ef-c7d4-7cab-a194-b2c3afbaf8e8","","null","<div style=""display: flex; justify-content: center; align-items: center;"">
                     <img src=""images/semantic/semantic_series_3/semantic_series_3_f.png"" style=""width: 300px; height: 300px;"" />
                   </div>","null","3","2","F","",""
"","","","","","survey-likert","72","1567537","0.0-58.0","8DB8AAE0ADE141ACAA8C487CC311A959","0199d605-67d5-7fe8-89e3-f2ba6ae59dae","0199d5ef-c7d4-7cab-a194-b2c3afbaf8e8","","5766","","{""Q0"":2}","3","2","surprise_rating","","[0]"
"","","","","","survey-likert","73","1570415","0.0-59.0","8DB8AAE0ADE141ACAA8C487CC311A959","0199d605-67d5-7fe8-89e3-f2ba6ae59dae","0199d5ef-c7d4-7cab-a194-b2c3afbaf8e8","","2875","","{""Q0"":0}","3","2","enjoyment_rating","","[0]"
"","","","","","html-keyboard-response","74","1576430","0.0-60.0","8DB8AAE0ADE141ACAA8C487CC311A959","0199d605-67d5-7fe8-89e3-f2ba6ae59dae","0199d5ef-c7d4-7cab-a194-b2c3afbaf8e8","","null","<div style=""display: flex; justify-content: center; align-items: center;"">
                     <img src=""images/other/blank.png"" style=""width: 300px; height: 300px;"" />
                   </div>","null","0","0","blank","",""
"","","","","","html-keyboard-response","75","1582447","0.0-61.0","8DB8AAE0ADE141ACAA8C487CC311A959","0199d605-67d5-7fe8-89e3-f2ba6ae59dae","0199d5ef-c7d4-7cab-a194-b2c3afbaf8e8","","null","<div style=""display: flex; justify-content: center; align-items: center;"">
                     <img src=""images/causal/causal_series_1/causal_series_1_a.png"" style=""width: 300px; height: 300px;"" />
                   </div>","null","1","2","A","",""
"","","","","","html-keyboard-response","76","1588457","0.0-62.0","8DB8AAE0ADE141ACAA8C487CC311A959","0199d605-67d5-7fe8-89e3-f2ba6ae59dae","0199d5ef-c7d4-7cab-a194-b2c3afbaf8e8","","null","<div style=""display: flex; justify-content: center; align-items: center;"">
                     <img src=""images/causal/causal_series_1/causal_series_1_b.png"" style=""width: 300px; height: 300px;"" />
                   </div>","null","1","2","B","",""
"","","","","","html-keyboard-response","77","1594473","0.0-63.0","8DB8AAE0ADE141ACAA8C487CC311A959","0199d605-67d5-7fe8-89e3-f2ba6ae59dae","0199d5ef-c7d4-7cab-a194-b2c3afbaf8e8","","null","<div style=""display: flex; justify-content: center; align-items: center;"">
                     <img src=""images/causal/causal_series_1/causal_series_1_c.png"" style=""width: 300px; height: 300px;"" />
                   </div>","null","1","2","C","",""
"","","","","","html-button-response","78","1598202","0.0-64.0","8DB8AAE0ADE141ACAA8C487CC311A959","0199d605-67d5-7fe8-89e3-f2ba6ae59dae","0199d5ef-c7d4-7cab-a194-b2c3afbaf8e8","","3727","
        <div style=""display: flex; justify-content: center; align-items: center;"">
          <img src=""images/red_deck_2.png"" style=""width: 300px; height: 300px; margin-right: 10px;"" />
          <img src=""images/blue_deck_1.png"" style=""width: 300px; height: 300px;"" />
        </div>","1","1","2","choice","1",""
"","","","","","html-keyboard-response","79","1604205","0.0-65.0-1.0-0.0","8DB8AAE0ADE141ACAA8C487CC311A959","0199d605-67d5-7fe8-89e3-f2ba6ae59dae","0199d5ef-c7d4-7cab-a194-b2c3afbaf8e8","","null","<div style=""display: flex; justify-content: center; align-items: center;"">
                     <img src=""images/semantic/semantic_series_1/semantic_series_1_d.png"" style=""width: 300px; height: 300px;"" />
                   </div>","null","1","2","D","",""
"","","","","","html-keyboard-response","80","1610217","0.0-65.0-1.0-1.0","8DB8AAE0ADE141ACAA8C487CC311A959","0199d605-67d5-7fe8-89e3-f2ba6ae59dae","0199d5ef-c7d4-7cab-a194-b2c3afbaf8e8","","null","<div style=""display: flex; justify-content: center; align-items: center;"">
                     <img src=""images/semantic/semantic_series_1/semantic_series_1_e.png"" style=""width: 300px; height: 300px;"" />
                   </div>","null","1","2","E","",""
"","","","","","html-keyboard-response","81","1616229","0.0-65.0-1.0-2.0","8DB8AAE0ADE141ACAA8C487CC311A959","0199d605-67d5-7fe8-89e3-f2ba6ae59dae","0199d5ef-c7d4-7cab-a194-b2c3afbaf8e8","","null","<div style=""display: flex; justify-content: center; align-items: center;"">
                     <img src=""images/semantic/semantic_series_1/semantic_series_1_f.png"" style=""width: 300px; height: 300px;"" />
                   </div>","null","1","2","F","",""
"","","","","","survey-likert","82","1621716","0.0-66.0","8DB8AAE0ADE141ACAA8C487CC311A959","0199d605-67d5-7fe8-89e3-f2ba6ae59dae","0199d5ef-c7d4-7cab-a194-b2c3afbaf8e8","","5485","","{""Q0"":1}","1","2","surprise_rating","","[0]"
"","","","","","survey-likert","83","1624340","0.0-67.0","8DB8AAE0ADE141ACAA8C487CC311A959","0199d605-67d5-7fe8-89e3-f2ba6ae59dae","0199d5ef-c7d4-7cab-a194-b2c3afbaf8e8","","2620","","{""Q0"":1}","1","2","enjoyment_rating","","[0]"
"","","","","","html-keyboard-response","84","1630358","0.0-68.0","8DB8AAE0ADE141ACAA8C487CC311A959","0199d605-67d5-7fe8-89e3-f2ba6ae59dae","0199d5ef-c7d4-7cab-a194-b2c3afbaf8e8","","null","<div style=""display: flex; justify-content: center; align-items: center;"">
                     <img src=""images/other/blank.png"" style=""width: 300px; height: 300px;"" />
                   </div>","null","0","0","blank","",""
"","","","","","html-keyboard-response","85","1636363","0.0-69.0","8DB8AAE0ADE141ACAA8C487CC311A959","0199d605-67d5-7fe8-89e3-f2ba6ae59dae","0199d5ef-c7d4-7cab-a194-b2c3afbaf8e8","","null","<div style=""display: flex; justify-content: center; align-items: center;"">
                     <img src=""images/causal/causal_series_2/causal_series_2_a.png"" style=""width: 300px; height: 300px;"" />
                   </div>","null","2","1","A","",""
"","","","","","html-keyboard-response","86","1642377","0.0-70.0","8DB8AAE0ADE141ACAA8C487CC311A959","0199d605-67d5-7fe8-89e3-f2ba6ae59dae","0199d5ef-c7d4-7cab-a194-b2c3afbaf8e8","","null","<div style=""display: flex; justify-content: center; align-items: center;"">
                     <img src=""images/causal/causal_series_2/causal_series_2_b.png"" style=""width: 300px; height: 300px;"" />
                   </div>","null","2","1","B","",""
"","","","","","html-keyboard-response","87","1648384","0.0-71.0","8DB8AAE0ADE141ACAA8C487CC311A959","0199d605-67d5-7fe8-89e3-f2ba6ae59dae","0199d5ef-c7d4-7cab-a194-b2c3afbaf8e8","","null","<div style=""display: flex; justify-content: center; align-items: center;"">
                     <img src=""images/causal/causal_series_2/causal_series_2_c.png"" style=""width: 300px; height: 300px;"" />
                   </div>","null","2","1","C","",""
"","","","","","html-button-response","88","1672797","0.0-72.0","8DB8AAE0ADE141ACAA8C487CC311A959","0199d605-67d5-7fe8-89e3-f2ba6ae59dae","0199d5ef-c7d4-7cab-a194-b2c3afbaf8e8","","24411","
        <div style=""display: flex; justify-content: center; align-items: center;"">
          <img src=""images/red_deck_2.png"" style=""width: 300px; height: 300px; margin-right: 10px;"" />
          <img src=""images/blue_deck_1.png"" style=""width: 300px; height: 300px;"" />
        </div>","0","2","1","choice","0",""
"","","","","","html-keyboard-response","89","1678814","0.0-73.0-0.0-0.0","8DB8AAE0ADE141ACAA8C487CC311A959","0199d605-67d5-7fe8-89e3-f2ba6ae59dae","0199d5ef-c7d4-7cab-a194-b2c3afbaf8e8","","null","<div style=""display: flex; justify-content: center; align-items: center;"">
                     <img src=""images/causal/causal_series_2/causal_series_2_d.png"" style=""width: 300px; height: 300px;"" />
                   </div>","null","2","1","D","",""
"","","","","","html-keyboard-response","90","1684826","0.0-73.0-0.0-1.0","8DB8AAE0ADE141ACAA8C487CC311A959","0199d605-67d5-7fe8-89e3-f2ba6ae59dae","0199d5ef-c7d4-7cab-a194-b2c3afbaf8e8","","null","<div style=""display: flex; justify-content: center; align-items: center;"">
                     <img src=""images/causal/causal_series_2/causal_series_2_e.png"" style=""width: 300px; height: 300px;"" />
                   </div>","null","2","1","E","",""
"","","","","","html-keyboard-response","91","1690841","0.0-73.0-0.0-2.0","8DB8AAE0ADE141ACAA8C487CC311A959","0199d605-67d5-7fe8-89e3-f2ba6ae59dae","0199d5ef-c7d4-7cab-a194-b2c3afbaf8e8","","null","<div style=""display: flex; justify-content: center; align-items: center;"">
                     <img src=""images/causal/causal_series_2/causal_series_2_f.png"" style=""width: 300px; height: 300px;"" />
                   </div>","null","2","1","F","",""
"","","","","","survey-likert","92","1697407","0.0-74.0","8DB8AAE0ADE141ACAA8C487CC311A959","0199d605-67d5-7fe8-89e3-f2ba6ae59dae","0199d5ef-c7d4-7cab-a194-b2c3afbaf8e8","","6564","","{""Q0"":2}","2","1","surprise_rating","","[0]"
"","","","","","survey-likert","93","1700407","0.0-75.0","8DB8AAE0ADE141ACAA8C487CC311A959","0199d605-67d5-7fe8-89e3-f2ba6ae59dae","0199d5ef-c7d4-7cab-a194-b2c3afbaf8e8","","2996","","{""Q0"":2}","2","1","enjoyment_rating","","[0]"
"","","","","","html-keyboard-response","94","1706420","0.0-76.0","8DB8AAE0ADE141ACAA8C487CC311A959","0199d605-67d5-7fe8-89e3-f2ba6ae59dae","0199d5ef-c7d4-7cab-a194-b2c3afbaf8e8","","null","<div style=""display: flex; justify-content: center; align-items: center;"">
                     <img src=""images/other/blank.png"" style=""width: 300px; height: 300px;"" />
                   </div>","null","0","0","blank","",""
"","","","","","html-keyboard-response","95","1712428","0.0-77.0","8DB8AAE0ADE141ACAA8C487CC311A959","0199d605-67d5-7fe8-89e3-f2ba6ae59dae","0199d5ef-c7d4-7cab-a194-b2c3afbaf8e8","","null","<div style=""display: flex; justify-content: center; align-items: center;"">
                     <img src=""images/causal/causal_series_9/causal_series_9_a.png"" style=""width: 300px; height: 300px;"" />
                   </div>","null","9","2","A","",""
"","","","","","html-keyboard-response","96","1718439","0.0-78.0","8DB8AAE0ADE141ACAA8C487CC311A959","0199d605-67d5-7fe8-89e3-f2ba6ae59dae","0199d5ef-c7d4-7cab-a194-b2c3afbaf8e8","","null","<div style=""display: flex; justify-content: center; align-items: center;"">
                     <img src=""images/causal/causal_series_9/causal_series_9_b.png"" style=""width: 300px; height: 300px;"" />
                   </div>","null","9","2","B","",""
"","","","","","html-keyboard-response","97","1724449","0.0-79.0","8DB8AAE0ADE141ACAA8C487CC311A959","0199d605-67d5-7fe8-89e3-f2ba6ae59dae","0199d5ef-c7d4-7cab-a194-b2c3afbaf8e8","","null","<div style=""display: flex; justify-content: center; align-items: center;"">
                     <img src=""images/causal/causal_series_9/causal_series_9_c.png"" style=""width: 300px; height: 300px;"" />
                   </div>","null","9","2","C","",""
"","","","","","html-button-response","98","1971847","0.0-80.0","8DB8AAE0ADE141ACAA8C487CC311A959","0199d605-67d5-7fe8-89e3-f2ba6ae59dae","0199d5ef-c7d4-7cab-a194-b2c3afbaf8e8","","247412","
        <div style=""display: flex; justify-content: center; align-items: center;"">
          <img src=""images/red_deck_2.png"" style=""width: 300px; height: 300px; margin-right: 10px;"" />
          <img src=""images/blue_deck_1.png"" style=""width: 300px; height: 300px;"" />
        </div>","1","9","2","choice","1",""
"","","","","","html-keyboard-response","99","1977849","0.0-81.0-1.0-0.0","8DB8AAE0ADE141ACAA8C487CC311A959","0199d605-67d5-7fe8-89e3-f2ba6ae59dae","0199d5ef-c7d4-7cab-a194-b2c3afbaf8e8","","null","<div style=""display: flex; justify-content: center; align-items: center;"">
                     <img src=""images/semantic/semantic_series_9/semantic_series_9_d.png"" style=""width: 300px; height: 300px;"" />
                   </div>","null","9","2","D","",""
"","","","","","html-keyboard-response","100","1983859","0.0-81.0-1.0-1.0","8DB8AAE0ADE141ACAA8C487CC311A959","0199d605-67d5-7fe8-89e3-f2ba6ae59dae","0199d5ef-c7d4-7cab-a194-b2c3afbaf8e8","","null","<div style=""display: flex; justify-content: center; align-items: center;"">
                     <img src=""images/semantic/semantic_series_9/semantic_series_9_e.png"" style=""width: 300px; height: 300px;"" />
                   </div>","null","9","2","E","",""
"","","","","","html-keyboard-response","101","1989867","0.0-81.0-1.0-2.0","8DB8AAE0ADE141ACAA8C487CC311A959","0199d605-67d5-7fe8-89e3-f2ba6ae59dae","0199d5ef-c7d4-7cab-a194-b2c3afbaf8e8","","null","<div style=""display: flex; justify-content: center; align-items: center;"">
                     <img src=""images/semantic/semantic_series_9/semantic_series_9_f.png"" style=""width: 300px; height: 300px;"" />
                   </div>","null","9","2","F","",""
"","","","","","survey-likert","102","1994186","0.0-82.0","8DB8AAE0ADE141ACAA8C487CC311A959","0199d605-67d5-7fe8-89e3-f2ba6ae59dae","0199d5ef-c7d4-7cab-a194-b2c3afbaf8e8","","4317","","{""Q0"":2}","9","2","surprise_rating","","[0]"
"","","","","","survey-likert","103","1996559","0.0-83.0","8DB8AAE0ADE141ACAA8C487CC311A959","0199d605-67d5-7fe8-89e3-f2ba6ae59dae","0199d5ef-c7d4-7cab-a194-b2c3afbaf8e8","","2370","","{""Q0"":2}","9","2","enjoyment_rating","","[0]"
"","","","","","html-keyboard-response","104","2002567","0.0-84.0","8DB8AAE0ADE141ACAA8C487CC311A959","0199d605-67d5-7fe8-89e3-f2ba6ae59dae","0199d5ef-c7d4-7cab-a194-b2c3afbaf8e8","","null","<div style=""display: flex; justify-content: center; align-items: center;"">
                     <img src=""images/other/blank.png"" style=""width: 300px; height: 300px;"" />
                   </div>","null","0","0","blank","",""
"","","","","","html-keyboard-response","105","2008578","0.0-85.0","8DB8AAE0ADE141ACAA8C487CC311A959","0199d605-67d5-7fe8-89e3-f2ba6ae59dae","0199d5ef-c7d4-7cab-a194-b2c3afbaf8e8","","null","<div style=""display: flex; justify-content: center; align-items: center;"">
                     <img src=""images/causal/causal_series_5/causal_series_5_a.png"" style=""width: 300px; height: 300px;"" />
                   </div>","null","5","1","A","",""
"","","","","","html-keyboard-response","106","2014585","0.0-86.0","8DB8AAE0ADE141ACAA8C487CC311A959","0199d605-67d5-7fe8-89e3-f2ba6ae59dae","0199d5ef-c7d4-7cab-a194-b2c3afbaf8e8","","null","<div style=""display: flex; justify-content: center; align-items: center;"">
                     <img src=""images/causal/causal_series_5/causal_series_5_b.png"" style=""width: 300px; height: 300px;"" />
                   </div>","null","5","1","B","",""
"","","","","","html-keyboard-response","107","2020592","0.0-87.0","8DB8AAE0ADE141ACAA8C487CC311A959","0199d605-67d5-7fe8-89e3-f2ba6ae59dae","0199d5ef-c7d4-7cab-a194-b2c3afbaf8e8","","null","<div style=""display: flex; justify-content: center; align-items: center;"">
                     <img src=""images/causal/causal_series_5/causal_series_5_c.png"" style=""width: 300px; height: 300px;"" />
                   </div>","null","5","1","C","",""
"","","","","","html-button-response","108","2092225","0.0-88.0","8DB8AAE0ADE141ACAA8C487CC311A959","0199d605-67d5-7fe8-89e3-f2ba6ae59dae","0199d5ef-c7d4-7cab-a194-b2c3afbaf8e8","","71637","
        <div style=""display: flex; justify-content: center; align-items: center;"">
          <img src=""images/red_deck_2.png"" style=""width: 300px; height: 300px; margin-right: 10px;"" />
          <img src=""images/blue_deck_1.png"" style=""width: 300px; height: 300px;"" />
        </div>","1","5","1","choice","1",""
"","","","","","html-keyboard-response","109","2098239","0.0-89.0-1.0-0.0","8DB8AAE0ADE141ACAA8C487CC311A959","0199d605-67d5-7fe8-89e3-f2ba6ae59dae","0199d5ef-c7d4-7cab-a194-b2c3afbaf8e8","","null","<div style=""display: flex; justify-content: center; align-items: center;"">
                     <img src=""images/semantic/semantic_series_5/semantic_series_5_d.png"" style=""width: 300px; height: 300px;"" />
                   </div>","null","5","1","D","",""
"","","","","","html-keyboard-response","110","2104243","0.0-89.0-1.0-1.0","8DB8AAE0ADE141ACAA8C487CC311A959","0199d605-67d5-7fe8-89e3-f2ba6ae59dae","0199d5ef-c7d4-7cab-a194-b2c3afbaf8e8","","null","<div style=""display: flex; justify-content: center; align-items: center;"">
                     <img src=""images/semantic/semantic_series_5/semantic_series_5_e.png"" style=""width: 300px; height: 300px;"" />
                   </div>","null","5","1","E","",""
"","","","","","html-keyboard-response","111","2110259","0.0-89.0-1.0-2.0","8DB8AAE0ADE141ACAA8C487CC311A959","0199d605-67d5-7fe8-89e3-f2ba6ae59dae","0199d5ef-c7d4-7cab-a194-b2c3afbaf8e8","","null","<div style=""display: flex; justify-content: center; align-items: center;"">
                     <img src=""images/semantic/semantic_series_5/semantic_series_5_f.png"" style=""width: 300px; height: 300px;"" />
                   </div>","null","5","1","F","",""
"","","","","","survey-likert","112","2126289","0.0-90.0","8DB8AAE0ADE141ACAA8C487CC311A959","0199d605-67d5-7fe8-89e3-f2ba6ae59dae","0199d5ef-c7d4-7cab-a194-b2c3afbaf8e8","","16027","","{""Q0"":3}","5","1","surprise_rating","","[0]"
"","","","","","survey-likert","113","2162465","0.0-91.0","8DB8AAE0ADE141ACAA8C487CC311A959","0199d605-67d5-7fe8-89e3-f2ba6ae59dae","0199d5ef-c7d4-7cab-a194-b2c3afbaf8e8","","36176","","{""Q0"":3}","5","1","enjoyment_rating","","[0]"
"","","","","","html-keyboard-response","114","2168478","0.0-92.0","8DB8AAE0ADE141ACAA8C487CC311A959","0199d605-67d5-7fe8-89e3-f2ba6ae59dae","0199d5ef-c7d4-7cab-a194-b2c3afbaf8e8","","null","<div style=""display: flex; justify-content: center; align-items: center;"">
                     <img src=""images/other/blank.png"" style=""width: 300px; height: 300px;"" />
                   </div>","null","0","0","blank","",""
"","","","","","html-keyboard-response","115","2174481","0.0-93.0","8DB8AAE0ADE141ACAA8C487CC311A959","0199d605-67d5-7fe8-89e3-f2ba6ae59dae","0199d5ef-c7d4-7cab-a194-b2c3afbaf8e8","","null","<div style=""display: flex; justify-content: center; align-items: center;"">
                     <img src=""images/causal/causal_series_8/causal_series_8_a.png"" style=""width: 300px; height: 300px;"" />
                   </div>","null","8","1","A","",""
"","","","","","html-keyboard-response","116","2180496","0.0-94.0","8DB8AAE0ADE141ACAA8C487CC311A959","0199d605-67d5-7fe8-89e3-f2ba6ae59dae","0199d5ef-c7d4-7cab-a194-b2c3afbaf8e8","","null","<div style=""display: flex; justify-content: center; align-items: center;"">
                     <img src=""images/causal/causal_series_8/causal_series_8_b.png"" style=""width: 300px; height: 300px;"" />
                   </div>","null","8","1","B","",""
"","","","","","html-keyboard-response","117","2186503","0.0-95.0","8DB8AAE0ADE141ACAA8C487CC311A959","0199d605-67d5-7fe8-89e3-f2ba6ae59dae","0199d5ef-c7d4-7cab-a194-b2c3afbaf8e8","","null","<div style=""display: flex; justify-content: center; align-items: center;"">
                     <img src=""images/causal/causal_series_8/causal_series_8_c.png"" style=""width: 300px; height: 300px;"" />
                   </div>","null","8","1","C","",""
"","","","","","html-button-response","118","2203016","0.0-96.0","8DB8AAE0ADE141ACAA8C487CC311A959","0199d605-67d5-7fe8-89e3-f2ba6ae59dae","0199d5ef-c7d4-7cab-a194-b2c3afbaf8e8","","16511","
        <div style=""display: flex; justify-content: center; align-items: center;"">
          <img src=""images/red_deck_2.png"" style=""width: 300px; height: 300px; margin-right: 10px;"" />
          <img src=""images/blue_deck_1.png"" style=""width: 300px; height: 300px;"" />
        </div>","1","8","1","choice","1",""
"","","","","","html-keyboard-response","119","2209024","0.0-97.0-1.0-0.0","8DB8AAE0ADE141ACAA8C487CC311A959","0199d605-67d5-7fe8-89e3-f2ba6ae59dae","0199d5ef-c7d4-7cab-a194-b2c3afbaf8e8","","null","<div style=""display: flex; justify-content: center; align-items: center;"">
                     <img src=""images/semantic/semantic_series_8/semantic_series_8_d.png"" style=""width: 300px; height: 300px;"" />
                   </div>","null","8","1","D","",""
"","","","","","html-keyboard-response","120","2215035","0.0-97.0-1.0-1.0","8DB8AAE0ADE141ACAA8C487CC311A959","0199d605-67d5-7fe8-89e3-f2ba6ae59dae","0199d5ef-c7d4-7cab-a194-b2c3afbaf8e8","","null","<div style=""display: flex; justify-content: center; align-items: center;"">
                     <img src=""images/semantic/semantic_series_8/semantic_series_8_e.png"" style=""width: 300px; height: 300px;"" />
                   </div>","null","8","1","E","",""
"","","","","","html-keyboard-response","121","2221041","0.0-97.0-1.0-2.0","8DB8AAE0ADE141ACAA8C487CC311A959","0199d605-67d5-7fe8-89e3-f2ba6ae59dae","0199d5ef-c7d4-7cab-a194-b2c3afbaf8e8","","null","<div style=""display: flex; justify-content: center; align-items: center;"">
                     <img src=""images/semantic/semantic_series_8/semantic_series_8_f.png"" style=""width: 300px; height: 300px;"" />
                   </div>","null","8","1","F","",""
"","","","","","survey-likert","122","2255416","0.0-98.0","8DB8AAE0ADE141ACAA8C487CC311A959","0199d605-67d5-7fe8-89e3-f2ba6ae59dae","0199d5ef-c7d4-7cab-a194-b2c3afbaf8e8","","34378","","{""Q0"":2}","8","1","surprise_rating","","[0]"
"","","","","","survey-likert","123","2259788","0.0-99.0","8DB8AAE0ADE141ACAA8C487CC311A959","0199d605-67d5-7fe8-89e3-f2ba6ae59dae","0199d5ef-c7d4-7cab-a194-b2c3afbaf8e8","","4368","","{""Q0"":2}","8","1","enjoyment_rating","","[0]"
"","","","","","html-keyboard-response","124","2265798","0.0-100.0","8DB8AAE0ADE141ACAA8C487CC311A959","0199d605-67d5-7fe8-89e3-f2ba6ae59dae","0199d5ef-c7d4-7cab-a194-b2c3afbaf8e8","","null","<div style=""display: flex; justify-content: center; align-items: center;"">
                     <img src=""images/other/blank.png"" style=""width: 300px; height: 300px;"" />
                   </div>","null","0","0","blank","",""
"","","","","","html-keyboard-response","125","2271814","0.0-101.0","8DB8AAE0ADE141ACAA8C487CC311A959","0199d605-67d5-7fe8-89e3-f2ba6ae59dae","0199d5ef-c7d4-7cab-a194-b2c3afbaf8e8","","null","<div style=""display: flex; justify-content: center; align-items: center;"">
                     <img src=""images/causal/causal_series_3/causal_series_3_a.png"" style=""width: 300px; height: 300px;"" />
                   </div>","null","3","1","A","",""
"","","","","","html-keyboard-response","126","2277819","0.0-102.0","8DB8AAE0ADE141ACAA8C487CC311A959","0199d605-67d5-7fe8-89e3-f2ba6ae59dae","0199d5ef-c7d4-7cab-a194-b2c3afbaf8e8","","null","<div style=""display: flex; justify-content: center; align-items: center;"">
                     <img src=""images/causal/causal_series_3/causal_series_3_b.png"" style=""width: 300px; height: 300px;"" />
                   </div>","null","3","1","B","",""
"","","","","","html-keyboard-response","127","2283825","0.0-103.0","8DB8AAE0ADE141ACAA8C487CC311A959","0199d605-67d5-7fe8-89e3-f2ba6ae59dae","0199d5ef-c7d4-7cab-a194-b2c3afbaf8e8","","null","<div style=""display: flex; justify-content: center; align-items: center;"">
                     <img src=""images/causal/causal_series_3/causal_series_3_c.png"" style=""width: 300px; height: 300px;"" />
                   </div>","null","3","1","C","",""
"","","","","","html-button-response","128","2289590","0.0-104.0","8DB8AAE0ADE141ACAA8C487CC311A959","0199d605-67d5-7fe8-89e3-f2ba6ae59dae","0199d5ef-c7d4-7cab-a194-b2c3afbaf8e8","","5762","
        <div style=""display: flex; justify-content: center; align-items: center;"">
          <img src=""images/red_deck_2.png"" style=""width: 300px; height: 300px; margin-right: 10px;"" />
          <img src=""images/blue_deck_1.png"" style=""width: 300px; height: 300px;"" />
        </div>","1","3","1","choice","1",""
"","","","","","html-keyboard-response","129","2295593","0.0-105.0-1.0-0.0","8DB8AAE0ADE141ACAA8C487CC311A959","0199d605-67d5-7fe8-89e3-f2ba6ae59dae","0199d5ef-c7d4-7cab-a194-b2c3afbaf8e8","","null","<div style=""display: flex; justify-content: center; align-items: center;"">
                     <img src=""images/semantic/semantic_series_3/semantic_series_3_d.png"" style=""width: 300px; height: 300px;"" />
                   </div>","null","3","1","D","",""
"","","","","","html-keyboard-response","130","2301602","0.0-105.0-1.0-1.0","8DB8AAE0ADE141ACAA8C487CC311A959","0199d605-67d5-7fe8-89e3-f2ba6ae59dae","0199d5ef-c7d4-7cab-a194-b2c3afbaf8e8","","null","<div style=""display: flex; justify-content: center; align-items: center;"">
                     <img src=""images/semantic/semantic_series_3/semantic_series_3_e.png"" style=""width: 300px; height: 300px;"" />
                   </div>","null","3","1","E","",""
"","","","","","html-keyboard-response","131","2307610","0.0-105.0-1.0-2.0","8DB8AAE0ADE141ACAA8C487CC311A959","0199d605-67d5-7fe8-89e3-f2ba6ae59dae","0199d5ef-c7d4-7cab-a194-b2c3afbaf8e8","","null","<div style=""display: flex; justify-content: center; align-items: center;"">
                     <img src=""images/semantic/semantic_series_3/semantic_series_3_f.png"" style=""width: 300px; height: 300px;"" />
                   </div>","null","3","1","F","",""
"","","","","","survey-likert","132","2310638","0.0-106.0","8DB8AAE0ADE141ACAA8C487CC311A959","0199d605-67d5-7fe8-89e3-f2ba6ae59dae","0199d5ef-c7d4-7cab-a194-b2c3afbaf8e8","","3026","","{""Q0"":3}","3","1","surprise_rating","","[0]"
"","","","","","survey-likert","133","2312786","0.0-107.0","8DB8AAE0ADE141ACAA8C487CC311A959","0199d605-67d5-7fe8-89e3-f2ba6ae59dae","0199d5ef-c7d4-7cab-a194-b2c3afbaf8e8","","2144","","{""Q0"":2}","3","1","enjoyment_rating","","[0]"
"","","","","","html-keyboard-response","134","2318796","0.0-108.0","8DB8AAE0ADE141ACAA8C487CC311A959","0199d605-67d5-7fe8-89e3-f2ba6ae59dae","0199d5ef-c7d4-7cab-a194-b2c3afbaf8e8","","null","<div style=""display: flex; justify-content: center; align-items: center;"">
                     <img src=""images/other/blank.png"" style=""width: 300px; height: 300px;"" />
                   </div>","null","0","0","blank","",""
"","","","","","html-keyboard-response","135","2324804","0.0-109.0","8DB8AAE0ADE141ACAA8C487CC311A959","0199d605-67d5-7fe8-89e3-f2ba6ae59dae","0199d5ef-c7d4-7cab-a194-b2c3afbaf8e8","","null","<div style=""display: flex; justify-content: center; align-items: center;"">
                     <img src=""images/causal/causal_series_9/causal_series_9_a.png"" style=""width: 300px; height: 300px;"" />
                   </div>","null","9","1","A","",""
"","","","","","html-keyboard-response","136","2330819","0.0-110.0","8DB8AAE0ADE141ACAA8C487CC311A959","0199d605-67d5-7fe8-89e3-f2ba6ae59dae","0199d5ef-c7d4-7cab-a194-b2c3afbaf8e8","","null","<div style=""display: flex; justify-content: center; align-items: center;"">
                     <img src=""images/causal/causal_series_9/causal_series_9_b.png"" style=""width: 300px; height: 300px;"" />
                   </div>","null","9","1","B","",""
"","","","","","html-keyboard-response","137","2336822","0.0-111.0","8DB8AAE0ADE141ACAA8C487CC311A959","0199d605-67d5-7fe8-89e3-f2ba6ae59dae","0199d5ef-c7d4-7cab-a194-b2c3afbaf8e8","","null","<div style=""display: flex; justify-content: center; align-items: center;"">
                     <img src=""images/causal/causal_series_9/causal_series_9_c.png"" style=""width: 300px; height: 300px;"" />
                   </div>","null","9","1","C","",""
"","","","","","html-button-response","138","2361124","0.0-112.0","8DB8AAE0ADE141ACAA8C487CC311A959","0199d605-67d5-7fe8-89e3-f2ba6ae59dae","0199d5ef-c7d4-7cab-a194-b2c3afbaf8e8","","24299","
        <div style=""display: flex; justify-content: center; align-items: center;"">
          <img src=""images/red_deck_2.png"" style=""width: 300px; height: 300px; margin-right: 10px;"" />
          <img src=""images/blue_deck_1.png"" style=""width: 300px; height: 300px;"" />
        </div>","1","9","1","choice","1",""
"","","","","","html-keyboard-response","139","2367138","0.0-113.0-1.0-0.0","8DB8AAE0ADE141ACAA8C487CC311A959","0199d605-67d5-7fe8-89e3-f2ba6ae59dae","0199d5ef-c7d4-7cab-a194-b2c3afbaf8e8","","null","<div style=""display: flex; justify-content: center; align-items: center;"">
                     <img src=""images/semantic/semantic_series_9/semantic_series_9_d.png"" style=""width: 300px; height: 300px;"" />
                   </div>","null","9","1","D","",""
"","","","","","html-keyboard-response","140","2373156","0.0-113.0-1.0-1.0","8DB8AAE0ADE141ACAA8C487CC311A959","0199d605-67d5-7fe8-89e3-f2ba6ae59dae","0199d5ef-c7d4-7cab-a194-b2c3afbaf8e8","","null","<div style=""display: flex; justify-content: center; align-items: center;"">
                     <img src=""images/semantic/semantic_series_9/semantic_series_9_e.png"" style=""width: 300px; height: 300px;"" />
                   </div>","null","9","1","E","",""
"","","","","","html-keyboard-response","141","2379162","0.0-113.0-1.0-2.0","8DB8AAE0ADE141ACAA8C487CC311A959","0199d605-67d5-7fe8-89e3-f2ba6ae59dae","0199d5ef-c7d4-7cab-a194-b2c3afbaf8e8","","null","<div style=""display: flex; justify-content: center; align-items: center;"">
                     <img src=""images/semantic/semantic_series_9/semantic_series_9_f.png"" style=""width: 300px; height: 300px;"" />
                   </div>","null","9","1","F","",""
"","","","","","survey-likert","142","2389407","0.0-114.0","8DB8AAE0ADE141ACAA8C487CC311A959","0199d605-67d5-7fe8-89e3-f2ba6ae59dae","0199d5ef-c7d4-7cab-a194-b2c3afbaf8e8","","10242","","{""Q0"":2}","9","1","surprise_rating","","[0]"
"","","","","","survey-likert","143","2391390","0.0-115.0","8DB8AAE0ADE141ACAA8C487CC311A959","0199d605-67d5-7fe8-89e3-f2ba6ae59dae","0199d5ef-c7d4-7cab-a194-b2c3afbaf8e8","","1979","","{""Q0"":2}","9","1","enjoyment_rating","","[0]"
"","","","","","html-keyboard-response","144","2397409","0.0-116.0","8DB8AAE0ADE141ACAA8C487CC311A959","0199d605-67d5-7fe8-89e3-f2ba6ae59dae","0199d5ef-c7d4-7cab-a194-b2c3afbaf8e8","","null","<div style=""display: flex; justify-content: center; align-items: center;"">
                     <img src=""images/other/blank.png"" style=""width: 300px; height: 300px;"" />
                   </div>","null","0","0","blank","",""
"","","","","","html-keyboard-response","145","2403419","0.0-117.0","8DB8AAE0ADE141ACAA8C487CC311A959","0199d605-67d5-7fe8-89e3-f2ba6ae59dae","0199d5ef-c7d4-7cab-a194-b2c3afbaf8e8","","null","<div style=""display: flex; justify-content: center; align-items: center;"">
                     <img src=""images/causal/causal_series_8/causal_series_8_a.png"" style=""width: 300px; height: 300px;"" />
                   </div>","null","8","2","A","",""
"","","","","","html-keyboard-response","146","2409425","0.0-118.0","8DB8AAE0ADE141ACAA8C487CC311A959","0199d605-67d5-7fe8-89e3-f2ba6ae59dae","0199d5ef-c7d4-7cab-a194-b2c3afbaf8e8","","null","<div style=""display: flex; justify-content: center; align-items: center;"">
                     <img src=""images/causal/causal_series_8/causal_series_8_b.png"" style=""width: 300px; height: 300px;"" />
                   </div>","null","8","2","B","",""
"","","","","","html-keyboard-response","147","2415429","0.0-119.0","8DB8AAE0ADE141ACAA8C487CC311A959","0199d605-67d5-7fe8-89e3-f2ba6ae59dae","0199d5ef-c7d4-7cab-a194-b2c3afbaf8e8","","null","<div style=""display: flex; justify-content: center; align-items: center;"">
                     <img src=""images/causal/causal_series_8/causal_series_8_c.png"" style=""width: 300px; height: 300px;"" />
                   </div>","null","8","2","C","",""
"","","","","","html-button-response","148","2421846","0.0-120.0","8DB8AAE0ADE141ACAA8C487CC311A959","0199d605-67d5-7fe8-89e3-f2ba6ae59dae","0199d5ef-c7d4-7cab-a194-b2c3afbaf8e8","","6415","
        <div style=""display: flex; justify-content: center; align-items: center;"">
          <img src=""images/red_deck_2.png"" style=""width: 300px; height: 300px; margin-right: 10px;"" />
          <img src=""images/blue_deck_1.png"" style=""width: 300px; height: 300px;"" />
        </div>","0","8","2","choice","0",""
"","","","","","html-keyboard-response","149","2427864","0.0-121.0-0.0-0.0","8DB8AAE0ADE141ACAA8C487CC311A959","0199d605-67d5-7fe8-89e3-f2ba6ae59dae","0199d5ef-c7d4-7cab-a194-b2c3afbaf8e8","","null","<div style=""display: flex; justify-content: center; align-items: center;"">
                     <img src=""images/causal/causal_series_8/causal_series_8_d.png"" style=""width: 300px; height: 300px;"" />
                   </div>","null","8","2","D","",""
"","","","","","html-keyboard-response","150","2433870","0.0-121.0-0.0-1.0","8DB8AAE0ADE141ACAA8C487CC311A959","0199d605-67d5-7fe8-89e3-f2ba6ae59dae","0199d5ef-c7d4-7cab-a194-b2c3afbaf8e8","","null","<div style=""display: flex; justify-content: center; align-items: center;"">
                     <img src=""images/causal/causal_series_8/causal_series_8_e.png"" style=""width: 300px; height: 300px;"" />
                   </div>","null","8","2","E","",""
"","","","","","html-keyboard-response","151","2439873","0.0-121.0-0.0-2.0","8DB8AAE0ADE141ACAA8C487CC311A959","0199d605-67d5-7fe8-89e3-f2ba6ae59dae","0199d5ef-c7d4-7cab-a194-b2c3afbaf8e8","","null","<div style=""display: flex; justify-content: center; align-items: center;"">
                     <img src=""images/causal/causal_series_8/causal_series_8_f.png"" style=""width: 300px; height: 300px;"" />
                   </div>","null","8","2","F","",""
"","","","","","survey-likert","152","2452963","0.0-122.0","8DB8AAE0ADE141ACAA8C487CC311A959","0199d605-67d5-7fe8-89e3-f2ba6ae59dae","0199d5ef-c7d4-7cab-a194-b2c3afbaf8e8","","13088","","{""Q0"":1}","8","2","surprise_rating","","[0]"
"","","","","","survey-likert","153","2455700","0.0-123.0","8DB8AAE0ADE141ACAA8C487CC311A959","0199d605-67d5-7fe8-89e3-f2ba6ae59dae","0199d5ef-c7d4-7cab-a194-b2c3afbaf8e8","","2733","","{""Q0"":2}","8","2","enjoyment_rating","","[0]"
"","","","","","html-keyboard-response","154","2461704","0.0-124.0","8DB8AAE0ADE141ACAA8C487CC311A959","0199d605-67d5-7fe8-89e3-f2ba6ae59dae","0199d5ef-c7d4-7cab-a194-b2c3afbaf8e8","","null","<div style=""display: flex; justify-content: center; align-items: center;"">
                     <img src=""images/other/blank.png"" style=""width: 300px; height: 300px;"" />
                   </div>","null","0","0","blank","",""
"","","","","","html-keyboard-response","155","2467714","0.0-125.0","8DB8AAE0ADE141ACAA8C487CC311A959","0199d605-67d5-7fe8-89e3-f2ba6ae59dae","0199d5ef-c7d4-7cab-a194-b2c3afbaf8e8","","null","<div style=""display: flex; justify-content: center; align-items: center;"">
                     <img src=""images/causal/causal_series_1/causal_series_1_a.png"" style=""width: 300px; height: 300px;"" />
                   </div>","null","1","1","A","",""
"","","","","","html-keyboard-response","156","2473722","0.0-126.0","8DB8AAE0ADE141ACAA8C487CC311A959","0199d605-67d5-7fe8-89e3-f2ba6ae59dae","0199d5ef-c7d4-7cab-a194-b2c3afbaf8e8","","null","<div style=""display: flex; justify-content: center; align-items: center;"">
                     <img src=""images/causal/causal_series_1/causal_series_1_b.png"" style=""width: 300px; height: 300px;"" />
                   </div>","null","1","1","B","",""
"","","","","","html-keyboard-response","157","2479728","0.0-127.0","8DB8AAE0ADE141ACAA8C487CC311A959","0199d605-67d5-7fe8-89e3-f2ba6ae59dae","0199d5ef-c7d4-7cab-a194-b2c3afbaf8e8","","null","<div style=""display: flex; justify-content: center; align-items: center;"">
                     <img src=""images/causal/causal_series_1/causal_series_1_c.png"" style=""width: 300px; height: 300px;"" />
                   </div>","null","1","1","C","",""
"","","","","","html-button-response","158","2482933","0.0-128.0","8DB8AAE0ADE141ACAA8C487CC311A959","0199d605-67d5-7fe8-89e3-f2ba6ae59dae","0199d5ef-c7d4-7cab-a194-b2c3afbaf8e8","","3202","
        <div style=""display: flex; justify-content: center; align-items: center;"">
          <img src=""images/red_deck_2.png"" style=""width: 300px; height: 300px; margin-right: 10px;"" />
          <img src=""images/blue_deck_1.png"" style=""width: 300px; height: 300px;"" />
        </div>","1","1","1","choice","1",""
"","","","","","html-keyboard-response","159","2488938","0.0-129.0-1.0-0.0","8DB8AAE0ADE141ACAA8C487CC311A959","0199d605-67d5-7fe8-89e3-f2ba6ae59dae","0199d5ef-c7d4-7cab-a194-b2c3afbaf8e8","","null","<div style=""display: flex; justify-content: center; align-items: center;"">
                     <img src=""images/semantic/semantic_series_1/semantic_series_1_d.png"" style=""width: 300px; height: 300px;"" />
                   </div>","null","1","1","D","",""
"","","","","","html-keyboard-response","160","2494952","0.0-129.0-1.0-1.0","8DB8AAE0ADE141ACAA8C487CC311A959","0199d605-67d5-7fe8-89e3-f2ba6ae59dae","0199d5ef-c7d4-7cab-a194-b2c3afbaf8e8","","null","<div style=""display: flex; justify-content: center; align-items: center;"">
                     <img src=""images/semantic/semantic_series_1/semantic_series_1_e.png"" style=""width: 300px; height: 300px;"" />
                   </div>","null","1","1","E","",""
"","","","","","html-keyboard-response","161","2500957","0.0-129.0-1.0-2.0","8DB8AAE0ADE141ACAA8C487CC311A959","0199d605-67d5-7fe8-89e3-f2ba6ae59dae","0199d5ef-c7d4-7cab-a194-b2c3afbaf8e8","","null","<div style=""display: flex; justify-content: center; align-items: center;"">
                     <img src=""images/semantic/semantic_series_1/semantic_series_1_f.png"" style=""width: 300px; height: 300px;"" />
                   </div>","null","1","1","F","",""
"","","","","","survey-likert","162","2519393","0.0-130.0","8DB8AAE0ADE141ACAA8C487CC311A959","0199d605-67d5-7fe8-89e3-f2ba6ae59dae","0199d5ef-c7d4-7cab-a194-b2c3afbaf8e8","","18433","","{""Q0"":2}","1","1","surprise_rating","","[0]"
"","","","","","survey-likert","163","2521631","0.0-131.0","8DB8AAE0ADE141ACAA8C487CC311A959","0199d605-67d5-7fe8-89e3-f2ba6ae59dae","0199d5ef-c7d4-7cab-a194-b2c3afbaf8e8","","2235","","{""Q0"":2}","1","1","enjoyment_rating","","[0]"
"","","","","","html-keyboard-response","164","2527641","0.0-132.0","8DB8AAE0ADE141ACAA8C487CC311A959","0199d605-67d5-7fe8-89e3-f2ba6ae59dae","0199d5ef-c7d4-7cab-a194-b2c3afbaf8e8","","null","<div style=""display: flex; justify-content: center; align-items: center;"">
                     <img src=""images/other/blank.png"" style=""width: 300px; height: 300px;"" />
                   </div>","null","0","0","blank","",""
"","","","","","html-keyboard-response","165","2533648","0.0-133.0","8DB8AAE0ADE141ACAA8C487CC311A959","0199d605-67d5-7fe8-89e3-f2ba6ae59dae","0199d5ef-c7d4-7cab-a194-b2c3afbaf8e8","","null","<div style=""display: flex; justify-content: center; align-items: center;"">
                     <img src=""images/causal/causal_series_4/causal_series_4_a.png"" style=""width: 300px; height: 300px;"" />
                   </div>","null","4","1","A","",""
"","","","","","html-keyboard-response","166","2539664","0.0-134.0","8DB8AAE0ADE141ACAA8C487CC311A959","0199d605-67d5-7fe8-89e3-f2ba6ae59dae","0199d5ef-c7d4-7cab-a194-b2c3afbaf8e8","","null","<div style=""display: flex; justify-content: center; align-items: center;"">
                     <img src=""images/causal/causal_series_4/causal_series_4_b.png"" style=""width: 300px; height: 300px;"" />
                   </div>","null","4","1","B","",""
"","","","","","html-keyboard-response","167","2545680","0.0-135.0","8DB8AAE0ADE141ACAA8C487CC311A959","0199d605-67d5-7fe8-89e3-f2ba6ae59dae","0199d5ef-c7d4-7cab-a194-b2c3afbaf8e8","","null","<div style=""display: flex; justify-content: center; align-items: center;"">
                     <img src=""images/causal/causal_series_4/causal_series_4_c.png"" style=""width: 300px; height: 300px;"" />
                   </div>","null","4","1","C","",""
"","","","","","html-button-response","168","2550689","0.0-136.0","8DB8AAE0ADE141ACAA8C487CC311A959","0199d605-67d5-7fe8-89e3-f2ba6ae59dae","0199d5ef-c7d4-7cab-a194-b2c3afbaf8e8","","5007","
        <div style=""display: flex; justify-content: center; align-items: center;"">
          <img src=""images/red_deck_2.png"" style=""width: 300px; height: 300px; margin-right: 10px;"" />
          <img src=""images/blue_deck_1.png"" style=""width: 300px; height: 300px;"" />
        </div>","0","4","1","choice","0",""
"","","","","","html-keyboard-response","169","2556700","0.0-137.0-0.0-0.0","8DB8AAE0ADE141ACAA8C487CC311A959","0199d605-67d5-7fe8-89e3-f2ba6ae59dae","0199d5ef-c7d4-7cab-a194-b2c3afbaf8e8","","null","<div style=""display: flex; justify-content: center; align-items: center;"">
                     <img src=""images/causal/causal_series_4/causal_series_4_d.png"" style=""width: 300px; height: 300px;"" />
                   </div>","null","4","1","D","",""
"","","","","","html-keyboard-response","170","2562711","0.0-137.0-0.0-1.0","8DB8AAE0ADE141ACAA8C487CC311A959","0199d605-67d5-7fe8-89e3-f2ba6ae59dae","0199d5ef-c7d4-7cab-a194-b2c3afbaf8e8","","null","<div style=""display: flex; justify-content: center; align-items: center;"">
                     <img src=""images/causal/causal_series_4/causal_series_4_e.png"" style=""width: 300px; height: 300px;"" />
                   </div>","null","4","1","E","",""
"","","","","","html-keyboard-response","171","2568725","0.0-137.0-0.0-2.0","8DB8AAE0ADE141ACAA8C487CC311A959","0199d605-67d5-7fe8-89e3-f2ba6ae59dae","0199d5ef-c7d4-7cab-a194-b2c3afbaf8e8","","null","<div style=""display: flex; justify-content: center; align-items: center;"">
                     <img src=""images/causal/causal_series_4/causal_series_4_f.png"" style=""width: 300px; height: 300px;"" />
                   </div>","null","4","1","F","",""
"","","","","","survey-likert","172","2591747","0.0-138.0","8DB8AAE0ADE141ACAA8C487CC311A959","0199d605-67d5-7fe8-89e3-f2ba6ae59dae","0199d5ef-c7d4-7cab-a194-b2c3afbaf8e8","","23020","","{""Q0"":2}","4","1","surprise_rating","","[0]"
"","","","","","survey-likert","173","2594476","0.0-139.0","8DB8AAE0ADE141ACAA8C487CC311A959","0199d605-67d5-7fe8-89e3-f2ba6ae59dae","0199d5ef-c7d4-7cab-a194-b2c3afbaf8e8","","2726","","{""Q0"":1}","4","1","enjoyment_rating","","[0]"
"","","","","","html-keyboard-response","174","2600493","0.0-140.0","8DB8AAE0ADE141ACAA8C487CC311A959","0199d605-67d5-7fe8-89e3-f2ba6ae59dae","0199d5ef-c7d4-7cab-a194-b2c3afbaf8e8","","null","<div style=""display: flex; justify-content: center; align-items: center;"">
                     <img src=""images/other/blank.png"" style=""width: 300px; height: 300px;"" />
                   </div>","null","0","0","blank","",""
"","","","","","html-keyboard-response","175","2606506","0.0-141.0","8DB8AAE0ADE141ACAA8C487CC311A959","0199d605-67d5-7fe8-89e3-f2ba6ae59dae","0199d5ef-c7d4-7cab-a194-b2c3afbaf8e8","","null","<div style=""display: flex; justify-content: center; align-items: center;"">
                     <img src=""images/causal/causal_series_10/causal_series_10_a.png"" style=""width: 300px; height: 300px;"" />
                   </div>","null","10","2","A","",""
"","","","","","html-keyboard-response","176","2612513","0.0-142.0","8DB8AAE0ADE141ACAA8C487CC311A959","0199d605-67d5-7fe8-89e3-f2ba6ae59dae","0199d5ef-c7d4-7cab-a194-b2c3afbaf8e8","","null","<div style=""display: flex; justify-content: center; align-items: center;"">
                     <img src=""images/causal/causal_series_10/causal_series_10_b.png"" style=""width: 300px; height: 300px;"" />
                   </div>","null","10","2","B","",""
"","","","","","html-keyboard-response","177","2618523","0.0-143.0","8DB8AAE0ADE141ACAA8C487CC311A959","0199d605-67d5-7fe8-89e3-f2ba6ae59dae","0199d5ef-c7d4-7cab-a194-b2c3afbaf8e8","","null","<div style=""display: flex; justify-content: center; align-items: center;"">
                     <img src=""images/causal/causal_series_10/causal_series_10_c.png"" style=""width: 300px; height: 300px;"" />
                   </div>","null","10","2","C","",""
"","","","","","html-button-response","178","2623733","0.0-144.0","8DB8AAE0ADE141ACAA8C487CC311A959","0199d605-67d5-7fe8-89e3-f2ba6ae59dae","0199d5ef-c7d4-7cab-a194-b2c3afbaf8e8","","5210","
        <div style=""display: flex; justify-content: center; align-items: center;"">
          <img src=""images/red_deck_2.png"" style=""width: 300px; height: 300px; margin-right: 10px;"" />
          <img src=""images/blue_deck_1.png"" style=""width: 300px; height: 300px;"" />
        </div>","0","10","2","choice","0",""
"","","","","","html-keyboard-response","179","2629736","0.0-145.0-0.0-0.0","8DB8AAE0ADE141ACAA8C487CC311A959","0199d605-67d5-7fe8-89e3-f2ba6ae59dae","0199d5ef-c7d4-7cab-a194-b2c3afbaf8e8","","null","<div style=""display: flex; justify-content: center; align-items: center;"">
                     <img src=""images/causal/causal_series_10/causal_series_10_d.png"" style=""width: 300px; height: 300px;"" />
                   </div>","null","10","2","D","",""
"","","","","","html-keyboard-response","180","2635751","0.0-145.0-0.0-1.0","8DB8AAE0ADE141ACAA8C487CC311A959","0199d605-67d5-7fe8-89e3-f2ba6ae59dae","0199d5ef-c7d4-7cab-a194-b2c3afbaf8e8","","null","<div style=""display: flex; justify-content: center; align-items: center;"">
                     <img src=""images/causal/causal_series_10/causal_series_10_e.png"" style=""width: 300px; height: 300px;"" />
                   </div>","null","10","2","E","",""
"","","","","","html-keyboard-response","181","2641758","0.0-145.0-0.0-2.0","8DB8AAE0ADE141ACAA8C487CC311A959","0199d605-67d5-7fe8-89e3-f2ba6ae59dae","0199d5ef-c7d4-7cab-a194-b2c3afbaf8e8","","null","<div style=""display: flex; justify-content: center; align-items: center;"">
                     <img src=""images/causal/causal_series_10/causal_series_10_f.png"" style=""width: 300px; height: 300px;"" />
                   </div>","null","10","2","F","",""
"","","","","","survey-likert","182","2647799","0.0-146.0","8DB8AAE0ADE141ACAA8C487CC311A959","0199d605-67d5-7fe8-89e3-f2ba6ae59dae","0199d5ef-c7d4-7cab-a194-b2c3afbaf8e8","","6040","","{""Q0"":1}","10","2","surprise_rating","","[0]"
"","","","","","survey-likert","183","2652185","0.0-147.0","8DB8AAE0ADE141ACAA8C487CC311A959","0199d605-67d5-7fe8-89e3-f2ba6ae59dae","0199d5ef-c7d4-7cab-a194-b2c3afbaf8e8","","4382","","{""Q0"":1}","10","2","enjoyment_rating","","[0]"
"","","","","","html-keyboard-response","184","2658200","0.0-148.0","8DB8AAE0ADE141ACAA8C487CC311A959","0199d605-67d5-7fe8-89e3-f2ba6ae59dae","0199d5ef-c7d4-7cab-a194-b2c3afbaf8e8","","null","<div style=""display: flex; justify-content: center; align-items: center;"">
                     <img src=""images/other/blank.png"" style=""width: 300px; height: 300px;"" />
                   </div>","null","0","0","blank","",""
"","","","","","html-keyboard-response","185","2664208","0.0-149.0","8DB8AAE0ADE141ACAA8C487CC311A959","0199d605-67d5-7fe8-89e3-f2ba6ae59dae","0199d5ef-c7d4-7cab-a194-b2c3afbaf8e8","","null","<div style=""display: flex; justify-content: center; align-items: center;"">
                     <img src=""images/causal/causal_series_6/causal_series_6_a.png"" style=""width: 300px; height: 300px;"" />
                   </div>","null","6","2","A","",""
"","","","","","html-keyboard-response","186","2670222","0.0-150.0","8DB8AAE0ADE141ACAA8C487CC311A959","0199d605-67d5-7fe8-89e3-f2ba6ae59dae","0199d5ef-c7d4-7cab-a194-b2c3afbaf8e8","","null","<div style=""display: flex; justify-content: center; align-items: center;"">
                     <img src=""images/causal/causal_series_6/causal_series_6_b.png"" style=""width: 300px; height: 300px;"" />
                   </div>","null","6","2","B","",""
"","","","","","html-keyboard-response","187","2676225","0.0-151.0","8DB8AAE0ADE141ACAA8C487CC311A959","0199d605-67d5-7fe8-89e3-f2ba6ae59dae","0199d5ef-c7d4-7cab-a194-b2c3afbaf8e8","","null","<div style=""display: flex; justify-content: center; align-items: center;"">
                     <img src=""images/causal/causal_series_6/causal_series_6_c.png"" style=""width: 300px; height: 300px;"" />
                   </div>","null","6","2","C","",""
"","","","","","html-button-response","188","2686120","0.0-152.0","8DB8AAE0ADE141ACAA8C487CC311A959","0199d605-67d5-7fe8-89e3-f2ba6ae59dae","0199d5ef-c7d4-7cab-a194-b2c3afbaf8e8","","9895","
        <div style=""display: flex; justify-content: center; align-items: center;"">
          <img src=""images/red_deck_2.png"" style=""width: 300px; height: 300px; margin-right: 10px;"" />
          <img src=""images/blue_deck_1.png"" style=""width: 300px; height: 300px;"" />
        </div>","1","6","2","choice","1",""
"","","","","","html-keyboard-response","189","2692138","0.0-153.0-1.0-0.0","8DB8AAE0ADE141ACAA8C487CC311A959","0199d605-67d5-7fe8-89e3-f2ba6ae59dae","0199d5ef-c7d4-7cab-a194-b2c3afbaf8e8","","null","<div style=""display: flex; justify-content: center; align-items: center;"">
                     <img src=""images/semantic/semantic_series_6/semantic_series_6_d.png"" style=""width: 300px; height: 300px;"" />
                   </div>","null","6","2","D","",""
"","","","","","html-keyboard-response","190","2698147","0.0-153.0-1.0-1.0","8DB8AAE0ADE141ACAA8C487CC311A959","0199d605-67d5-7fe8-89e3-f2ba6ae59dae","0199d5ef-c7d4-7cab-a194-b2c3afbaf8e8","","null","<div style=""display: flex; justify-content: center; align-items: center;"">
                     <img src=""images/semantic/semantic_series_6/semantic_series_6_e.png"" style=""width: 300px; height: 300px;"" />
                   </div>","null","6","2","E","",""
"","","","","","html-keyboard-response","191","2704155","0.0-153.0-1.0-2.0","8DB8AAE0ADE141ACAA8C487CC311A959","0199d605-67d5-7fe8-89e3-f2ba6ae59dae","0199d5ef-c7d4-7cab-a194-b2c3afbaf8e8","","null","<div style=""display: flex; justify-content: center; align-items: center;"">
                     <img src=""images/semantic/semantic_series_6/semantic_series_6_f.png"" style=""width: 300px; height: 300px;"" />
                   </div>","null","6","2","F","",""
"","","","","","survey-likert","192","2708741","0.0-154.0","8DB8AAE0ADE141ACAA8C487CC311A959","0199d605-67d5-7fe8-89e3-f2ba6ae59dae","0199d5ef-c7d4-7cab-a194-b2c3afbaf8e8","","4584","","{""Q0"":2}","6","2","surprise_rating","","[0]"
"","","","","","survey-likert","193","2711192","0.0-155.0","8DB8AAE0ADE141ACAA8C487CC311A959","0199d605-67d5-7fe8-89e3-f2ba6ae59dae","0199d5ef-c7d4-7cab-a194-b2c3afbaf8e8","","2448","","{""Q0"":2}","6","2","enjoyment_rating","","[0]"
"","","","","","html-keyboard-response","194","2717206","0.0-156.0","8DB8AAE0ADE141ACAA8C487CC311A959","0199d605-67d5-7fe8-89e3-f2ba6ae59dae","0199d5ef-c7d4-7cab-a194-b2c3afbaf8e8","","null","<div style=""display: flex; justify-content: center; align-items: center;"">
                     <img src=""images/other/blank.png"" style=""width: 300px; height: 300px;"" />
                   </div>","null","0","0","blank","",""
"","","","","","html-keyboard-response","195","2723220","0.0-157.0","8DB8AAE0ADE141ACAA8C487CC311A959","0199d605-67d5-7fe8-89e3-f2ba6ae59dae","0199d5ef-c7d4-7cab-a194-b2c3afbaf8e8","","null","<div style=""display: flex; justify-content: center; align-items: center;"">
                     <img src=""images/causal/causal_series_7/causal_series_7_a.png"" style=""width: 300px; height: 300px;"" />
                   </div>","null","7","2","A","",""
"","","","","","html-keyboard-response","196","2729225","0.0-158.0","8DB8AAE0ADE141ACAA8C487CC311A959","0199d605-67d5-7fe8-89e3-f2ba6ae59dae","0199d5ef-c7d4-7cab-a194-b2c3afbaf8e8","","null","<div style=""display: flex; justify-content: center; align-items: center;"">
                     <img src=""images/causal/causal_series_7/causal_series_7_b.png"" style=""width: 300px; height: 300px;"" />
                   </div>","null","7","2","B","",""
"","","","","","html-keyboard-response","197","2735242","0.0-159.0","8DB8AAE0ADE141ACAA8C487CC311A959","0199d605-67d5-7fe8-89e3-f2ba6ae59dae","0199d5ef-c7d4-7cab-a194-b2c3afbaf8e8","","null","<div style=""display: flex; justify-content: center; align-items: center;"">
                     <img src=""images/causal/causal_series_7/causal_series_7_c.png"" style=""width: 300px; height: 300px;"" />
                   </div>","null","7","2","C","",""
"","","","","","html-button-response","198","2752344","0.0-160.0","8DB8AAE0ADE141ACAA8C487CC311A959","0199d605-67d5-7fe8-89e3-f2ba6ae59dae","0199d5ef-c7d4-7cab-a194-b2c3afbaf8e8","","17103","
        <div style=""display: flex; justify-content: center; align-items: center;"">
          <img src=""images/red_deck_2.png"" style=""width: 300px; height: 300px; margin-right: 10px;"" />
          <img src=""images/blue_deck_1.png"" style=""width: 300px; height: 300px;"" />
        </div>","0","7","2","choice","0",""
"","","","","","html-keyboard-response","199","2758355","0.0-161.0-0.0-0.0","8DB8AAE0ADE141ACAA8C487CC311A959","0199d605-67d5-7fe8-89e3-f2ba6ae59dae","0199d5ef-c7d4-7cab-a194-b2c3afbaf8e8","","null","<div style=""display: flex; justify-content: center; align-items: center;"">
                     <img src=""images/causal/causal_series_7/causal_series_7_d.png"" style=""width: 300px; height: 300px;"" />
                   </div>","null","7","2","D","",""
"","","","","","html-keyboard-response","200","2764358","0.0-161.0-0.0-1.0","8DB8AAE0ADE141ACAA8C487CC311A959","0199d605-67d5-7fe8-89e3-f2ba6ae59dae","0199d5ef-c7d4-7cab-a194-b2c3afbaf8e8","","null","<div style=""display: flex; justify-content: center; align-items: center;"">
                     <img src=""images/causal/causal_series_7/causal_series_7_e.png"" style=""width: 300px; height: 300px;"" />
                   </div>","null","7","2","E","",""
"","","","","","html-keyboard-response","201","2770366","0.0-161.0-0.0-2.0","8DB8AAE0ADE141ACAA8C487CC311A959","0199d605-67d5-7fe8-89e3-f2ba6ae59dae","0199d5ef-c7d4-7cab-a194-b2c3afbaf8e8","","null","<div style=""display: flex; justify-content: center; align-items: center;"">
                     <img src=""images/causal/causal_series_7/causal_series_7_f.png"" style=""width: 300px; height: 300px;"" />
                   </div>","null","7","2","F","",""
"","","","","","survey-likert","202","2775507","0.0-162.0","8DB8AAE0ADE141ACAA8C487CC311A959","0199d605-67d5-7fe8-89e3-f2ba6ae59dae","0199d5ef-c7d4-7cab-a194-b2c3afbaf8e8","","5139","","{""Q0"":2}","7","2","surprise_rating","","[0]"
"","","","","","survey-likert","203","2777206","0.0-163.0","8DB8AAE0ADE141ACAA8C487CC311A959","0199d605-67d5-7fe8-89e3-f2ba6ae59dae","0199d5ef-c7d4-7cab-a194-b2c3afbaf8e8","","1696","","{""Q0"":3}","7","2","enjoyment_rating","","[0]"
"","","","","","html-keyboard-response","204","2783213","0.0-164.0","8DB8AAE0ADE141ACAA8C487CC311A959","0199d605-67d5-7fe8-89e3-f2ba6ae59dae","0199d5ef-c7d4-7cab-a194-b2c3afbaf8e8","","null","<div style=""display: flex; justify-content: center; align-items: center;"">
                     <img src=""images/other/blank.png"" style=""width: 300px; height: 300px;"" />
                   </div>","null","0","0","blank","",""
"","","","","","survey-text","205","2814629","0.0-165.0","8DB8AAE0ADE141ACAA8C487CC311A959","0199d605-67d5-7fe8-89e3-f2ba6ae59dae","0199d5ef-c7d4-7cab-a194-b2c3afbaf8e8","","31395","","{""Q0"":""One of the cards aligns with the first part of the story and the other is unrelated. ""}","","","","",""
"","","","","","html-button-response","206","2820770","0.0-166.0","8DB8AAE0ADE141ACAA8C487CC311A959","0199d605-67d5-7fe8-89e3-f2ba6ae59dae","0199d5ef-c7d4-7cab-a194-b2c3afbaf8e8","","6139","Which color deck do the following sentences continue the story from?","0","","","","",""
"","","","","","html-button-response","207","2822121","0.0-167.0","8DB8AAE0ADE141ACAA8C487CC311A959","0199d605-67d5-7fe8-89e3-f2ba6ae59dae","0199d5ef-c7d4-7cab-a194-b2c3afbaf8e8","","1348","Which color deck do the following sentences NOT follow the story from?","1","","","","",""
"","","","","","html-button-response","208","2824615","0.0-168.0","8DB8AAE0ADE141ACAA8C487CC311A959","0199d605-67d5-7fe8-89e3-f2ba6ae59dae","0199d5ef-c7d4-7cab-a194-b2c3afbaf8e8","","2493","Which type of deck did you prefer overall?","0","","","","",""
"","","","","","survey-text","209","2830218","0.0-169.0","8DB8AAE0ADE141ACAA8C487CC311A959","0199d605-67d5-7fe8-89e3-f2ba6ae59dae","0199d5ef-c7d4-7cab-a194-b2c3afbaf8e8","","5588","","{""Q0"":""female"",""Q1"":""31""}","","","","",""
"","","","","","instructions","210","2834005","0.0-170.0","8DB8AAE0ADE141ACAA8C487CC311A959","0199d605-67d5-7fe8-89e3-f2ba6ae59dae","0199d5ef-c7d4-7cab-a194-b2c3afbaf8e8","[{""page_index"":0,""viewing_time"":3783}]","3784","","","","","","",""
