"success","timeout","failed_images","failed_audio","failed_video","trial_type","trial_index","time_elapsed","internal_node_id","subject_id","study_id","session_id","view_history","rt","stimulus","response","series","repetition","phase","choice","question_order"
"true","false","[]","[]","[]","preload","0","396","0.0-0.0","862DE92E02A74C3BAEE8EFBED4955858","0199d685-ec6f-70aa-a527-afb7086cb481","0199d675-8795-765b-adc2-c813de8cd3d1","","","","","","","","",""
"","","","","","instructions","1","7293","0.0-1.0","862DE92E02A74C3BAEE8EFBED4955858","0199d685-ec6f-70aa-a527-afb7086cb481","0199d675-8795-765b-adc2-c813de8cd3d1","[{""page_index"":0,""viewing_time"":6896}]","6896","","","","","","",""
"","","","","","instructions","2","10237","0.0-2.0","862DE92E02A74C3BAEE8EFBED4955858","0199d685-ec6f-70aa-a527-afb7086cb481","0199d675-8795-765b-adc2-c813de8cd3d1","[{""page_index"":0,""viewing_time"":2943}]","2944","","","","","","",""
"true","","","","","fullscreen","3","12582","0.0-3.0","862DE92E02A74C3BAEE8EFBED4955858","0199d685-ec6f-70aa-a527-afb7086cb481","0199d675-8795-765b-adc2-c813de8cd3d1","","1343","","","","","","",""
"","","","","","instructions","4","27740","0.0-4.0","862DE92E02A74C3BAEE8EFBED4955858","0199d685-ec6f-70aa-a527-afb7086cb481","0199d675-8795-765b-adc2-c813de8cd3d1","[{""page_index"":0,""viewing_time"":15158}]","15158","","","","","","",""
"","","","","","html-keyboard-response","5","33755","0.0-5.0","862DE92E02A74C3BAEE8EFBED4955858","0199d685-ec6f-70aa-a527-afb7086cb481","0199d675-8795-765b-adc2-c813de8cd3d1","","null","<div style=""display: flex; justify-content: center; align-items: center;"">
                     <img src=""images/causal/causal_series_7/causal_series_7_a.png"" style=""width: 300px; height: 300px;"" />
                   </div>","null","7","2","A","",""
"","","","","","html-button-response","6","35805","0.0-6.0","862DE92E02A74C3BAEE8EFBED4955858","0199d685-ec6f-70aa-a527-afb7086cb481","0199d675-8795-765b-adc2-c813de8cd3d1","","2047","
        <div style=""display: flex; justify-content: center; align-items: center;"">
          <img src=""images/red_deck_2.png"" style=""width: 300px; height: 300px; margin-right: 10px;"" />
          <img src=""images/blue_deck_1.png"" style=""width: 300px; height: 300px;"" />
        </div>","1","7","2","choice","1",""
"","","","","","html-keyboard-response","7","41808","0.0-7.0-1.0-0.0","862DE92E02A74C3BAEE8EFBED4955858","0199d685-ec6f-70aa-a527-afb7086cb481","0199d675-8795-765b-adc2-c813de8cd3d1","","null","<div style=""display: flex; justify-content: center; align-items: center;"">
                     <img src=""images/semantic/semantic_series_7/semantic_series_7_b.png"" style=""width: 300px; height: 300px;"" />
                   </div>","null","7","2","B","",""
"","","","","","html-keyboard-response","8","47816","0.0-7.0-1.0-1.0","862DE92E02A74C3BAEE8EFBED4955858","0199d685-ec6f-70aa-a527-afb7086cb481","0199d675-8795-765b-adc2-c813de8cd3d1","","null","<div style=""display: flex; justify-content: center; align-items: center;"">
                     <img src=""images/semantic/semantic_series_7/semantic_series_7_c.png"" style=""width: 300px; height: 300px;"" />
                   </div>","null","7","2","C","",""
"","","","","","html-keyboard-response","9","53831","0.0-7.0-1.0-2.0","862DE92E02A74C3BAEE8EFBED4955858","0199d685-ec6f-70aa-a527-afb7086cb481","0199d675-8795-765b-adc2-c813de8cd3d1","","null","<div style=""display: flex; justify-content: center; align-items: center;"">
                     <img src=""images/semantic/semantic_series_7/semantic_series_7_d.png"" style=""width: 300px; height: 300px;"" />
                   </div>","null","7","2","D","",""
"","","","","","survey-likert","10","59077","0.0-8.0","862DE92E02A74C3BAEE8EFBED4955858","0199d685-ec6f-70aa-a527-afb7086cb481","0199d675-8795-765b-adc2-c813de8cd3d1","","5245","","{""Q0"":4}","7","2","surprise_rating","","[0]"
"","","","","","survey-likert","11","61453","0.0-9.0","862DE92E02A74C3BAEE8EFBED4955858","0199d685-ec6f-70aa-a527-afb7086cb481","0199d675-8795-765b-adc2-c813de8cd3d1","","2375","","{""Q0"":4}","7","2","enjoyment_rating","","[0]"
"","","","","","html-keyboard-response","12","67461","0.0-10.0","862DE92E02A74C3BAEE8EFBED4955858","0199d685-ec6f-70aa-a527-afb7086cb481","0199d675-8795-765b-adc2-c813de8cd3d1","","null","<div style=""display: flex; justify-content: center; align-items: center;"">
                     <img src=""images/other/blank.png"" style=""width: 300px; height: 300px;"" />
                   </div>","null","0","0","blank","",""
"","","","","","html-keyboard-response","13","73469","0.0-11.0","862DE92E02A74C3BAEE8EFBED4955858","0199d685-ec6f-70aa-a527-afb7086cb481","0199d675-8795-765b-adc2-c813de8cd3d1","","null","<div style=""display: flex; justify-content: center; align-items: center;"">
                     <img src=""images/causal/causal_series_7/causal_series_7_a.png"" style=""width: 300px; height: 300px;"" />
                   </div>","null","7","1","A","",""
"","","","","","html-button-response","14","74733","0.0-12.0","862DE92E02A74C3BAEE8EFBED4955858","0199d685-ec6f-70aa-a527-afb7086cb481","0199d675-8795-765b-adc2-c813de8cd3d1","","1263","
        <div style=""display: flex; justify-content: center; align-items: center;"">
          <img src=""images/red_deck_2.png"" style=""width: 300px; height: 300px; margin-right: 10px;"" />
          <img src=""images/blue_deck_1.png"" style=""width: 300px; height: 300px;"" />
        </div>","0","7","1","choice","0",""
"","","","","","html-keyboard-response","15","80749","0.0-13.0-0.0-0.0","862DE92E02A74C3BAEE8EFBED4955858","0199d685-ec6f-70aa-a527-afb7086cb481","0199d675-8795-765b-adc2-c813de8cd3d1","","null","<div style=""display: flex; justify-content: center; align-items: center;"">
                     <img src=""images/causal/causal_series_7/causal_series_7_b.png"" style=""width: 300px; height: 300px;"" />
                   </div>","null","7","1","B","",""
"","","","","","html-keyboard-response","16","86758","0.0-13.0-0.0-1.0","862DE92E02A74C3BAEE8EFBED4955858","0199d685-ec6f-70aa-a527-afb7086cb481","0199d675-8795-765b-adc2-c813de8cd3d1","","null","<div style=""display: flex; justify-content: center; align-items: center;"">
                     <img src=""images/causal/causal_series_7/causal_series_7_c.png"" style=""width: 300px; height: 300px;"" />
                   </div>","null","7","1","C","",""
"","","","","","html-keyboard-response","17","92769","0.0-13.0-0.0-2.0","862DE92E02A74C3BAEE8EFBED4955858","0199d685-ec6f-70aa-a527-afb7086cb481","0199d675-8795-765b-adc2-c813de8cd3d1","","null","<div style=""display: flex; justify-content: center; align-items: center;"">
                     <img src=""images/causal/causal_series_7/causal_series_7_d.png"" style=""width: 300px; height: 300px;"" />
                   </div>","null","7","1","D","",""
"","","","","","survey-likert","18","96565","0.0-14.0","862DE92E02A74C3BAEE8EFBED4955858","0199d685-ec6f-70aa-a527-afb7086cb481","0199d675-8795-765b-adc2-c813de8cd3d1","","3794","","{""Q0"":4}","7","1","surprise_rating","","[0]"
"","","","","","survey-likert","19","99053","0.0-15.0","862DE92E02A74C3BAEE8EFBED4955858","0199d685-ec6f-70aa-a527-afb7086cb481","0199d675-8795-765b-adc2-c813de8cd3d1","","2487","","{""Q0"":4}","7","1","enjoyment_rating","","[0]"
"","","","","","html-keyboard-response","20","105060","0.0-16.0","862DE92E02A74C3BAEE8EFBED4955858","0199d685-ec6f-70aa-a527-afb7086cb481","0199d675-8795-765b-adc2-c813de8cd3d1","","null","<div style=""display: flex; justify-content: center; align-items: center;"">
                     <img src=""images/other/blank.png"" style=""width: 300px; height: 300px;"" />
                   </div>","null","0","0","blank","",""
"","","","","","html-keyboard-response","21","111064","0.0-17.0","862DE92E02A74C3BAEE8EFBED4955858","0199d685-ec6f-70aa-a527-afb7086cb481","0199d675-8795-765b-adc2-c813de8cd3d1","","null","<div style=""display: flex; justify-content: center; align-items: center;"">
                     <img src=""images/causal/causal_series_5/causal_series_5_a.png"" style=""width: 300px; height: 300px;"" />
                   </div>","null","5","1","A","",""
"","","","","","html-button-response","22","111941","0.0-18.0","862DE92E02A74C3BAEE8EFBED4955858","0199d685-ec6f-70aa-a527-afb7086cb481","0199d675-8795-765b-adc2-c813de8cd3d1","","875","
        <div style=""display: flex; justify-content: center; align-items: center;"">
          <img src=""images/red_deck_2.png"" style=""width: 300px; height: 300px; margin-right: 10px;"" />
          <img src=""images/blue_deck_1.png"" style=""width: 300px; height: 300px;"" />
        </div>","1","5","1","choice","1",""
"","","","","","html-keyboard-response","23","117956","0.0-19.0-1.0-0.0","862DE92E02A74C3BAEE8EFBED4955858","0199d685-ec6f-70aa-a527-afb7086cb481","0199d675-8795-765b-adc2-c813de8cd3d1","","null","<div style=""display: flex; justify-content: center; align-items: center;"">
                     <img src=""images/semantic/semantic_series_5/semantic_series_5_b.png"" style=""width: 300px; height: 300px;"" />
                   </div>","null","5","1","B","",""
"","","","","","html-keyboard-response","24","123964","0.0-19.0-1.0-1.0","862DE92E02A74C3BAEE8EFBED4955858","0199d685-ec6f-70aa-a527-afb7086cb481","0199d675-8795-765b-adc2-c813de8cd3d1","","null","<div style=""display: flex; justify-content: center; align-items: center;"">
                     <img src=""images/semantic/semantic_series_5/semantic_series_5_c.png"" style=""width: 300px; height: 300px;"" />
                   </div>","null","5","1","C","",""
"","","","","","html-keyboard-response","25","129976","0.0-19.0-1.0-2.0","862DE92E02A74C3BAEE8EFBED4955858","0199d685-ec6f-70aa-a527-afb7086cb481","0199d675-8795-765b-adc2-c813de8cd3d1","","null","<div style=""display: flex; justify-content: center; align-items: center;"">
                     <img src=""images/semantic/semantic_series_5/semantic_series_5_d.png"" style=""width: 300px; height: 300px;"" />
                   </div>","null","5","1","D","",""
"","","","","","survey-likert","26","133813","0.0-20.0","862DE92E02A74C3BAEE8EFBED4955858","0199d685-ec6f-70aa-a527-afb7086cb481","0199d675-8795-765b-adc2-c813de8cd3d1","","3836","","{""Q0"":4}","5","1","surprise_rating","","[0]"
"","","","","","survey-likert","27","137501","0.0-21.0","862DE92E02A74C3BAEE8EFBED4955858","0199d685-ec6f-70aa-a527-afb7086cb481","0199d675-8795-765b-adc2-c813de8cd3d1","","3688","","{""Q0"":4}","5","1","enjoyment_rating","","[0]"
"","","","","","html-keyboard-response","28","143517","0.0-22.0","862DE92E02A74C3BAEE8EFBED4955858","0199d685-ec6f-70aa-a527-afb7086cb481","0199d675-8795-765b-adc2-c813de8cd3d1","","null","<div style=""display: flex; justify-content: center; align-items: center;"">
                     <img src=""images/other/blank.png"" style=""width: 300px; height: 300px;"" />
                   </div>","null","0","0","blank","",""
"","","","","","html-keyboard-response","29","149532","0.0-23.0","862DE92E02A74C3BAEE8EFBED4955858","0199d685-ec6f-70aa-a527-afb7086cb481","0199d675-8795-765b-adc2-c813de8cd3d1","","null","<div style=""display: flex; justify-content: center; align-items: center;"">
                     <img src=""images/causal/causal_series_6/causal_series_6_a.png"" style=""width: 300px; height: 300px;"" />
                   </div>","null","6","2","A","",""
"","","","","","html-button-response","30","150837","0.0-24.0","862DE92E02A74C3BAEE8EFBED4955858","0199d685-ec6f-70aa-a527-afb7086cb481","0199d675-8795-765b-adc2-c813de8cd3d1","","1304","
        <div style=""display: flex; justify-content: center; align-items: center;"">
          <img src=""images/red_deck_2.png"" style=""width: 300px; height: 300px; margin-right: 10px;"" />
          <img src=""images/blue_deck_1.png"" style=""width: 300px; height: 300px;"" />
        </div>","0","6","2","choice","0",""
"","","","","","html-keyboard-response","31","156837","0.0-25.0-0.0-0.0","862DE92E02A74C3BAEE8EFBED4955858","0199d685-ec6f-70aa-a527-afb7086cb481","0199d675-8795-765b-adc2-c813de8cd3d1","","null","<div style=""display: flex; justify-content: center; align-items: center;"">
                     <img src=""images/causal/causal_series_6/causal_series_6_b.png"" style=""width: 300px; height: 300px;"" />
                   </div>","null","6","2","B","",""
"","","","","","html-keyboard-response","32","162846","0.0-25.0-0.0-1.0","862DE92E02A74C3BAEE8EFBED4955858","0199d685-ec6f-70aa-a527-afb7086cb481","0199d675-8795-765b-adc2-c813de8cd3d1","","null","<div style=""display: flex; justify-content: center; align-items: center;"">
                     <img src=""images/causal/causal_series_6/causal_series_6_c.png"" style=""width: 300px; height: 300px;"" />
                   </div>","null","6","2","C","",""
"","","","","","html-keyboard-response","33","168857","0.0-25.0-0.0-2.0","862DE92E02A74C3BAEE8EFBED4955858","0199d685-ec6f-70aa-a527-afb7086cb481","0199d675-8795-765b-adc2-c813de8cd3d1","","null","<div style=""display: flex; justify-content: center; align-items: center;"">
                     <img src=""images/causal/causal_series_6/causal_series_6_d.png"" style=""width: 300px; height: 300px;"" />
                   </div>","null","6","2","D","",""
"","","","","","survey-likert","34","173245","0.0-26.0","862DE92E02A74C3BAEE8EFBED4955858","0199d685-ec6f-70aa-a527-afb7086cb481","0199d675-8795-765b-adc2-c813de8cd3d1","","4387","","{""Q0"":2}","6","2","surprise_rating","","[0]"
"","","","","","survey-likert","35","176005","0.0-27.0","862DE92E02A74C3BAEE8EFBED4955858","0199d685-ec6f-70aa-a527-afb7086cb481","0199d675-8795-765b-adc2-c813de8cd3d1","","2759","","{""Q0"":2}","6","2","enjoyment_rating","","[0]"
"","","","","","html-keyboard-response","36","182006","0.0-28.0","862DE92E02A74C3BAEE8EFBED4955858","0199d685-ec6f-70aa-a527-afb7086cb481","0199d675-8795-765b-adc2-c813de8cd3d1","","null","<div style=""display: flex; justify-content: center; align-items: center;"">
                     <img src=""images/other/blank.png"" style=""width: 300px; height: 300px;"" />
                   </div>","null","0","0","blank","",""
"","","","","","html-keyboard-response","37","188016","0.0-29.0","862DE92E02A74C3BAEE8EFBED4955858","0199d685-ec6f-70aa-a527-afb7086cb481","0199d675-8795-765b-adc2-c813de8cd3d1","","null","<div style=""display: flex; justify-content: center; align-items: center;"">
                     <img src=""images/causal/causal_series_9/causal_series_9_a.png"" style=""width: 300px; height: 300px;"" />
                   </div>","null","9","1","A","",""
"","","","","","html-button-response","38","189061","0.0-30.0","862DE92E02A74C3BAEE8EFBED4955858","0199d685-ec6f-70aa-a527-afb7086cb481","0199d675-8795-765b-adc2-c813de8cd3d1","","1043","
        <div style=""display: flex; justify-content: center; align-items: center;"">
          <img src=""images/red_deck_2.png"" style=""width: 300px; height: 300px; margin-right: 10px;"" />
          <img src=""images/blue_deck_1.png"" style=""width: 300px; height: 300px;"" />
        </div>","1","9","1","choice","1",""
"","","","","","html-keyboard-response","39","195066","0.0-31.0-1.0-0.0","862DE92E02A74C3BAEE8EFBED4955858","0199d685-ec6f-70aa-a527-afb7086cb481","0199d675-8795-765b-adc2-c813de8cd3d1","","null","<div style=""display: flex; justify-content: center; align-items: center;"">
                     <img src=""images/semantic/semantic_series_9/semantic_series_9_b.png"" style=""width: 300px; height: 300px;"" />
                   </div>","null","9","1","B","",""
"","","","","","html-keyboard-response","40","201070","0.0-31.0-1.0-1.0","862DE92E02A74C3BAEE8EFBED4955858","0199d685-ec6f-70aa-a527-afb7086cb481","0199d675-8795-765b-adc2-c813de8cd3d1","","null","<div style=""display: flex; justify-content: center; align-items: center;"">
                     <img src=""images/semantic/semantic_series_9/semantic_series_9_c.png"" style=""width: 300px; height: 300px;"" />
                   </div>","null","9","1","C","",""
"","","","","","html-keyboard-response","41","207073","0.0-31.0-1.0-2.0","862DE92E02A74C3BAEE8EFBED4955858","0199d685-ec6f-70aa-a527-afb7086cb481","0199d675-8795-765b-adc2-c813de8cd3d1","","null","<div style=""display: flex; justify-content: center; align-items: center;"">
                     <img src=""images/semantic/semantic_series_9/semantic_series_9_d.png"" style=""width: 300px; height: 300px;"" />
                   </div>","null","9","1","D","",""
"","","","","","survey-likert","42","210197","0.0-32.0","862DE92E02A74C3BAEE8EFBED4955858","0199d685-ec6f-70aa-a527-afb7086cb481","0199d675-8795-765b-adc2-c813de8cd3d1","","3123","","{""Q0"":1}","9","1","surprise_rating","","[0]"
"","","","","","survey-likert","43","211629","0.0-33.0","862DE92E02A74C3BAEE8EFBED4955858","0199d685-ec6f-70aa-a527-afb7086cb481","0199d675-8795-765b-adc2-c813de8cd3d1","","1431","","{""Q0"":1}","9","1","enjoyment_rating","","[0]"
"","","","","","html-keyboard-response","44","217644","0.0-34.0","862DE92E02A74C3BAEE8EFBED4955858","0199d685-ec6f-70aa-a527-afb7086cb481","0199d675-8795-765b-adc2-c813de8cd3d1","","null","<div style=""display: flex; justify-content: center; align-items: center;"">
                     <img src=""images/other/blank.png"" style=""width: 300px; height: 300px;"" />
                   </div>","null","0","0","blank","",""
"","","","","","html-keyboard-response","45","223647","0.0-35.0","862DE92E02A74C3BAEE8EFBED4955858","0199d685-ec6f-70aa-a527-afb7086cb481","0199d675-8795-765b-adc2-c813de8cd3d1","","null","<div style=""display: flex; justify-content: center; align-items: center;"">
                     <img src=""images/causal/causal_series_3/causal_series_3_a.png"" style=""width: 300px; height: 300px;"" />
                   </div>","null","3","2","A","",""
"","","","","","html-button-response","46","224765","0.0-36.0","862DE92E02A74C3BAEE8EFBED4955858","0199d685-ec6f-70aa-a527-afb7086cb481","0199d675-8795-765b-adc2-c813de8cd3d1","","1116","
        <div style=""display: flex; justify-content: center; align-items: center;"">
          <img src=""images/red_deck_2.png"" style=""width: 300px; height: 300px; margin-right: 10px;"" />
          <img src=""images/blue_deck_1.png"" style=""width: 300px; height: 300px;"" />
        </div>","0","3","2","choice","0",""
"","","","","","html-keyboard-response","47","230777","0.0-37.0-0.0-0.0","862DE92E02A74C3BAEE8EFBED4955858","0199d685-ec6f-70aa-a527-afb7086cb481","0199d675-8795-765b-adc2-c813de8cd3d1","","null","<div style=""display: flex; justify-content: center; align-items: center;"">
                     <img src=""images/causal/causal_series_3/causal_series_3_b.png"" style=""width: 300px; height: 300px;"" />
                   </div>","null","3","2","B","",""
"","","","","","html-keyboard-response","48","236779","0.0-37.0-0.0-1.0","862DE92E02A74C3BAEE8EFBED4955858","0199d685-ec6f-70aa-a527-afb7086cb481","0199d675-8795-765b-adc2-c813de8cd3d1","","null","<div style=""display: flex; justify-content: center; align-items: center;"">
                     <img src=""images/causal/causal_series_3/causal_series_3_c.png"" style=""width: 300px; height: 300px;"" />
                   </div>","null","3","2","C","",""
"","","","","","html-keyboard-response","49","242792","0.0-37.0-0.0-2.0","862DE92E02A74C3BAEE8EFBED4955858","0199d685-ec6f-70aa-a527-afb7086cb481","0199d675-8795-765b-adc2-c813de8cd3d1","","null","<div style=""display: flex; justify-content: center; align-items: center;"">
                     <img src=""images/causal/causal_series_3/causal_series_3_d.png"" style=""width: 300px; height: 300px;"" />
                   </div>","null","3","2","D","",""
"","","","","","survey-likert","50","246981","0.0-38.0","862DE92E02A74C3BAEE8EFBED4955858","0199d685-ec6f-70aa-a527-afb7086cb481","0199d675-8795-765b-adc2-c813de8cd3d1","","4188","","{""Q0"":3}","3","2","surprise_rating","","[0]"
"","","","","","survey-likert","51","248661","0.0-39.0","862DE92E02A74C3BAEE8EFBED4955858","0199d685-ec6f-70aa-a527-afb7086cb481","0199d675-8795-765b-adc2-c813de8cd3d1","","1679","","{""Q0"":2}","3","2","enjoyment_rating","","[0]"
"","","","","","html-keyboard-response","52","254671","0.0-40.0","862DE92E02A74C3BAEE8EFBED4955858","0199d685-ec6f-70aa-a527-afb7086cb481","0199d675-8795-765b-adc2-c813de8cd3d1","","null","<div style=""display: flex; justify-content: center; align-items: center;"">
                     <img src=""images/other/blank.png"" style=""width: 300px; height: 300px;"" />
                   </div>","null","0","0","blank","",""
"","","","","","html-keyboard-response","53","260675","0.0-41.0","862DE92E02A74C3BAEE8EFBED4955858","0199d685-ec6f-70aa-a527-afb7086cb481","0199d675-8795-765b-adc2-c813de8cd3d1","","null","<div style=""display: flex; justify-content: center; align-items: center;"">
                     <img src=""images/causal/causal_series_6/causal_series_6_a.png"" style=""width: 300px; height: 300px;"" />
                   </div>","null","6","1","A","",""
"","","","","","html-button-response","54","263805","0.0-42.0","862DE92E02A74C3BAEE8EFBED4955858","0199d685-ec6f-70aa-a527-afb7086cb481","0199d675-8795-765b-adc2-c813de8cd3d1","","3129","
        <div style=""display: flex; justify-content: center; align-items: center;"">
          <img src=""images/red_deck_2.png"" style=""width: 300px; height: 300px; margin-right: 10px;"" />
          <img src=""images/blue_deck_1.png"" style=""width: 300px; height: 300px;"" />
        </div>","1","6","1","choice","1",""
"","","","","","html-keyboard-response","55","269821","0.0-43.0-1.0-0.0","862DE92E02A74C3BAEE8EFBED4955858","0199d685-ec6f-70aa-a527-afb7086cb481","0199d675-8795-765b-adc2-c813de8cd3d1","","null","<div style=""display: flex; justify-content: center; align-items: center;"">
                     <img src=""images/semantic/semantic_series_6/semantic_series_6_b.png"" style=""width: 300px; height: 300px;"" />
                   </div>","null","6","1","B","",""
"","","","","","html-keyboard-response","56","275835","0.0-43.0-1.0-1.0","862DE92E02A74C3BAEE8EFBED4955858","0199d685-ec6f-70aa-a527-afb7086cb481","0199d675-8795-765b-adc2-c813de8cd3d1","","null","<div style=""display: flex; justify-content: center; align-items: center;"">
                     <img src=""images/semantic/semantic_series_6/semantic_series_6_c.png"" style=""width: 300px; height: 300px;"" />
                   </div>","null","6","1","C","",""
"","","","","","html-keyboard-response","57","281844","0.0-43.0-1.0-2.0","862DE92E02A74C3BAEE8EFBED4955858","0199d685-ec6f-70aa-a527-afb7086cb481","0199d675-8795-765b-adc2-c813de8cd3d1","","null","<div style=""display: flex; justify-content: center; align-items: center;"">
                     <img src=""images/semantic/semantic_series_6/semantic_series_6_d.png"" style=""width: 300px; height: 300px;"" />
                   </div>","null","6","1","D","",""
"","","","","","survey-likert","58","284789","0.0-44.0","862DE92E02A74C3BAEE8EFBED4955858","0199d685-ec6f-70aa-a527-afb7086cb481","0199d675-8795-765b-adc2-c813de8cd3d1","","2943","","{""Q0"":1}","6","1","surprise_rating","","[0]"
"","","","","","survey-likert","59","286253","0.0-45.0","862DE92E02A74C3BAEE8EFBED4955858","0199d685-ec6f-70aa-a527-afb7086cb481","0199d675-8795-765b-adc2-c813de8cd3d1","","1464","","{""Q0"":1}","6","1","enjoyment_rating","","[0]"
"","","","","","html-keyboard-response","60","292258","0.0-46.0","862DE92E02A74C3BAEE8EFBED4955858","0199d685-ec6f-70aa-a527-afb7086cb481","0199d675-8795-765b-adc2-c813de8cd3d1","","null","<div style=""display: flex; justify-content: center; align-items: center;"">
                     <img src=""images/other/blank.png"" style=""width: 300px; height: 300px;"" />
                   </div>","null","0","0","blank","",""
"","","","","","html-keyboard-response","61","298265","0.0-47.0","862DE92E02A74C3BAEE8EFBED4955858","0199d685-ec6f-70aa-a527-afb7086cb481","0199d675-8795-765b-adc2-c813de8cd3d1","","null","<div style=""display: flex; justify-content: center; align-items: center;"">
                     <img src=""images/causal/causal_series_1/causal_series_1_a.png"" style=""width: 300px; height: 300px;"" />
                   </div>","null","1","2","A","",""
"","","","","","html-button-response","62","300789","0.0-48.0","862DE92E02A74C3BAEE8EFBED4955858","0199d685-ec6f-70aa-a527-afb7086cb481","0199d675-8795-765b-adc2-c813de8cd3d1","","2522","
        <div style=""display: flex; justify-content: center; align-items: center;"">
          <img src=""images/red_deck_2.png"" style=""width: 300px; height: 300px; margin-right: 10px;"" />
          <img src=""images/blue_deck_1.png"" style=""width: 300px; height: 300px;"" />
        </div>","1","1","2","choice","1",""
"","","","","","html-keyboard-response","63","306796","0.0-49.0-1.0-0.0","862DE92E02A74C3BAEE8EFBED4955858","0199d685-ec6f-70aa-a527-afb7086cb481","0199d675-8795-765b-adc2-c813de8cd3d1","","null","<div style=""display: flex; justify-content: center; align-items: center;"">
                     <img src=""images/semantic/semantic_series_1/semantic_series_1_b.png"" style=""width: 300px; height: 300px;"" />
                   </div>","null","1","2","B","",""
"","","","","","html-keyboard-response","64","312802","0.0-49.0-1.0-1.0","862DE92E02A74C3BAEE8EFBED4955858","0199d685-ec6f-70aa-a527-afb7086cb481","0199d675-8795-765b-adc2-c813de8cd3d1","","null","<div style=""display: flex; justify-content: center; align-items: center;"">
                     <img src=""images/semantic/semantic_series_1/semantic_series_1_c.png"" style=""width: 300px; height: 300px;"" />
                   </div>","null","1","2","C","",""
"","","","","","html-keyboard-response","65","318809","0.0-49.0-1.0-2.0","862DE92E02A74C3BAEE8EFBED4955858","0199d685-ec6f-70aa-a527-afb7086cb481","0199d675-8795-765b-adc2-c813de8cd3d1","","null","<div style=""display: flex; justify-content: center; align-items: center;"">
                     <img src=""images/semantic/semantic_series_1/semantic_series_1_d.png"" style=""width: 300px; height: 300px;"" />
                   </div>","null","1","2","D","",""
"","","","","","survey-likert","66","322405","0.0-50.0","862DE92E02A74C3BAEE8EFBED4955858","0199d685-ec6f-70aa-a527-afb7086cb481","0199d675-8795-765b-adc2-c813de8cd3d1","","3595","","{""Q0"":0}","1","2","surprise_rating","","[0]"
"","","","","","survey-likert","67","324013","0.0-51.0","862DE92E02A74C3BAEE8EFBED4955858","0199d685-ec6f-70aa-a527-afb7086cb481","0199d675-8795-765b-adc2-c813de8cd3d1","","1608","","{""Q0"":0}","1","2","enjoyment_rating","","[0]"
"","","","","","html-keyboard-response","68","330024","0.0-52.0","862DE92E02A74C3BAEE8EFBED4955858","0199d685-ec6f-70aa-a527-afb7086cb481","0199d675-8795-765b-adc2-c813de8cd3d1","","null","<div style=""display: flex; justify-content: center; align-items: center;"">
                     <img src=""images/other/blank.png"" style=""width: 300px; height: 300px;"" />
                   </div>","null","0","0","blank","",""
"","","","","","html-keyboard-response","69","336030","0.0-53.0","862DE92E02A74C3BAEE8EFBED4955858","0199d685-ec6f-70aa-a527-afb7086cb481","0199d675-8795-765b-adc2-c813de8cd3d1","","null","<div style=""display: flex; justify-content: center; align-items: center;"">
                     <img src=""images/causal/causal_series_8/causal_series_8_a.png"" style=""width: 300px; height: 300px;"" />
                   </div>","null","8","2","A","",""
"","","","","","html-button-response","70","338309","0.0-54.0","862DE92E02A74C3BAEE8EFBED4955858","0199d685-ec6f-70aa-a527-afb7086cb481","0199d675-8795-765b-adc2-c813de8cd3d1","","2278","
        <div style=""display: flex; justify-content: center; align-items: center;"">
          <img src=""images/red_deck_2.png"" style=""width: 300px; height: 300px; margin-right: 10px;"" />
          <img src=""images/blue_deck_1.png"" style=""width: 300px; height: 300px;"" />
        </div>","0","8","2","choice","0",""
"","","","","","html-keyboard-response","71","344322","0.0-55.0-0.0-0.0","862DE92E02A74C3BAEE8EFBED4955858","0199d685-ec6f-70aa-a527-afb7086cb481","0199d675-8795-765b-adc2-c813de8cd3d1","","null","<div style=""display: flex; justify-content: center; align-items: center;"">
                     <img src=""images/causal/causal_series_8/causal_series_8_b.png"" style=""width: 300px; height: 300px;"" />
                   </div>","null","8","2","B","",""
"","","","","","html-keyboard-response","72","350323","0.0-55.0-0.0-1.0","862DE92E02A74C3BAEE8EFBED4955858","0199d685-ec6f-70aa-a527-afb7086cb481","0199d675-8795-765b-adc2-c813de8cd3d1","","null","<div style=""display: flex; justify-content: center; align-items: center;"">
                     <img src=""images/causal/causal_series_8/causal_series_8_c.png"" style=""width: 300px; height: 300px;"" />
                   </div>","null","8","2","C","",""
"","","","","","html-keyboard-response","73","356331","0.0-55.0-0.0-2.0","862DE92E02A74C3BAEE8EFBED4955858","0199d685-ec6f-70aa-a527-afb7086cb481","0199d675-8795-765b-adc2-c813de8cd3d1","","null","<div style=""display: flex; justify-content: center; align-items: center;"">
                     <img src=""images/causal/causal_series_8/causal_series_8_d.png"" style=""width: 300px; height: 300px;"" />
                   </div>","null","8","2","D","",""
"","","","","","survey-likert","74","358437","0.0-56.0","862DE92E02A74C3BAEE8EFBED4955858","0199d685-ec6f-70aa-a527-afb7086cb481","0199d675-8795-765b-adc2-c813de8cd3d1","","2105","","{""Q0"":0}","8","2","surprise_rating","","[0]"
"","","","","","survey-likert","75","361853","0.0-57.0","862DE92E02A74C3BAEE8EFBED4955858","0199d685-ec6f-70aa-a527-afb7086cb481","0199d675-8795-765b-adc2-c813de8cd3d1","","3415","","{""Q0"":2}","8","2","enjoyment_rating","","[0]"
"","","","","","html-keyboard-response","76","367862","0.0-58.0","862DE92E02A74C3BAEE8EFBED4955858","0199d685-ec6f-70aa-a527-afb7086cb481","0199d675-8795-765b-adc2-c813de8cd3d1","","null","<div style=""display: flex; justify-content: center; align-items: center;"">
                     <img src=""images/other/blank.png"" style=""width: 300px; height: 300px;"" />
                   </div>","null","0","0","blank","",""
"","","","","","html-keyboard-response","77","373876","0.0-59.0","862DE92E02A74C3BAEE8EFBED4955858","0199d685-ec6f-70aa-a527-afb7086cb481","0199d675-8795-765b-adc2-c813de8cd3d1","","null","<div style=""display: flex; justify-content: center; align-items: center;"">
                     <img src=""images/causal/causal_series_2/causal_series_2_a.png"" style=""width: 300px; height: 300px;"" />
                   </div>","null","2","2","A","",""
"","","","","","html-button-response","78","376773","0.0-60.0","862DE92E02A74C3BAEE8EFBED4955858","0199d685-ec6f-70aa-a527-afb7086cb481","0199d675-8795-765b-adc2-c813de8cd3d1","","2896","
        <div style=""display: flex; justify-content: center; align-items: center;"">
          <img src=""images/red_deck_2.png"" style=""width: 300px; height: 300px; margin-right: 10px;"" />
          <img src=""images/blue_deck_1.png"" style=""width: 300px; height: 300px;"" />
        </div>","1","2","2","choice","1",""
"","","","","","html-keyboard-response","79","382783","0.0-61.0-1.0-0.0","862DE92E02A74C3BAEE8EFBED4955858","0199d685-ec6f-70aa-a527-afb7086cb481","0199d675-8795-765b-adc2-c813de8cd3d1","","null","<div style=""display: flex; justify-content: center; align-items: center;"">
                     <img src=""images/semantic/semantic_series_2/semantic_series_2_b.png"" style=""width: 300px; height: 300px;"" />
                   </div>","null","2","2","B","",""
"","","","","","html-keyboard-response","80","388791","0.0-61.0-1.0-1.0","862DE92E02A74C3BAEE8EFBED4955858","0199d685-ec6f-70aa-a527-afb7086cb481","0199d675-8795-765b-adc2-c813de8cd3d1","","null","<div style=""display: flex; justify-content: center; align-items: center;"">
                     <img src=""images/semantic/semantic_series_2/semantic_series_2_c.png"" style=""width: 300px; height: 300px;"" />
                   </div>","null","2","2","C","",""
"","","","","","html-keyboard-response","81","394796","0.0-61.0-1.0-2.0","862DE92E02A74C3BAEE8EFBED4955858","0199d685-ec6f-70aa-a527-afb7086cb481","0199d675-8795-765b-adc2-c813de8cd3d1","","null","<div style=""display: flex; justify-content: center; align-items: center;"">
                     <img src=""images/semantic/semantic_series_2/semantic_series_2_d.png"" style=""width: 300px; height: 300px;"" />
                   </div>","null","2","2","D","",""
"","","","","","survey-likert","82","397661","0.0-62.0","862DE92E02A74C3BAEE8EFBED4955858","0199d685-ec6f-70aa-a527-afb7086cb481","0199d675-8795-765b-adc2-c813de8cd3d1","","2865","","{""Q0"":0}","2","2","surprise_rating","","[0]"
"","","","","","survey-likert","83","399477","0.0-63.0","862DE92E02A74C3BAEE8EFBED4955858","0199d685-ec6f-70aa-a527-afb7086cb481","0199d675-8795-765b-adc2-c813de8cd3d1","","1816","","{""Q0"":1}","2","2","enjoyment_rating","","[0]"
"","","","","","html-keyboard-response","84","405484","0.0-64.0","862DE92E02A74C3BAEE8EFBED4955858","0199d685-ec6f-70aa-a527-afb7086cb481","0199d675-8795-765b-adc2-c813de8cd3d1","","null","<div style=""display: flex; justify-content: center; align-items: center;"">
                     <img src=""images/other/blank.png"" style=""width: 300px; height: 300px;"" />
                   </div>","null","0","0","blank","",""
"","","","","","html-keyboard-response","85","411495","0.0-65.0","862DE92E02A74C3BAEE8EFBED4955858","0199d685-ec6f-70aa-a527-afb7086cb481","0199d675-8795-765b-adc2-c813de8cd3d1","","null","<div style=""display: flex; justify-content: center; align-items: center;"">
                     <img src=""images/causal/causal_series_4/causal_series_4_a.png"" style=""width: 300px; height: 300px;"" />
                   </div>","null","4","2","A","",""
"","","","","","html-button-response","86","412429","0.0-66.0","862DE92E02A74C3BAEE8EFBED4955858","0199d685-ec6f-70aa-a527-afb7086cb481","0199d675-8795-765b-adc2-c813de8cd3d1","","933","
        <div style=""display: flex; justify-content: center; align-items: center;"">
          <img src=""images/red_deck_2.png"" style=""width: 300px; height: 300px; margin-right: 10px;"" />
          <img src=""images/blue_deck_1.png"" style=""width: 300px; height: 300px;"" />
        </div>","0","4","2","choice","0",""
"","","","","","html-keyboard-response","87","418443","0.0-67.0-0.0-0.0","862DE92E02A74C3BAEE8EFBED4955858","0199d685-ec6f-70aa-a527-afb7086cb481","0199d675-8795-765b-adc2-c813de8cd3d1","","null","<div style=""display: flex; justify-content: center; align-items: center;"">
                     <img src=""images/causal/causal_series_4/causal_series_4_b.png"" style=""width: 300px; height: 300px;"" />
                   </div>","null","4","2","B","",""
"","","","","","html-keyboard-response","88","424448","0.0-67.0-0.0-1.0","862DE92E02A74C3BAEE8EFBED4955858","0199d685-ec6f-70aa-a527-afb7086cb481","0199d675-8795-765b-adc2-c813de8cd3d1","","null","<div style=""display: flex; justify-content: center; align-items: center;"">
                     <img src=""images/causal/causal_series_4/causal_series_4_c.png"" style=""width: 300px; height: 300px;"" />
                   </div>","null","4","2","C","",""
"","","","","","html-keyboard-response","89","430462","0.0-67.0-0.0-2.0","862DE92E02A74C3BAEE8EFBED4955858","0199d685-ec6f-70aa-a527-afb7086cb481","0199d675-8795-765b-adc2-c813de8cd3d1","","null","<div style=""display: flex; justify-content: center; align-items: center;"">
                     <img src=""images/causal/causal_series_4/causal_series_4_d.png"" style=""width: 300px; height: 300px;"" />
                   </div>","null","4","2","D","",""
"","","","","","survey-likert","90","432325","0.0-68.0","862DE92E02A74C3BAEE8EFBED4955858","0199d685-ec6f-70aa-a527-afb7086cb481","0199d675-8795-765b-adc2-c813de8cd3d1","","1862","","{""Q0"":4}","4","2","surprise_rating","","[0]"
"","","","","","survey-likert","91","433693","0.0-69.0","862DE92E02A74C3BAEE8EFBED4955858","0199d685-ec6f-70aa-a527-afb7086cb481","0199d675-8795-765b-adc2-c813de8cd3d1","","1367","","{""Q0"":4}","4","2","enjoyment_rating","","[0]"
"","","","","","html-keyboard-response","92","439699","0.0-70.0","862DE92E02A74C3BAEE8EFBED4955858","0199d685-ec6f-70aa-a527-afb7086cb481","0199d675-8795-765b-adc2-c813de8cd3d1","","null","<div style=""display: flex; justify-content: center; align-items: center;"">
                     <img src=""images/other/blank.png"" style=""width: 300px; height: 300px;"" />
                   </div>","null","0","0","blank","",""
"","","","","","html-keyboard-response","93","445702","0.0-71.0","862DE92E02A74C3BAEE8EFBED4955858","0199d685-ec6f-70aa-a527-afb7086cb481","0199d675-8795-765b-adc2-c813de8cd3d1","","null","<div style=""display: flex; justify-content: center; align-items: center;"">
                     <img src=""images/causal/causal_series_9/causal_series_9_a.png"" style=""width: 300px; height: 300px;"" />
                   </div>","null","9","2","A","",""
"","","","","","html-button-response","94","446885","0.0-72.0","862DE92E02A74C3BAEE8EFBED4955858","0199d685-ec6f-70aa-a527-afb7086cb481","0199d675-8795-765b-adc2-c813de8cd3d1","","1182","
        <div style=""display: flex; justify-content: center; align-items: center;"">
          <img src=""images/red_deck_2.png"" style=""width: 300px; height: 300px; margin-right: 10px;"" />
          <img src=""images/blue_deck_1.png"" style=""width: 300px; height: 300px;"" />
        </div>","0","9","2","choice","0",""
"","","","","","html-keyboard-response","95","452891","0.0-73.0-0.0-0.0","862DE92E02A74C3BAEE8EFBED4955858","0199d685-ec6f-70aa-a527-afb7086cb481","0199d675-8795-765b-adc2-c813de8cd3d1","","null","<div style=""display: flex; justify-content: center; align-items: center;"">
                     <img src=""images/causal/causal_series_9/causal_series_9_b.png"" style=""width: 300px; height: 300px;"" />
                   </div>","null","9","2","B","",""
"","","","","","html-keyboard-response","96","458895","0.0-73.0-0.0-1.0","862DE92E02A74C3BAEE8EFBED4955858","0199d685-ec6f-70aa-a527-afb7086cb481","0199d675-8795-765b-adc2-c813de8cd3d1","","null","<div style=""display: flex; justify-content: center; align-items: center;"">
                     <img src=""images/causal/causal_series_9/causal_series_9_c.png"" style=""width: 300px; height: 300px;"" />
                   </div>","null","9","2","C","",""
"","","","","","html-keyboard-response","97","464907","0.0-73.0-0.0-2.0","862DE92E02A74C3BAEE8EFBED4955858","0199d685-ec6f-70aa-a527-afb7086cb481","0199d675-8795-765b-adc2-c813de8cd3d1","","null","<div style=""display: flex; justify-content: center; align-items: center;"">
                     <img src=""images/causal/causal_series_9/causal_series_9_d.png"" style=""width: 300px; height: 300px;"" />
                   </div>","null","9","2","D","",""
"","","","","","survey-likert","98","469381","0.0-74.0","862DE92E02A74C3BAEE8EFBED4955858","0199d685-ec6f-70aa-a527-afb7086cb481","0199d675-8795-765b-adc2-c813de8cd3d1","","4473","","{""Q0"":3}","9","2","surprise_rating","","[0]"
"","","","","","survey-likert","99","471573","0.0-75.0","862DE92E02A74C3BAEE8EFBED4955858","0199d685-ec6f-70aa-a527-afb7086cb481","0199d675-8795-765b-adc2-c813de8cd3d1","","2192","","{""Q0"":4}","9","2","enjoyment_rating","","[0]"
"","","","","","html-keyboard-response","100","477581","0.0-76.0","862DE92E02A74C3BAEE8EFBED4955858","0199d685-ec6f-70aa-a527-afb7086cb481","0199d675-8795-765b-adc2-c813de8cd3d1","","null","<div style=""display: flex; justify-content: center; align-items: center;"">
                     <img src=""images/other/blank.png"" style=""width: 300px; height: 300px;"" />
                   </div>","null","0","0","blank","",""
"","","","","","html-keyboard-response","101","483594","0.0-77.0","862DE92E02A74C3BAEE8EFBED4955858","0199d685-ec6f-70aa-a527-afb7086cb481","0199d675-8795-765b-adc2-c813de8cd3d1","","null","<div style=""display: flex; justify-content: center; align-items: center;"">
                     <img src=""images/causal/causal_series_10/causal_series_10_a.png"" style=""width: 300px; height: 300px;"" />
                   </div>","null","10","2","A","",""
"","","","","","html-button-response","102","484965","0.0-78.0","862DE92E02A74C3BAEE8EFBED4955858","0199d685-ec6f-70aa-a527-afb7086cb481","0199d675-8795-765b-adc2-c813de8cd3d1","","1369","
        <div style=""display: flex; justify-content: center; align-items: center;"">
          <img src=""images/red_deck_2.png"" style=""width: 300px; height: 300px; margin-right: 10px;"" />
          <img src=""images/blue_deck_1.png"" style=""width: 300px; height: 300px;"" />
        </div>","1","10","2","choice","1",""
"","","","","","html-keyboard-response","103","490973","0.0-79.0-1.0-0.0","862DE92E02A74C3BAEE8EFBED4955858","0199d685-ec6f-70aa-a527-afb7086cb481","0199d675-8795-765b-adc2-c813de8cd3d1","","null","<div style=""display: flex; justify-content: center; align-items: center;"">
                     <img src=""images/semantic/semantic_series_10/semantic_series_10_b.png"" style=""width: 300px; height: 300px;"" />
                   </div>","null","10","2","B","",""
"","","","","","html-keyboard-response","104","496974","0.0-79.0-1.0-1.0","862DE92E02A74C3BAEE8EFBED4955858","0199d685-ec6f-70aa-a527-afb7086cb481","0199d675-8795-765b-adc2-c813de8cd3d1","","null","<div style=""display: flex; justify-content: center; align-items: center;"">
                     <img src=""images/semantic/semantic_series_10/semantic_series_10_c.png"" style=""width: 300px; height: 300px;"" />
                   </div>","null","10","2","C","",""
"","","","","","html-keyboard-response","105","502986","0.0-79.0-1.0-2.0","862DE92E02A74C3BAEE8EFBED4955858","0199d685-ec6f-70aa-a527-afb7086cb481","0199d675-8795-765b-adc2-c813de8cd3d1","","null","<div style=""display: flex; justify-content: center; align-items: center;"">
                     <img src=""images/semantic/semantic_series_10/semantic_series_10_d.png"" style=""width: 300px; height: 300px;"" />
                   </div>","null","10","2","D","",""
"","","","","","survey-likert","106","504725","0.0-80.0","862DE92E02A74C3BAEE8EFBED4955858","0199d685-ec6f-70aa-a527-afb7086cb481","0199d675-8795-765b-adc2-c813de8cd3d1","","1738","","{""Q0"":2}","10","2","surprise_rating","","[0]"
"","","","","","survey-likert","107","506525","0.0-81.0","862DE92E02A74C3BAEE8EFBED4955858","0199d685-ec6f-70aa-a527-afb7086cb481","0199d675-8795-765b-adc2-c813de8cd3d1","","1800","","{""Q0"":2}","10","2","enjoyment_rating","","[0]"
"","","","","","html-keyboard-response","108","512535","0.0-82.0","862DE92E02A74C3BAEE8EFBED4955858","0199d685-ec6f-70aa-a527-afb7086cb481","0199d675-8795-765b-adc2-c813de8cd3d1","","null","<div style=""display: flex; justify-content: center; align-items: center;"">
                     <img src=""images/other/blank.png"" style=""width: 300px; height: 300px;"" />
                   </div>","null","0","0","blank","",""
"","","","","","html-keyboard-response","109","518543","0.0-83.0","862DE92E02A74C3BAEE8EFBED4955858","0199d685-ec6f-70aa-a527-afb7086cb481","0199d675-8795-765b-adc2-c813de8cd3d1","","null","<div style=""display: flex; justify-content: center; align-items: center;"">
                     <img src=""images/causal/causal_series_2/causal_series_2_a.png"" style=""width: 300px; height: 300px;"" />
                   </div>","null","2","1","A","",""
"","","","","","html-button-response","110","519509","0.0-84.0","862DE92E02A74C3BAEE8EFBED4955858","0199d685-ec6f-70aa-a527-afb7086cb481","0199d675-8795-765b-adc2-c813de8cd3d1","","965","
        <div style=""display: flex; justify-content: center; align-items: center;"">
          <img src=""images/red_deck_2.png"" style=""width: 300px; height: 300px; margin-right: 10px;"" />
          <img src=""images/blue_deck_1.png"" style=""width: 300px; height: 300px;"" />
        </div>","0","2","1","choice","0",""
"","","","","","html-keyboard-response","111","525514","0.0-85.0-0.0-0.0","862DE92E02A74C3BAEE8EFBED4955858","0199d685-ec6f-70aa-a527-afb7086cb481","0199d675-8795-765b-adc2-c813de8cd3d1","","null","<div style=""display: flex; justify-content: center; align-items: center;"">
                     <img src=""images/causal/causal_series_2/causal_series_2_b.png"" style=""width: 300px; height: 300px;"" />
                   </div>","null","2","1","B","",""
"","","","","","html-keyboard-response","112","531517","0.0-85.0-0.0-1.0","862DE92E02A74C3BAEE8EFBED4955858","0199d685-ec6f-70aa-a527-afb7086cb481","0199d675-8795-765b-adc2-c813de8cd3d1","","null","<div style=""display: flex; justify-content: center; align-items: center;"">
                     <img src=""images/causal/causal_series_2/causal_series_2_c.png"" style=""width: 300px; height: 300px;"" />
                   </div>","null","2","1","C","",""
"","","","","","html-keyboard-response","113","537522","0.0-85.0-0.0-2.0","862DE92E02A74C3BAEE8EFBED4955858","0199d685-ec6f-70aa-a527-afb7086cb481","0199d675-8795-765b-adc2-c813de8cd3d1","","null","<div style=""display: flex; justify-content: center; align-items: center;"">
                     <img src=""images/causal/causal_series_2/causal_series_2_d.png"" style=""width: 300px; height: 300px;"" />
                   </div>","null","2","1","D","",""
"","","","","","survey-likert","114","540149","0.0-86.0","862DE92E02A74C3BAEE8EFBED4955858","0199d685-ec6f-70aa-a527-afb7086cb481","0199d675-8795-765b-adc2-c813de8cd3d1","","2626","","{""Q0"":3}","2","1","surprise_rating","","[0]"
"","","","","","survey-likert","115","542829","0.0-87.0","862DE92E02A74C3BAEE8EFBED4955858","0199d685-ec6f-70aa-a527-afb7086cb481","0199d675-8795-765b-adc2-c813de8cd3d1","","2679","","{""Q0"":3}","2","1","enjoyment_rating","","[0]"
"","","","","","html-keyboard-response","116","548830","0.0-88.0","862DE92E02A74C3BAEE8EFBED4955858","0199d685-ec6f-70aa-a527-afb7086cb481","0199d675-8795-765b-adc2-c813de8cd3d1","","null","<div style=""display: flex; justify-content: center; align-items: center;"">
                     <img src=""images/other/blank.png"" style=""width: 300px; height: 300px;"" />
                   </div>","null","0","0","blank","",""
"","","","","","html-keyboard-response","117","554838","0.0-89.0","862DE92E02A74C3BAEE8EFBED4955858","0199d685-ec6f-70aa-a527-afb7086cb481","0199d675-8795-765b-adc2-c813de8cd3d1","","null","<div style=""display: flex; justify-content: center; align-items: center;"">
                     <img src=""images/causal/causal_series_1/causal_series_1_a.png"" style=""width: 300px; height: 300px;"" />
                   </div>","null","1","1","A","",""
"","","","","","html-button-response","118","555605","0.0-90.0","862DE92E02A74C3BAEE8EFBED4955858","0199d685-ec6f-70aa-a527-afb7086cb481","0199d675-8795-765b-adc2-c813de8cd3d1","","766","
        <div style=""display: flex; justify-content: center; align-items: center;"">
          <img src=""images/red_deck_2.png"" style=""width: 300px; height: 300px; margin-right: 10px;"" />
          <img src=""images/blue_deck_1.png"" style=""width: 300px; height: 300px;"" />
        </div>","0","1","1","choice","0",""
"","","","","","html-keyboard-response","119","561612","0.0-91.0-0.0-0.0","862DE92E02A74C3BAEE8EFBED4955858","0199d685-ec6f-70aa-a527-afb7086cb481","0199d675-8795-765b-adc2-c813de8cd3d1","","null","<div style=""display: flex; justify-content: center; align-items: center;"">
                     <img src=""images/causal/causal_series_1/causal_series_1_b.png"" style=""width: 300px; height: 300px;"" />
                   </div>","null","1","1","B","",""
"","","","","","html-keyboard-response","120","567616","0.0-91.0-0.0-1.0","862DE92E02A74C3BAEE8EFBED4955858","0199d685-ec6f-70aa-a527-afb7086cb481","0199d675-8795-765b-adc2-c813de8cd3d1","","null","<div style=""display: flex; justify-content: center; align-items: center;"">
                     <img src=""images/causal/causal_series_1/causal_series_1_c.png"" style=""width: 300px; height: 300px;"" />
                   </div>","null","1","1","C","",""
"","","","","","html-keyboard-response","121","573625","0.0-91.0-0.0-2.0","862DE92E02A74C3BAEE8EFBED4955858","0199d685-ec6f-70aa-a527-afb7086cb481","0199d675-8795-765b-adc2-c813de8cd3d1","","null","<div style=""display: flex; justify-content: center; align-items: center;"">
                     <img src=""images/causal/causal_series_1/causal_series_1_d.png"" style=""width: 300px; height: 300px;"" />
                   </div>","null","1","1","D","",""
"","","","","","survey-likert","122","575189","0.0-92.0","862DE92E02A74C3BAEE8EFBED4955858","0199d685-ec6f-70aa-a527-afb7086cb481","0199d675-8795-765b-adc2-c813de8cd3d1","","1563","","{""Q0"":4}","1","1","surprise_rating","","[0]"
"","","","","","survey-likert","123","576637","0.0-93.0","862DE92E02A74C3BAEE8EFBED4955858","0199d685-ec6f-70aa-a527-afb7086cb481","0199d675-8795-765b-adc2-c813de8cd3d1","","1447","","{""Q0"":4}","1","1","enjoyment_rating","","[0]"
"","","","","","html-keyboard-response","124","582642","0.0-94.0","862DE92E02A74C3BAEE8EFBED4955858","0199d685-ec6f-70aa-a527-afb7086cb481","0199d675-8795-765b-adc2-c813de8cd3d1","","null","<div style=""display: flex; justify-content: center; align-items: center;"">
                     <img src=""images/other/blank.png"" style=""width: 300px; height: 300px;"" />
                   </div>","null","0","0","blank","",""
"","","","","","html-keyboard-response","125","588649","0.0-95.0","862DE92E02A74C3BAEE8EFBED4955858","0199d685-ec6f-70aa-a527-afb7086cb481","0199d675-8795-765b-adc2-c813de8cd3d1","","null","<div style=""display: flex; justify-content: center; align-items: center;"">
                     <img src=""images/causal/causal_series_4/causal_series_4_a.png"" style=""width: 300px; height: 300px;"" />
                   </div>","null","4","1","A","",""
"","","","","","html-button-response","126","590397","0.0-96.0","862DE92E02A74C3BAEE8EFBED4955858","0199d685-ec6f-70aa-a527-afb7086cb481","0199d675-8795-765b-adc2-c813de8cd3d1","","1747","
        <div style=""display: flex; justify-content: center; align-items: center;"">
          <img src=""images/red_deck_2.png"" style=""width: 300px; height: 300px; margin-right: 10px;"" />
          <img src=""images/blue_deck_1.png"" style=""width: 300px; height: 300px;"" />
        </div>","0","4","1","choice","0",""
"","","","","","html-keyboard-response","127","596404","0.0-97.0-0.0-0.0","862DE92E02A74C3BAEE8EFBED4955858","0199d685-ec6f-70aa-a527-afb7086cb481","0199d675-8795-765b-adc2-c813de8cd3d1","","null","<div style=""display: flex; justify-content: center; align-items: center;"">
                     <img src=""images/causal/causal_series_4/causal_series_4_b.png"" style=""width: 300px; height: 300px;"" />
                   </div>","null","4","1","B","",""
"","","","","","html-keyboard-response","128","602410","0.0-97.0-0.0-1.0","862DE92E02A74C3BAEE8EFBED4955858","0199d685-ec6f-70aa-a527-afb7086cb481","0199d675-8795-765b-adc2-c813de8cd3d1","","null","<div style=""display: flex; justify-content: center; align-items: center;"">
                     <img src=""images/causal/causal_series_4/causal_series_4_c.png"" style=""width: 300px; height: 300px;"" />
                   </div>","null","4","1","C","",""
"","","","","","html-keyboard-response","129","608416","0.0-97.0-0.0-2.0","862DE92E02A74C3BAEE8EFBED4955858","0199d685-ec6f-70aa-a527-afb7086cb481","0199d675-8795-765b-adc2-c813de8cd3d1","","null","<div style=""display: flex; justify-content: center; align-items: center;"">
                     <img src=""images/causal/causal_series_4/causal_series_4_d.png"" style=""width: 300px; height: 300px;"" />
                   </div>","null","4","1","D","",""
"","","","","","survey-likert","130","610069","0.0-98.0","862DE92E02A74C3BAEE8EFBED4955858","0199d685-ec6f-70aa-a527-afb7086cb481","0199d675-8795-765b-adc2-c813de8cd3d1","","1652","","{""Q0"":4}","4","1","surprise_rating","","[0]"
"","","","","","survey-likert","131","611293","0.0-99.0","862DE92E02A74C3BAEE8EFBED4955858","0199d685-ec6f-70aa-a527-afb7086cb481","0199d675-8795-765b-adc2-c813de8cd3d1","","1223","","{""Q0"":4}","4","1","enjoyment_rating","","[0]"
"","","","","","html-keyboard-response","132","617298","0.0-100.0","862DE92E02A74C3BAEE8EFBED4955858","0199d685-ec6f-70aa-a527-afb7086cb481","0199d675-8795-765b-adc2-c813de8cd3d1","","null","<div style=""display: flex; justify-content: center; align-items: center;"">
                     <img src=""images/other/blank.png"" style=""width: 300px; height: 300px;"" />
                   </div>","null","0","0","blank","",""
"","","","","","html-keyboard-response","133","623300","0.0-101.0","862DE92E02A74C3BAEE8EFBED4955858","0199d685-ec6f-70aa-a527-afb7086cb481","0199d675-8795-765b-adc2-c813de8cd3d1","","null","<div style=""display: flex; justify-content: center; align-items: center;"">
                     <img src=""images/causal/causal_series_3/causal_series_3_a.png"" style=""width: 300px; height: 300px;"" />
                   </div>","null","3","1","A","",""
"","","","","","html-button-response","134","624373","0.0-102.0","862DE92E02A74C3BAEE8EFBED4955858","0199d685-ec6f-70aa-a527-afb7086cb481","0199d675-8795-765b-adc2-c813de8cd3d1","","1072","
        <div style=""display: flex; justify-content: center; align-items: center;"">
          <img src=""images/red_deck_2.png"" style=""width: 300px; height: 300px; margin-right: 10px;"" />
          <img src=""images/blue_deck_1.png"" style=""width: 300px; height: 300px;"" />
        </div>","1","3","1","choice","1",""
"","","","","","html-keyboard-response","135","630377","0.0-103.0-1.0-0.0","862DE92E02A74C3BAEE8EFBED4955858","0199d685-ec6f-70aa-a527-afb7086cb481","0199d675-8795-765b-adc2-c813de8cd3d1","","null","<div style=""display: flex; justify-content: center; align-items: center;"">
                     <img src=""images/semantic/semantic_series_3/semantic_series_3_b.png"" style=""width: 300px; height: 300px;"" />
                   </div>","null","3","1","B","",""
"","","","","","html-keyboard-response","136","636381","0.0-103.0-1.0-1.0","862DE92E02A74C3BAEE8EFBED4955858","0199d685-ec6f-70aa-a527-afb7086cb481","0199d675-8795-765b-adc2-c813de8cd3d1","","null","<div style=""display: flex; justify-content: center; align-items: center;"">
                     <img src=""images/semantic/semantic_series_3/semantic_series_3_c.png"" style=""width: 300px; height: 300px;"" />
                   </div>","null","3","1","C","",""
"","","","","","html-keyboard-response","137","642383","0.0-103.0-1.0-2.0","862DE92E02A74C3BAEE8EFBED4955858","0199d685-ec6f-70aa-a527-afb7086cb481","0199d675-8795-765b-adc2-c813de8cd3d1","","null","<div style=""display: flex; justify-content: center; align-items: center;"">
                     <img src=""images/semantic/semantic_series_3/semantic_series_3_d.png"" style=""width: 300px; height: 300px;"" />
                   </div>","null","3","1","D","",""
"","","","","","survey-likert","138","643869","0.0-104.0","862DE92E02A74C3BAEE8EFBED4955858","0199d685-ec6f-70aa-a527-afb7086cb481","0199d675-8795-765b-adc2-c813de8cd3d1","","1485","","{""Q0"":1}","3","1","surprise_rating","","[0]"
"","","","","","survey-likert","139","647493","0.0-105.0","862DE92E02A74C3BAEE8EFBED4955858","0199d685-ec6f-70aa-a527-afb7086cb481","0199d675-8795-765b-adc2-c813de8cd3d1","","3624","","{""Q0"":1}","3","1","enjoyment_rating","","[0]"
"","","","","","html-keyboard-response","140","653496","0.0-106.0","862DE92E02A74C3BAEE8EFBED4955858","0199d685-ec6f-70aa-a527-afb7086cb481","0199d675-8795-765b-adc2-c813de8cd3d1","","null","<div style=""display: flex; justify-content: center; align-items: center;"">
                     <img src=""images/other/blank.png"" style=""width: 300px; height: 300px;"" />
                   </div>","null","0","0","blank","",""
"","","","","","html-keyboard-response","141","659502","0.0-107.0","862DE92E02A74C3BAEE8EFBED4955858","0199d685-ec6f-70aa-a527-afb7086cb481","0199d675-8795-765b-adc2-c813de8cd3d1","","null","<div style=""display: flex; justify-content: center; align-items: center;"">
                     <img src=""images/causal/causal_series_5/causal_series_5_a.png"" style=""width: 300px; height: 300px;"" />
                   </div>","null","5","2","A","",""
"","","","","","html-button-response","142","660565","0.0-108.0","862DE92E02A74C3BAEE8EFBED4955858","0199d685-ec6f-70aa-a527-afb7086cb481","0199d675-8795-765b-adc2-c813de8cd3d1","","1063","
        <div style=""display: flex; justify-content: center; align-items: center;"">
          <img src=""images/red_deck_2.png"" style=""width: 300px; height: 300px; margin-right: 10px;"" />
          <img src=""images/blue_deck_1.png"" style=""width: 300px; height: 300px;"" />
        </div>","0","5","2","choice","0",""
"","","","","","html-keyboard-response","143","666577","0.0-109.0-0.0-0.0","862DE92E02A74C3BAEE8EFBED4955858","0199d685-ec6f-70aa-a527-afb7086cb481","0199d675-8795-765b-adc2-c813de8cd3d1","","null","<div style=""display: flex; justify-content: center; align-items: center;"">
                     <img src=""images/causal/causal_series_5/causal_series_5_b.png"" style=""width: 300px; height: 300px;"" />
                   </div>","null","5","2","B","",""
"","","","","","html-keyboard-response","144","672592","0.0-109.0-0.0-1.0","862DE92E02A74C3BAEE8EFBED4955858","0199d685-ec6f-70aa-a527-afb7086cb481","0199d675-8795-765b-adc2-c813de8cd3d1","","null","<div style=""display: flex; justify-content: center; align-items: center;"">
                     <img src=""images/causal/causal_series_5/causal_series_5_c.png"" style=""width: 300px; height: 300px;"" />
                   </div>","null","5","2","C","",""
"","","","","","html-keyboard-response","145","678598","0.0-109.0-0.0-2.0","862DE92E02A74C3BAEE8EFBED4955858","0199d685-ec6f-70aa-a527-afb7086cb481","0199d675-8795-765b-adc2-c813de8cd3d1","","null","<div style=""display: flex; justify-content: center; align-items: center;"">
                     <img src=""images/causal/causal_series_5/causal_series_5_d.png"" style=""width: 300px; height: 300px;"" />
                   </div>","null","5","2","D","",""
"","","","","","survey-likert","146","683277","0.0-110.0","862DE92E02A74C3BAEE8EFBED4955858","0199d685-ec6f-70aa-a527-afb7086cb481","0199d675-8795-765b-adc2-c813de8cd3d1","","4679","","{""Q0"":1}","5","2","surprise_rating","","[0]"
"","","","","","survey-likert","147","686925","0.0-111.0","862DE92E02A74C3BAEE8EFBED4955858","0199d685-ec6f-70aa-a527-afb7086cb481","0199d675-8795-765b-adc2-c813de8cd3d1","","3647","","{""Q0"":1}","5","2","enjoyment_rating","","[0]"
"","","","","","html-keyboard-response","148","692927","0.0-112.0","862DE92E02A74C3BAEE8EFBED4955858","0199d685-ec6f-70aa-a527-afb7086cb481","0199d675-8795-765b-adc2-c813de8cd3d1","","null","<div style=""display: flex; justify-content: center; align-items: center;"">
                     <img src=""images/other/blank.png"" style=""width: 300px; height: 300px;"" />
                   </div>","null","0","0","blank","",""
"","","","","","html-keyboard-response","149","698943","0.0-113.0","862DE92E02A74C3BAEE8EFBED4955858","0199d685-ec6f-70aa-a527-afb7086cb481","0199d675-8795-765b-adc2-c813de8cd3d1","","null","<div style=""display: flex; justify-content: center; align-items: center;"">
                     <img src=""images/causal/causal_series_10/causal_series_10_a.png"" style=""width: 300px; height: 300px;"" />
                   </div>","null","10","1","A","",""
"","","","","","html-button-response","150","699829","0.0-114.0","862DE92E02A74C3BAEE8EFBED4955858","0199d685-ec6f-70aa-a527-afb7086cb481","0199d675-8795-765b-adc2-c813de8cd3d1","","885","
        <div style=""display: flex; justify-content: center; align-items: center;"">
          <img src=""images/red_deck_2.png"" style=""width: 300px; height: 300px; margin-right: 10px;"" />
          <img src=""images/blue_deck_1.png"" style=""width: 300px; height: 300px;"" />
        </div>","0","10","1","choice","0",""
"","","","","","html-keyboard-response","151","705836","0.0-115.0-0.0-0.0","862DE92E02A74C3BAEE8EFBED4955858","0199d685-ec6f-70aa-a527-afb7086cb481","0199d675-8795-765b-adc2-c813de8cd3d1","","null","<div style=""display: flex; justify-content: center; align-items: center;"">
                     <img src=""images/causal/causal_series_10/causal_series_10_b.png"" style=""width: 300px; height: 300px;"" />
                   </div>","null","10","1","B","",""
"","","","","","html-keyboard-response","152","711852","0.0-115.0-0.0-1.0","862DE92E02A74C3BAEE8EFBED4955858","0199d685-ec6f-70aa-a527-afb7086cb481","0199d675-8795-765b-adc2-c813de8cd3d1","","null","<div style=""display: flex; justify-content: center; align-items: center;"">
                     <img src=""images/causal/causal_series_10/causal_series_10_c.png"" style=""width: 300px; height: 300px;"" />
                   </div>","null","10","1","C","",""
"","","","","","html-keyboard-response","153","717865","0.0-115.0-0.0-2.0","862DE92E02A74C3BAEE8EFBED4955858","0199d685-ec6f-70aa-a527-afb7086cb481","0199d675-8795-765b-adc2-c813de8cd3d1","","null","<div style=""display: flex; justify-content: center; align-items: center;"">
                     <img src=""images/causal/causal_series_10/causal_series_10_d.png"" style=""width: 300px; height: 300px;"" />
                   </div>","null","10","1","D","",""
"","","","","","survey-likert","154","722653","0.0-116.0","862DE92E02A74C3BAEE8EFBED4955858","0199d685-ec6f-70aa-a527-afb7086cb481","0199d675-8795-765b-adc2-c813de8cd3d1","","4788","","{""Q0"":2}","10","1","surprise_rating","","[0]"
"","","","","","survey-likert","155","725173","0.0-117.0","862DE92E02A74C3BAEE8EFBED4955858","0199d685-ec6f-70aa-a527-afb7086cb481","0199d675-8795-765b-adc2-c813de8cd3d1","","2519","","{""Q0"":1}","10","1","enjoyment_rating","","[0]"
"","","","","","html-keyboard-response","156","731187","0.0-118.0","862DE92E02A74C3BAEE8EFBED4955858","0199d685-ec6f-70aa-a527-afb7086cb481","0199d675-8795-765b-adc2-c813de8cd3d1","","null","<div style=""display: flex; justify-content: center; align-items: center;"">
                     <img src=""images/other/blank.png"" style=""width: 300px; height: 300px;"" />
                   </div>","null","0","0","blank","",""
"","","","","","html-keyboard-response","157","737189","0.0-119.0","862DE92E02A74C3BAEE8EFBED4955858","0199d685-ec6f-70aa-a527-afb7086cb481","0199d675-8795-765b-adc2-c813de8cd3d1","","null","<div style=""display: flex; justify-content: center; align-items: center;"">
                     <img src=""images/causal/causal_series_8/causal_series_8_a.png"" style=""width: 300px; height: 300px;"" />
                   </div>","null","8","1","A","",""
"","","","","","html-button-response","158","738493","0.0-120.0","862DE92E02A74C3BAEE8EFBED4955858","0199d685-ec6f-70aa-a527-afb7086cb481","0199d675-8795-765b-adc2-c813de8cd3d1","","1304","
        <div style=""display: flex; justify-content: center; align-items: center;"">
          <img src=""images/red_deck_2.png"" style=""width: 300px; height: 300px; margin-right: 10px;"" />
          <img src=""images/blue_deck_1.png"" style=""width: 300px; height: 300px;"" />
        </div>","1","8","1","choice","1",""
"","","","","","html-keyboard-response","159","744501","0.0-121.0-1.0-0.0","862DE92E02A74C3BAEE8EFBED4955858","0199d685-ec6f-70aa-a527-afb7086cb481","0199d675-8795-765b-adc2-c813de8cd3d1","","null","<div style=""display: flex; justify-content: center; align-items: center;"">
                     <img src=""images/semantic/semantic_series_8/semantic_series_8_b.png"" style=""width: 300px; height: 300px;"" />
                   </div>","null","8","1","B","",""
"","","","","","html-keyboard-response","160","750507","0.0-121.0-1.0-1.0","862DE92E02A74C3BAEE8EFBED4955858","0199d685-ec6f-70aa-a527-afb7086cb481","0199d675-8795-765b-adc2-c813de8cd3d1","","null","<div style=""display: flex; justify-content: center; align-items: center;"">
                     <img src=""images/semantic/semantic_series_8/semantic_series_8_c.png"" style=""width: 300px; height: 300px;"" />
                   </div>","null","8","1","C","",""
"","","","","","html-keyboard-response","161","756517","0.0-121.0-1.0-2.0","862DE92E02A74C3BAEE8EFBED4955858","0199d685-ec6f-70aa-a527-afb7086cb481","0199d675-8795-765b-adc2-c813de8cd3d1","","null","<div style=""display: flex; justify-content: center; align-items: center;"">
                     <img src=""images/semantic/semantic_series_8/semantic_series_8_d.png"" style=""width: 300px; height: 300px;"" />
                   </div>","null","8","1","D","",""
"","","","","","survey-likert","162","765493","0.0-122.0","862DE92E02A74C3BAEE8EFBED4955858","0199d685-ec6f-70aa-a527-afb7086cb481","0199d675-8795-765b-adc2-c813de8cd3d1","","8976","","{""Q0"":3}","8","1","surprise_rating","","[0]"
"","","","","","survey-likert","163","766957","0.0-123.0","862DE92E02A74C3BAEE8EFBED4955858","0199d685-ec6f-70aa-a527-afb7086cb481","0199d675-8795-765b-adc2-c813de8cd3d1","","1464","","{""Q0"":3}","8","1","enjoyment_rating","","[0]"
"","","","","","html-keyboard-response","164","772965","0.0-124.0","862DE92E02A74C3BAEE8EFBED4955858","0199d685-ec6f-70aa-a527-afb7086cb481","0199d675-8795-765b-adc2-c813de8cd3d1","","null","<div style=""display: flex; justify-content: center; align-items: center;"">
                     <img src=""images/other/blank.png"" style=""width: 300px; height: 300px;"" />
                   </div>","null","0","0","blank","",""
"","","","","","survey-text","165","826517","0.0-125.0","862DE92E02A74C3BAEE8EFBED4955858","0199d685-ec6f-70aa-a527-afb7086cb481","0199d675-8795-765b-adc2-c813de8cd3d1","","53544","","{""Q0"":""The blue deck tells a story which flows. The red deck is random people doing random things.""}","","","","",""
"","","","","","html-button-response","166","834013","0.0-126.0","862DE92E02A74C3BAEE8EFBED4955858","0199d685-ec6f-70aa-a527-afb7086cb481","0199d675-8795-765b-adc2-c813de8cd3d1","","7495","Which color deck do the following sentences continue the story from?","0","","","","",""
"","","","","","html-button-response","167","837205","0.0-127.0","862DE92E02A74C3BAEE8EFBED4955858","0199d685-ec6f-70aa-a527-afb7086cb481","0199d675-8795-765b-adc2-c813de8cd3d1","","3192","Which color deck do the following sentences NOT follow the story from?","1","","","","",""
"","","","","","html-button-response","168","841309","0.0-128.0","862DE92E02A74C3BAEE8EFBED4955858","0199d685-ec6f-70aa-a527-afb7086cb481","0199d675-8795-765b-adc2-c813de8cd3d1","","4104","Which type of deck did you prefer overall?","1","","","","",""
"","","","","","survey-text","169","853013","0.0-129.0","862DE92E02A74C3BAEE8EFBED4955858","0199d685-ec6f-70aa-a527-afb7086cb481","0199d675-8795-765b-adc2-c813de8cd3d1","","11702","","{""Q0"":""MALE"",""Q1"":""31""}","","","","",""
"","","","","","instructions","170","858429","0.0-130.0","862DE92E02A74C3BAEE8EFBED4955858","0199d685-ec6f-70aa-a527-afb7086cb481","0199d675-8795-765b-adc2-c813de8cd3d1","[{""page_index"":0,""viewing_time"":5415}]","5416","","","","","","",""
