"success","timeout","failed_images","failed_audio","failed_video","trial_type","trial_index","time_elapsed","internal_node_id","subject_id","study_id","session_id","view_history","rt","stimulus","response","choice"
"true","false","[]","[]","[]","preload","0","4246","0.0-0.0","4E07E79AEEBD485BAD651B5A11F96E46","a1a0102d-5cec-4219-9814-e0cc423ebd22","23db58b9-63b0-4bce-8714-07ce439e665e","","","","",""
"","","","","","instructions","1","15403","0.0-1.0","4E07E79AEEBD485BAD651B5A11F96E46","a1a0102d-5cec-4219-9814-e0cc423ebd22","23db58b9-63b0-4bce-8714-07ce439e665e","[{""page_index"":0,""viewing_time"":11156}]","11156","","",""
"","","","","","instructions","2","17560","0.0-2.0","4E07E79AEEBD485BAD651B5A11F96E46","a1a0102d-5cec-4219-9814-e0cc423ebd22","23db58b9-63b0-4bce-8714-07ce439e665e","[{""page_index"":0,""viewing_time"":2157}]","2157","","",""
"true","","","","","fullscreen","3","19425","0.0-3.0","4E07E79AEEBD485BAD651B5A11F96E46","a1a0102d-5cec-4219-9814-e0cc423ebd22","23db58b9-63b0-4bce-8714-07ce439e665e","","862","","",""
"","","","","","instructions","4","21156","0.0-4.0","4E07E79AEEBD485BAD651B5A11F96E46","a1a0102d-5cec-4219-9814-e0cc423ebd22","23db58b9-63b0-4bce-8714-07ce439e665e","[{""page_index"":0,""viewing_time"":1731}]","1731","","",""
"","","","","","html-keyboard-response","5","24342","0.0-5.0","4E07E79AEEBD485BAD651B5A11F96E46","a1a0102d-5cec-4219-9814-e0cc423ebd22","23db58b9-63b0-4bce-8714-07ce439e665e","","null","<div style=""display: flex; justify-content: center; align-items: center;"">
                <img src=""images/causal/causal_series_15/causal_series_15_a.jpg"" style=""width: 300px; height: 300px;"" />
              </div>","null",""
"","","","","","html-button-response","6","29920","0.0-6.0","4E07E79AEEBD485BAD651B5A11F96E46","a1a0102d-5cec-4219-9814-e0cc423ebd22","23db58b9-63b0-4bce-8714-07ce439e665e","","5577","
    <div style=""display: flex; justify-content: center; align-items: center;"">
      <img src=""images/red_deck_2.png"" style=""width: 300px; height: 300px; margin-right: 10px;"" />
      <img src=""images/blue_deck_1.png"" style=""width: 300px; height: 300px;"" />
    </div>","0","0"
"","","","","","html-keyboard-response","7","32933","0.0-7.0-0.0-0.0","4E07E79AEEBD485BAD651B5A11F96E46","a1a0102d-5cec-4219-9814-e0cc423ebd22","23db58b9-63b0-4bce-8714-07ce439e665e","","null","<div style=""display: flex; justify-content: center; align-items: center;"">
                <img src=""images/causal/causal_series_15/causal_series_15_b.jpg"" style=""width: 300px; height: 300px;"" />
              </div>","null",""
"","","","","","html-keyboard-response","8","35938","0.0-7.0-0.0-1.0","4E07E79AEEBD485BAD651B5A11F96E46","a1a0102d-5cec-4219-9814-e0cc423ebd22","23db58b9-63b0-4bce-8714-07ce439e665e","","null","<div style=""display: flex; justify-content: center; align-items: center;"">
                <img src=""images/causal/causal_series_15/causal_series_15_c.jpg"" style=""width: 300px; height: 300px;"" />
              </div>","null",""
"","","","","","html-keyboard-response","9","38943","0.0-7.0-0.0-2.0","4E07E79AEEBD485BAD651B5A11F96E46","a1a0102d-5cec-4219-9814-e0cc423ebd22","23db58b9-63b0-4bce-8714-07ce439e665e","","null","<div style=""display: flex; justify-content: center; align-items: center;"">
                <img src=""images/causal/causal_series_15/causal_series_15_d.jpg"" style=""width: 300px; height: 300px;"" />
              </div>","null",""
"","","","","","html-keyboard-response","10","41959","0.0-8.0","4E07E79AEEBD485BAD651B5A11F96E46","a1a0102d-5cec-4219-9814-e0cc423ebd22","23db58b9-63b0-4bce-8714-07ce439e665e","","null","<div style=""display: flex; justify-content: center; align-items: center;"">
                <img src=""images/other/blank.jpg"" style=""width: 300px; height: 300px;"" />
              </div>","null",""
"","","","","","html-keyboard-response","11","44971","0.0-9.0","4E07E79AEEBD485BAD651B5A11F96E46","a1a0102d-5cec-4219-9814-e0cc423ebd22","23db58b9-63b0-4bce-8714-07ce439e665e","","null","<div style=""display: flex; justify-content: center; align-items: center;"">
                <img src=""images/causal/causal_series_6/causal_series_6_a.jpg"" style=""width: 300px; height: 300px;"" />
              </div>","null",""
"","","","","","html-button-response","12","45896","0.0-10.0","4E07E79AEEBD485BAD651B5A11F96E46","a1a0102d-5cec-4219-9814-e0cc423ebd22","23db58b9-63b0-4bce-8714-07ce439e665e","","924","
    <div style=""display: flex; justify-content: center; align-items: center;"">
      <img src=""images/red_deck_2.png"" style=""width: 300px; height: 300px; margin-right: 10px;"" />
      <img src=""images/blue_deck_1.png"" style=""width: 300px; height: 300px;"" />
    </div>","1","1"
"","","","","","html-keyboard-response","13","48901","0.0-11.0-1.0-0.0","4E07E79AEEBD485BAD651B5A11F96E46","a1a0102d-5cec-4219-9814-e0cc423ebd22","23db58b9-63b0-4bce-8714-07ce439e665e","","null","<div style=""display: flex; justify-content: center; align-items: center;"">
                <img src=""images/semantic/semantic_series_15/semantic_series_15_d.jpg"" style=""width: 300px; height: 300px;"" />
              </div>","null",""
"","","","","","html-keyboard-response","14","51912","0.0-11.0-1.0-1.0","4E07E79AEEBD485BAD651B5A11F96E46","a1a0102d-5cec-4219-9814-e0cc423ebd22","23db58b9-63b0-4bce-8714-07ce439e665e","","null","<div style=""display: flex; justify-content: center; align-items: center;"">
                <img src=""images/semantic/semantic_series_16/semantic_series_16_d.jpg"" style=""width: 300px; height: 300px;"" />
              </div>","null",""
"","","","","","html-keyboard-response","15","54921","0.0-11.0-1.0-2.0","4E07E79AEEBD485BAD651B5A11F96E46","a1a0102d-5cec-4219-9814-e0cc423ebd22","23db58b9-63b0-4bce-8714-07ce439e665e","","null","<div style=""display: flex; justify-content: center; align-items: center;"">
                <img src=""images/semantic/semantic_series_17/semantic_series_17_d.jpg"" style=""width: 300px; height: 300px;"" />
              </div>","null",""
"","","","","","html-keyboard-response","16","57924","0.0-12.0","4E07E79AEEBD485BAD651B5A11F96E46","a1a0102d-5cec-4219-9814-e0cc423ebd22","23db58b9-63b0-4bce-8714-07ce439e665e","","null","<div style=""display: flex; justify-content: center; align-items: center;"">
                <img src=""images/other/blank.jpg"" style=""width: 300px; height: 300px;"" />
              </div>","null",""
"","","","","","html-keyboard-response","17","60928","0.0-13.0","4E07E79AEEBD485BAD651B5A11F96E46","a1a0102d-5cec-4219-9814-e0cc423ebd22","23db58b9-63b0-4bce-8714-07ce439e665e","","null","<div style=""display: flex; justify-content: center; align-items: center;"">
                <img src=""images/causal/causal_series_16/causal_series_16_a.jpg"" style=""width: 300px; height: 300px;"" />
              </div>","null",""
"","","","","","html-button-response","18","64864","0.0-14.0","4E07E79AEEBD485BAD651B5A11F96E46","a1a0102d-5cec-4219-9814-e0cc423ebd22","23db58b9-63b0-4bce-8714-07ce439e665e","","3936","
    <div style=""display: flex; justify-content: center; align-items: center;"">
      <img src=""images/red_deck_2.png"" style=""width: 300px; height: 300px; margin-right: 10px;"" />
      <img src=""images/blue_deck_1.png"" style=""width: 300px; height: 300px;"" />
    </div>","1","1"
"","","","","","html-keyboard-response","19","67869","0.0-15.0-1.0-0.0","4E07E79AEEBD485BAD651B5A11F96E46","a1a0102d-5cec-4219-9814-e0cc423ebd22","23db58b9-63b0-4bce-8714-07ce439e665e","","null","<div style=""display: flex; justify-content: center; align-items: center;"">
                <img src=""images/semantic/semantic_series_9/semantic_series_9_d.jpg"" style=""width: 300px; height: 300px;"" />
              </div>","null",""
"","","","","","html-keyboard-response","20","70885","0.0-15.0-1.0-1.0","4E07E79AEEBD485BAD651B5A11F96E46","a1a0102d-5cec-4219-9814-e0cc423ebd22","23db58b9-63b0-4bce-8714-07ce439e665e","","null","<div style=""display: flex; justify-content: center; align-items: center;"">
                <img src=""images/semantic/semantic_series_10/semantic_series_10_d.jpg"" style=""width: 300px; height: 300px;"" />
              </div>","null",""
"","","","","","html-keyboard-response","21","73888","0.0-15.0-1.0-2.0","4E07E79AEEBD485BAD651B5A11F96E46","a1a0102d-5cec-4219-9814-e0cc423ebd22","23db58b9-63b0-4bce-8714-07ce439e665e","","null","<div style=""display: flex; justify-content: center; align-items: center;"">
                <img src=""images/semantic/semantic_series_11/semantic_series_11_d.jpg"" style=""width: 300px; height: 300px;"" />
              </div>","null",""
"","","","","","html-keyboard-response","22","76891","0.0-16.0","4E07E79AEEBD485BAD651B5A11F96E46","a1a0102d-5cec-4219-9814-e0cc423ebd22","23db58b9-63b0-4bce-8714-07ce439e665e","","null","<div style=""display: flex; justify-content: center; align-items: center;"">
                <img src=""images/other/blank.jpg"" style=""width: 300px; height: 300px;"" />
              </div>","null",""
"","","","","","html-keyboard-response","23","79893","0.0-17.0","4E07E79AEEBD485BAD651B5A11F96E46","a1a0102d-5cec-4219-9814-e0cc423ebd22","23db58b9-63b0-4bce-8714-07ce439e665e","","null","<div style=""display: flex; justify-content: center; align-items: center;"">
                <img src=""images/causal/causal_series_8/causal_series_8_a.jpg"" style=""width: 300px; height: 300px;"" />
              </div>","null",""
"","","","","","html-button-response","24","82572","0.0-18.0","4E07E79AEEBD485BAD651B5A11F96E46","a1a0102d-5cec-4219-9814-e0cc423ebd22","23db58b9-63b0-4bce-8714-07ce439e665e","","2678","
    <div style=""display: flex; justify-content: center; align-items: center;"">
      <img src=""images/red_deck_2.png"" style=""width: 300px; height: 300px; margin-right: 10px;"" />
      <img src=""images/blue_deck_1.png"" style=""width: 300px; height: 300px;"" />
    </div>","1","1"
"","","","","","html-keyboard-response","25","85580","0.0-19.0-1.0-0.0","4E07E79AEEBD485BAD651B5A11F96E46","a1a0102d-5cec-4219-9814-e0cc423ebd22","23db58b9-63b0-4bce-8714-07ce439e665e","","null","<div style=""display: flex; justify-content: center; align-items: center;"">
                <img src=""images/semantic/semantic_series_3/semantic_series_3_d.jpg"" style=""width: 300px; height: 300px;"" />
              </div>","null",""
"","","","","","html-keyboard-response","26","88582","0.0-19.0-1.0-1.0","4E07E79AEEBD485BAD651B5A11F96E46","a1a0102d-5cec-4219-9814-e0cc423ebd22","23db58b9-63b0-4bce-8714-07ce439e665e","","null","<div style=""display: flex; justify-content: center; align-items: center;"">
                <img src=""images/semantic/semantic_series_4/semantic_series_4_d.jpg"" style=""width: 300px; height: 300px;"" />
              </div>","null",""
"","","","","","html-keyboard-response","27","91586","0.0-19.0-1.0-2.0","4E07E79AEEBD485BAD651B5A11F96E46","a1a0102d-5cec-4219-9814-e0cc423ebd22","23db58b9-63b0-4bce-8714-07ce439e665e","","null","<div style=""display: flex; justify-content: center; align-items: center;"">
                <img src=""images/semantic/semantic_series_5/semantic_series_5_d.jpg"" style=""width: 300px; height: 300px;"" />
              </div>","null",""
"","","","","","html-keyboard-response","28","94599","0.0-20.0","4E07E79AEEBD485BAD651B5A11F96E46","a1a0102d-5cec-4219-9814-e0cc423ebd22","23db58b9-63b0-4bce-8714-07ce439e665e","","null","<div style=""display: flex; justify-content: center; align-items: center;"">
                <img src=""images/other/blank.jpg"" style=""width: 300px; height: 300px;"" />
              </div>","null",""
"","","","","","html-keyboard-response","29","97609","0.0-21.0","4E07E79AEEBD485BAD651B5A11F96E46","a1a0102d-5cec-4219-9814-e0cc423ebd22","23db58b9-63b0-4bce-8714-07ce439e665e","","null","<div style=""display: flex; justify-content: center; align-items: center;"">
                <img src=""images/causal/causal_series_12/causal_series_12_a.jpg"" style=""width: 300px; height: 300px;"" />
              </div>","null",""
"","","","","","html-button-response","30","102746","0.0-22.0","4E07E79AEEBD485BAD651B5A11F96E46","a1a0102d-5cec-4219-9814-e0cc423ebd22","23db58b9-63b0-4bce-8714-07ce439e665e","","5136","
    <div style=""display: flex; justify-content: center; align-items: center;"">
      <img src=""images/red_deck_2.png"" style=""width: 300px; height: 300px; margin-right: 10px;"" />
      <img src=""images/blue_deck_1.png"" style=""width: 300px; height: 300px;"" />
    </div>","0","0"
"","","","","","html-keyboard-response","31","105757","0.0-23.0-0.0-0.0","4E07E79AEEBD485BAD651B5A11F96E46","a1a0102d-5cec-4219-9814-e0cc423ebd22","23db58b9-63b0-4bce-8714-07ce439e665e","","null","<div style=""display: flex; justify-content: center; align-items: center;"">
                <img src=""images/causal/causal_series_12/causal_series_12_b.jpg"" style=""width: 300px; height: 300px;"" />
              </div>","null",""
"","","","","","html-keyboard-response","32","108768","0.0-23.0-0.0-1.0","4E07E79AEEBD485BAD651B5A11F96E46","a1a0102d-5cec-4219-9814-e0cc423ebd22","23db58b9-63b0-4bce-8714-07ce439e665e","","null","<div style=""display: flex; justify-content: center; align-items: center;"">
                <img src=""images/causal/causal_series_12/causal_series_12_c.jpg"" style=""width: 300px; height: 300px;"" />
              </div>","null",""
"","","","","","html-keyboard-response","33","111770","0.0-23.0-0.0-2.0","4E07E79AEEBD485BAD651B5A11F96E46","a1a0102d-5cec-4219-9814-e0cc423ebd22","23db58b9-63b0-4bce-8714-07ce439e665e","","null","<div style=""display: flex; justify-content: center; align-items: center;"">
                <img src=""images/causal/causal_series_12/causal_series_12_d.jpg"" style=""width: 300px; height: 300px;"" />
              </div>","null",""
"","","","","","html-keyboard-response","34","114776","0.0-24.0","4E07E79AEEBD485BAD651B5A11F96E46","a1a0102d-5cec-4219-9814-e0cc423ebd22","23db58b9-63b0-4bce-8714-07ce439e665e","","null","<div style=""display: flex; justify-content: center; align-items: center;"">
                <img src=""images/other/blank.jpg"" style=""width: 300px; height: 300px;"" />
              </div>","null",""
"","","","","","html-keyboard-response","35","117778","0.0-25.0","4E07E79AEEBD485BAD651B5A11F96E46","a1a0102d-5cec-4219-9814-e0cc423ebd22","23db58b9-63b0-4bce-8714-07ce439e665e","","null","<div style=""display: flex; justify-content: center; align-items: center;"">
                <img src=""images/causal/causal_series_9/causal_series_9_a.jpg"" style=""width: 300px; height: 300px;"" />
              </div>","null",""
"","","","","","html-button-response","36","119050","0.0-26.0","4E07E79AEEBD485BAD651B5A11F96E46","a1a0102d-5cec-4219-9814-e0cc423ebd22","23db58b9-63b0-4bce-8714-07ce439e665e","","1271","
    <div style=""display: flex; justify-content: center; align-items: center;"">
      <img src=""images/red_deck_2.png"" style=""width: 300px; height: 300px; margin-right: 10px;"" />
      <img src=""images/blue_deck_1.png"" style=""width: 300px; height: 300px;"" />
    </div>","0","0"
"","","","","","html-keyboard-response","37","122060","0.0-27.0-0.0-0.0","4E07E79AEEBD485BAD651B5A11F96E46","a1a0102d-5cec-4219-9814-e0cc423ebd22","23db58b9-63b0-4bce-8714-07ce439e665e","","null","<div style=""display: flex; justify-content: center; align-items: center;"">
                <img src=""images/causal/causal_series_9/causal_series_9_b.jpg"" style=""width: 300px; height: 300px;"" />
              </div>","null",""
"","","","","","html-keyboard-response","38","125063","0.0-27.0-0.0-1.0","4E07E79AEEBD485BAD651B5A11F96E46","a1a0102d-5cec-4219-9814-e0cc423ebd22","23db58b9-63b0-4bce-8714-07ce439e665e","","null","<div style=""display: flex; justify-content: center; align-items: center;"">
                <img src=""images/causal/causal_series_9/causal_series_9_c.jpg"" style=""width: 300px; height: 300px;"" />
              </div>","null",""
"","","","","","html-keyboard-response","39","128067","0.0-27.0-0.0-2.0","4E07E79AEEBD485BAD651B5A11F96E46","a1a0102d-5cec-4219-9814-e0cc423ebd22","23db58b9-63b0-4bce-8714-07ce439e665e","","null","<div style=""display: flex; justify-content: center; align-items: center;"">
                <img src=""images/causal/causal_series_9/causal_series_9_d.jpg"" style=""width: 300px; height: 300px;"" />
              </div>","null",""
"","","","","","html-keyboard-response","40","131069","0.0-28.0","4E07E79AEEBD485BAD651B5A11F96E46","a1a0102d-5cec-4219-9814-e0cc423ebd22","23db58b9-63b0-4bce-8714-07ce439e665e","","null","<div style=""display: flex; justify-content: center; align-items: center;"">
                <img src=""images/other/blank.jpg"" style=""width: 300px; height: 300px;"" />
              </div>","null",""
"","","","","","html-keyboard-response","41","134070","0.0-29.0","4E07E79AEEBD485BAD651B5A11F96E46","a1a0102d-5cec-4219-9814-e0cc423ebd22","23db58b9-63b0-4bce-8714-07ce439e665e","","null","<div style=""display: flex; justify-content: center; align-items: center;"">
                <img src=""images/causal/causal_series_18/causal_series_18_a.jpg"" style=""width: 300px; height: 300px;"" />
              </div>","null",""
"","","","","","html-button-response","42","137519","0.0-30.0","4E07E79AEEBD485BAD651B5A11F96E46","a1a0102d-5cec-4219-9814-e0cc423ebd22","23db58b9-63b0-4bce-8714-07ce439e665e","","3448","
    <div style=""display: flex; justify-content: center; align-items: center;"">
      <img src=""images/red_deck_2.png"" style=""width: 300px; height: 300px; margin-right: 10px;"" />
      <img src=""images/blue_deck_1.png"" style=""width: 300px; height: 300px;"" />
    </div>","0","0"
"","","","","","html-keyboard-response","43","140523","0.0-31.0-0.0-0.0","4E07E79AEEBD485BAD651B5A11F96E46","a1a0102d-5cec-4219-9814-e0cc423ebd22","23db58b9-63b0-4bce-8714-07ce439e665e","","null","<div style=""display: flex; justify-content: center; align-items: center;"">
                <img src=""images/causal/causal_series_18/causal_series_18_b.jpg"" style=""width: 300px; height: 300px;"" />
              </div>","null",""
"","","","","","html-keyboard-response","44","144351","0.0-31.0-0.0-1.0","4E07E79AEEBD485BAD651B5A11F96E46","a1a0102d-5cec-4219-9814-e0cc423ebd22","23db58b9-63b0-4bce-8714-07ce439e665e","","null","<div style=""display: flex; justify-content: center; align-items: center;"">
                <img src=""images/causal/causal_series_18/causal_series_18_c.jpg"" style=""width: 300px; height: 300px;"" />
              </div>","null",""
"","","","","","html-keyboard-response","45","148350","0.0-31.0-0.0-2.0","4E07E79AEEBD485BAD651B5A11F96E46","a1a0102d-5cec-4219-9814-e0cc423ebd22","23db58b9-63b0-4bce-8714-07ce439e665e","","null","<div style=""display: flex; justify-content: center; align-items: center;"">
                <img src=""images/causal/causal_series_18/causal_series_18_d.jpg"" style=""width: 300px; height: 300px;"" />
              </div>","null",""
"","","","","","html-keyboard-response","46","152351","0.0-32.0","4E07E79AEEBD485BAD651B5A11F96E46","a1a0102d-5cec-4219-9814-e0cc423ebd22","23db58b9-63b0-4bce-8714-07ce439e665e","","null","<div style=""display: flex; justify-content: center; align-items: center;"">
                <img src=""images/other/blank.jpg"" style=""width: 300px; height: 300px;"" />
              </div>","null",""
"","","","","","html-keyboard-response","47","156357","0.0-33.0","4E07E79AEEBD485BAD651B5A11F96E46","a1a0102d-5cec-4219-9814-e0cc423ebd22","23db58b9-63b0-4bce-8714-07ce439e665e","","null","<div style=""display: flex; justify-content: center; align-items: center;"">
                <img src=""images/causal/causal_series_5/causal_series_5_a.jpg"" style=""width: 300px; height: 300px;"" />
              </div>","null",""
"","","","","","html-button-response","48","225861","0.0-34.0","4E07E79AEEBD485BAD651B5A11F96E46","a1a0102d-5cec-4219-9814-e0cc423ebd22","23db58b9-63b0-4bce-8714-07ce439e665e","","69504","
    <div style=""display: flex; justify-content: center; align-items: center;"">
      <img src=""images/red_deck_2.png"" style=""width: 300px; height: 300px; margin-right: 10px;"" />
      <img src=""images/blue_deck_1.png"" style=""width: 300px; height: 300px;"" />
    </div>","0","0"
"","","","","","html-keyboard-response","49","228865","0.0-35.0-0.0-0.0","4E07E79AEEBD485BAD651B5A11F96E46","a1a0102d-5cec-4219-9814-e0cc423ebd22","23db58b9-63b0-4bce-8714-07ce439e665e","","null","<div style=""display: flex; justify-content: center; align-items: center;"">
                <img src=""images/causal/causal_series_5/causal_series_5_b.jpg"" style=""width: 300px; height: 300px;"" />
              </div>","null",""
"","","","","","html-keyboard-response","50","231870","0.0-35.0-0.0-1.0","4E07E79AEEBD485BAD651B5A11F96E46","a1a0102d-5cec-4219-9814-e0cc423ebd22","23db58b9-63b0-4bce-8714-07ce439e665e","","null","<div style=""display: flex; justify-content: center; align-items: center;"">
                <img src=""images/causal/causal_series_5/causal_series_5_c.jpg"" style=""width: 300px; height: 300px;"" />
              </div>","null",""
"","","","","","html-keyboard-response","51","234886","0.0-35.0-0.0-2.0","4E07E79AEEBD485BAD651B5A11F96E46","a1a0102d-5cec-4219-9814-e0cc423ebd22","23db58b9-63b0-4bce-8714-07ce439e665e","","null","<div style=""display: flex; justify-content: center; align-items: center;"">
                <img src=""images/causal/causal_series_5/causal_series_5_d.jpg"" style=""width: 300px; height: 300px;"" />
              </div>","null",""
"","","","","","html-keyboard-response","52","237887","0.0-36.0","4E07E79AEEBD485BAD651B5A11F96E46","a1a0102d-5cec-4219-9814-e0cc423ebd22","23db58b9-63b0-4bce-8714-07ce439e665e","","null","<div style=""display: flex; justify-content: center; align-items: center;"">
                <img src=""images/other/blank.jpg"" style=""width: 300px; height: 300px;"" />
              </div>","null",""
"","","","","","html-keyboard-response","53","241345","0.0-37.0","4E07E79AEEBD485BAD651B5A11F96E46","a1a0102d-5cec-4219-9814-e0cc423ebd22","23db58b9-63b0-4bce-8714-07ce439e665e","","null","<div style=""display: flex; justify-content: center; align-items: center;"">
                <img src=""images/causal/causal_series_7/causal_series_7_a.jpg"" style=""width: 300px; height: 300px;"" />
              </div>","null",""
"","","","","","html-button-response","54","258851","0.0-38.0","4E07E79AEEBD485BAD651B5A11F96E46","a1a0102d-5cec-4219-9814-e0cc423ebd22","23db58b9-63b0-4bce-8714-07ce439e665e","","17505","
    <div style=""display: flex; justify-content: center; align-items: center;"">
      <img src=""images/red_deck_2.png"" style=""width: 300px; height: 300px; margin-right: 10px;"" />
      <img src=""images/blue_deck_1.png"" style=""width: 300px; height: 300px;"" />
    </div>","1","1"
"","","","","","html-keyboard-response","55","261853","0.0-39.0-1.0-0.0","4E07E79AEEBD485BAD651B5A11F96E46","a1a0102d-5cec-4219-9814-e0cc423ebd22","23db58b9-63b0-4bce-8714-07ce439e665e","","null","<div style=""display: flex; justify-content: center; align-items: center;"">
                <img src=""images/semantic/semantic_series_18/semantic_series_18_d.jpg"" style=""width: 300px; height: 300px;"" />
              </div>","null",""
"","","","","","html-keyboard-response","56","264856","0.0-39.0-1.0-1.0","4E07E79AEEBD485BAD651B5A11F96E46","a1a0102d-5cec-4219-9814-e0cc423ebd22","23db58b9-63b0-4bce-8714-07ce439e665e","","null","<div style=""display: flex; justify-content: center; align-items: center;"">
                <img src=""images/semantic/semantic_series_1/semantic_series_1_d.jpg"" style=""width: 300px; height: 300px;"" />
              </div>","null",""
"","","","","","html-keyboard-response","57","268349","0.0-39.0-1.0-2.0","4E07E79AEEBD485BAD651B5A11F96E46","a1a0102d-5cec-4219-9814-e0cc423ebd22","23db58b9-63b0-4bce-8714-07ce439e665e","","null","<div style=""display: flex; justify-content: center; align-items: center;"">
                <img src=""images/semantic/semantic_series_2/semantic_series_2_d.jpg"" style=""width: 300px; height: 300px;"" />
              </div>","null",""
"","","","","","html-keyboard-response","58","271358","0.0-40.0","4E07E79AEEBD485BAD651B5A11F96E46","a1a0102d-5cec-4219-9814-e0cc423ebd22","23db58b9-63b0-4bce-8714-07ce439e665e","","null","<div style=""display: flex; justify-content: center; align-items: center;"">
                <img src=""images/other/blank.jpg"" style=""width: 300px; height: 300px;"" />
              </div>","null",""
"","","","","","html-keyboard-response","59","274360","0.0-41.0","4E07E79AEEBD485BAD651B5A11F96E46","a1a0102d-5cec-4219-9814-e0cc423ebd22","23db58b9-63b0-4bce-8714-07ce439e665e","","null","<div style=""display: flex; justify-content: center; align-items: center;"">
                <img src=""images/causal/causal_series_11/causal_series_11_a.jpg"" style=""width: 300px; height: 300px;"" />
              </div>","null",""
"","","","","","html-button-response","60","342935","0.0-42.0","4E07E79AEEBD485BAD651B5A11F96E46","a1a0102d-5cec-4219-9814-e0cc423ebd22","23db58b9-63b0-4bce-8714-07ce439e665e","","68575","
    <div style=""display: flex; justify-content: center; align-items: center;"">
      <img src=""images/red_deck_2.png"" style=""width: 300px; height: 300px; margin-right: 10px;"" />
      <img src=""images/blue_deck_1.png"" style=""width: 300px; height: 300px;"" />
    </div>","0","0"
"","","","","","html-keyboard-response","61","346353","0.0-43.0-0.0-0.0","4E07E79AEEBD485BAD651B5A11F96E46","a1a0102d-5cec-4219-9814-e0cc423ebd22","23db58b9-63b0-4bce-8714-07ce439e665e","","null","<div style=""display: flex; justify-content: center; align-items: center;"">
                <img src=""images/causal/causal_series_11/causal_series_11_b.jpg"" style=""width: 300px; height: 300px;"" />
              </div>","null",""
"","","","","","html-keyboard-response","62","350348","0.0-43.0-0.0-1.0","4E07E79AEEBD485BAD651B5A11F96E46","a1a0102d-5cec-4219-9814-e0cc423ebd22","23db58b9-63b0-4bce-8714-07ce439e665e","","null","<div style=""display: flex; justify-content: center; align-items: center;"">
                <img src=""images/causal/causal_series_11/causal_series_11_c.jpg"" style=""width: 300px; height: 300px;"" />
              </div>","null",""
"","","","","","html-keyboard-response","63","354349","0.0-43.0-0.0-2.0","4E07E79AEEBD485BAD651B5A11F96E46","a1a0102d-5cec-4219-9814-e0cc423ebd22","23db58b9-63b0-4bce-8714-07ce439e665e","","null","<div style=""display: flex; justify-content: center; align-items: center;"">
                <img src=""images/causal/causal_series_11/causal_series_11_d.jpg"" style=""width: 300px; height: 300px;"" />
              </div>","null",""
"","","","","","html-keyboard-response","64","358349","0.0-44.0","4E07E79AEEBD485BAD651B5A11F96E46","a1a0102d-5cec-4219-9814-e0cc423ebd22","23db58b9-63b0-4bce-8714-07ce439e665e","","null","<div style=""display: flex; justify-content: center; align-items: center;"">
                <img src=""images/other/blank.jpg"" style=""width: 300px; height: 300px;"" />
              </div>","null",""
"","","","","","html-keyboard-response","65","362341","0.0-45.0","4E07E79AEEBD485BAD651B5A11F96E46","a1a0102d-5cec-4219-9814-e0cc423ebd22","23db58b9-63b0-4bce-8714-07ce439e665e","","null","<div style=""display: flex; justify-content: center; align-items: center;"">
                <img src=""images/causal/causal_series_10/causal_series_10_a.jpg"" style=""width: 300px; height: 300px;"" />
              </div>","null",""
"","","","","","html-button-response","66","469443","0.0-46.0","4E07E79AEEBD485BAD651B5A11F96E46","a1a0102d-5cec-4219-9814-e0cc423ebd22","23db58b9-63b0-4bce-8714-07ce439e665e","","107101","
    <div style=""display: flex; justify-content: center; align-items: center;"">
      <img src=""images/red_deck_2.png"" style=""width: 300px; height: 300px; margin-right: 10px;"" />
      <img src=""images/blue_deck_1.png"" style=""width: 300px; height: 300px;"" />
    </div>","0","0"
"","","","","","html-keyboard-response","67","472444","0.0-47.0-0.0-0.0","4E07E79AEEBD485BAD651B5A11F96E46","a1a0102d-5cec-4219-9814-e0cc423ebd22","23db58b9-63b0-4bce-8714-07ce439e665e","","null","<div style=""display: flex; justify-content: center; align-items: center;"">
                <img src=""images/causal/causal_series_10/causal_series_10_b.jpg"" style=""width: 300px; height: 300px;"" />
              </div>","null",""
"","","","","","html-keyboard-response","68","475445","0.0-47.0-0.0-1.0","4E07E79AEEBD485BAD651B5A11F96E46","a1a0102d-5cec-4219-9814-e0cc423ebd22","23db58b9-63b0-4bce-8714-07ce439e665e","","null","<div style=""display: flex; justify-content: center; align-items: center;"">
                <img src=""images/causal/causal_series_10/causal_series_10_c.jpg"" style=""width: 300px; height: 300px;"" />
              </div>","null",""
"","","","","","html-keyboard-response","69","478460","0.0-47.0-0.0-2.0","4E07E79AEEBD485BAD651B5A11F96E46","a1a0102d-5cec-4219-9814-e0cc423ebd22","23db58b9-63b0-4bce-8714-07ce439e665e","","null","<div style=""display: flex; justify-content: center; align-items: center;"">
                <img src=""images/causal/causal_series_10/causal_series_10_d.jpg"" style=""width: 300px; height: 300px;"" />
              </div>","null",""
"","","","","","html-keyboard-response","70","481475","0.0-48.0","4E07E79AEEBD485BAD651B5A11F96E46","a1a0102d-5cec-4219-9814-e0cc423ebd22","23db58b9-63b0-4bce-8714-07ce439e665e","","null","<div style=""display: flex; justify-content: center; align-items: center;"">
                <img src=""images/other/blank.jpg"" style=""width: 300px; height: 300px;"" />
              </div>","null",""
"","","","","","html-keyboard-response","71","484481","0.0-49.0","4E07E79AEEBD485BAD651B5A11F96E46","a1a0102d-5cec-4219-9814-e0cc423ebd22","23db58b9-63b0-4bce-8714-07ce439e665e","","null","<div style=""display: flex; justify-content: center; align-items: center;"">
                <img src=""images/causal/causal_series_13/causal_series_13_a.jpg"" style=""width: 300px; height: 300px;"" />
              </div>","null",""
"","","","","","html-button-response","72","489853","0.0-50.0","4E07E79AEEBD485BAD651B5A11F96E46","a1a0102d-5cec-4219-9814-e0cc423ebd22","23db58b9-63b0-4bce-8714-07ce439e665e","","5372","
    <div style=""display: flex; justify-content: center; align-items: center;"">
      <img src=""images/red_deck_2.png"" style=""width: 300px; height: 300px; margin-right: 10px;"" />
      <img src=""images/blue_deck_1.png"" style=""width: 300px; height: 300px;"" />
    </div>","0","0"
"","","","","","html-keyboard-response","73","492857","0.0-51.0-0.0-0.0","4E07E79AEEBD485BAD651B5A11F96E46","a1a0102d-5cec-4219-9814-e0cc423ebd22","23db58b9-63b0-4bce-8714-07ce439e665e","","null","<div style=""display: flex; justify-content: center; align-items: center;"">
                <img src=""images/causal/causal_series_13/causal_series_13_b.jpg"" style=""width: 300px; height: 300px;"" />
              </div>","null",""
"","","","","","html-keyboard-response","74","495864","0.0-51.0-0.0-1.0","4E07E79AEEBD485BAD651B5A11F96E46","a1a0102d-5cec-4219-9814-e0cc423ebd22","23db58b9-63b0-4bce-8714-07ce439e665e","","null","<div style=""display: flex; justify-content: center; align-items: center;"">
                <img src=""images/causal/causal_series_13/causal_series_13_c.jpg"" style=""width: 300px; height: 300px;"" />
              </div>","null",""
"","","","","","html-keyboard-response","75","498871","0.0-51.0-0.0-2.0","4E07E79AEEBD485BAD651B5A11F96E46","a1a0102d-5cec-4219-9814-e0cc423ebd22","23db58b9-63b0-4bce-8714-07ce439e665e","","null","<div style=""display: flex; justify-content: center; align-items: center;"">
                <img src=""images/causal/causal_series_13/causal_series_13_d.jpg"" style=""width: 300px; height: 300px;"" />
              </div>","null",""
"","","","","","html-keyboard-response","76","501878","0.0-52.0","4E07E79AEEBD485BAD651B5A11F96E46","a1a0102d-5cec-4219-9814-e0cc423ebd22","23db58b9-63b0-4bce-8714-07ce439e665e","","null","<div style=""display: flex; justify-content: center; align-items: center;"">
                <img src=""images/other/blank.jpg"" style=""width: 300px; height: 300px;"" />
              </div>","null",""
"","","","","","html-keyboard-response","77","504882","0.0-53.0","4E07E79AEEBD485BAD651B5A11F96E46","a1a0102d-5cec-4219-9814-e0cc423ebd22","23db58b9-63b0-4bce-8714-07ce439e665e","","null","<div style=""display: flex; justify-content: center; align-items: center;"">
                <img src=""images/causal/causal_series_1/causal_series_1_a.jpg"" style=""width: 300px; height: 300px;"" />
              </div>","null",""
"","","","","","html-button-response","78","505616","0.0-54.0","4E07E79AEEBD485BAD651B5A11F96E46","a1a0102d-5cec-4219-9814-e0cc423ebd22","23db58b9-63b0-4bce-8714-07ce439e665e","","733","
    <div style=""display: flex; justify-content: center; align-items: center;"">
      <img src=""images/red_deck_2.png"" style=""width: 300px; height: 300px; margin-right: 10px;"" />
      <img src=""images/blue_deck_1.png"" style=""width: 300px; height: 300px;"" />
    </div>","0","0"
"","","","","","html-keyboard-response","79","508619","0.0-55.0-0.0-0.0","4E07E79AEEBD485BAD651B5A11F96E46","a1a0102d-5cec-4219-9814-e0cc423ebd22","23db58b9-63b0-4bce-8714-07ce439e665e","","null","<div style=""display: flex; justify-content: center; align-items: center;"">
                <img src=""images/causal/causal_series_1/causal_series_1_b.jpg"" style=""width: 300px; height: 300px;"" />
              </div>","null",""
"","","","","","html-keyboard-response","80","511632","0.0-55.0-0.0-1.0","4E07E79AEEBD485BAD651B5A11F96E46","a1a0102d-5cec-4219-9814-e0cc423ebd22","23db58b9-63b0-4bce-8714-07ce439e665e","","null","<div style=""display: flex; justify-content: center; align-items: center;"">
                <img src=""images/causal/causal_series_1/causal_series_1_c.jpg"" style=""width: 300px; height: 300px;"" />
              </div>","null",""
"","","","","","html-keyboard-response","81","515351","0.0-55.0-0.0-2.0","4E07E79AEEBD485BAD651B5A11F96E46","a1a0102d-5cec-4219-9814-e0cc423ebd22","23db58b9-63b0-4bce-8714-07ce439e665e","","null","<div style=""display: flex; justify-content: center; align-items: center;"">
                <img src=""images/causal/causal_series_1/causal_series_1_d.jpg"" style=""width: 300px; height: 300px;"" />
              </div>","null",""
"","","","","","html-keyboard-response","82","519353","0.0-56.0","4E07E79AEEBD485BAD651B5A11F96E46","a1a0102d-5cec-4219-9814-e0cc423ebd22","23db58b9-63b0-4bce-8714-07ce439e665e","","null","<div style=""display: flex; justify-content: center; align-items: center;"">
                <img src=""images/other/blank.jpg"" style=""width: 300px; height: 300px;"" />
              </div>","null",""
"","","","","","html-keyboard-response","83","523343","0.0-57.0","4E07E79AEEBD485BAD651B5A11F96E46","a1a0102d-5cec-4219-9814-e0cc423ebd22","23db58b9-63b0-4bce-8714-07ce439e665e","","null","<div style=""display: flex; justify-content: center; align-items: center;"">
                <img src=""images/causal/causal_series_4/causal_series_4_a.jpg"" style=""width: 300px; height: 300px;"" />
              </div>","null",""
"","","","","","html-button-response","84","640358","0.0-58.0","4E07E79AEEBD485BAD651B5A11F96E46","a1a0102d-5cec-4219-9814-e0cc423ebd22","23db58b9-63b0-4bce-8714-07ce439e665e","","117014","
    <div style=""display: flex; justify-content: center; align-items: center;"">
      <img src=""images/red_deck_2.png"" style=""width: 300px; height: 300px; margin-right: 10px;"" />
      <img src=""images/blue_deck_1.png"" style=""width: 300px; height: 300px;"" />
    </div>","0","0"
"","","","","","html-keyboard-response","85","644288","0.0-59.0-0.0-0.0","4E07E79AEEBD485BAD651B5A11F96E46","a1a0102d-5cec-4219-9814-e0cc423ebd22","23db58b9-63b0-4bce-8714-07ce439e665e","","null","<div style=""display: flex; justify-content: center; align-items: center;"">
                <img src=""images/causal/causal_series_4/causal_series_4_b.jpg"" style=""width: 300px; height: 300px;"" />
              </div>","null",""
"","","","","","html-keyboard-response","86","647301","0.0-59.0-0.0-1.0","4E07E79AEEBD485BAD651B5A11F96E46","a1a0102d-5cec-4219-9814-e0cc423ebd22","23db58b9-63b0-4bce-8714-07ce439e665e","","null","<div style=""display: flex; justify-content: center; align-items: center;"">
                <img src=""images/causal/causal_series_4/causal_series_4_c.jpg"" style=""width: 300px; height: 300px;"" />
              </div>","null",""
"","","","","","html-keyboard-response","87","650348","0.0-59.0-0.0-2.0","4E07E79AEEBD485BAD651B5A11F96E46","a1a0102d-5cec-4219-9814-e0cc423ebd22","23db58b9-63b0-4bce-8714-07ce439e665e","","null","<div style=""display: flex; justify-content: center; align-items: center;"">
                <img src=""images/causal/causal_series_4/causal_series_4_d.jpg"" style=""width: 300px; height: 300px;"" />
              </div>","null",""
"","","","","","html-keyboard-response","88","654350","0.0-60.0","4E07E79AEEBD485BAD651B5A11F96E46","a1a0102d-5cec-4219-9814-e0cc423ebd22","23db58b9-63b0-4bce-8714-07ce439e665e","","null","<div style=""display: flex; justify-content: center; align-items: center;"">
                <img src=""images/other/blank.jpg"" style=""width: 300px; height: 300px;"" />
              </div>","null",""
"","","","","","html-keyboard-response","89","658344","0.0-61.0","4E07E79AEEBD485BAD651B5A11F96E46","a1a0102d-5cec-4219-9814-e0cc423ebd22","23db58b9-63b0-4bce-8714-07ce439e665e","","null","<div style=""display: flex; justify-content: center; align-items: center;"">
                <img src=""images/causal/causal_series_2/causal_series_2_a.jpg"" style=""width: 300px; height: 300px;"" />
              </div>","null",""
"","","","","","html-button-response","90","661364","0.0-62.0","4E07E79AEEBD485BAD651B5A11F96E46","a1a0102d-5cec-4219-9814-e0cc423ebd22","23db58b9-63b0-4bce-8714-07ce439e665e","","3019","
    <div style=""display: flex; justify-content: center; align-items: center;"">
      <img src=""images/red_deck_2.png"" style=""width: 300px; height: 300px; margin-right: 10px;"" />
      <img src=""images/blue_deck_1.png"" style=""width: 300px; height: 300px;"" />
    </div>","0","0"
"","","","","","html-keyboard-response","91","664379","0.0-63.0-0.0-0.0","4E07E79AEEBD485BAD651B5A11F96E46","a1a0102d-5cec-4219-9814-e0cc423ebd22","23db58b9-63b0-4bce-8714-07ce439e665e","","null","<div style=""display: flex; justify-content: center; align-items: center;"">
                <img src=""images/causal/causal_series_2/causal_series_2_b.jpg"" style=""width: 300px; height: 300px;"" />
              </div>","null",""
"","","","","","html-keyboard-response","92","667383","0.0-63.0-0.0-1.0","4E07E79AEEBD485BAD651B5A11F96E46","a1a0102d-5cec-4219-9814-e0cc423ebd22","23db58b9-63b0-4bce-8714-07ce439e665e","","null","<div style=""display: flex; justify-content: center; align-items: center;"">
                <img src=""images/causal/causal_series_2/causal_series_2_c.jpg"" style=""width: 300px; height: 300px;"" />
              </div>","null",""
"","","","","","html-keyboard-response","93","670391","0.0-63.0-0.0-2.0","4E07E79AEEBD485BAD651B5A11F96E46","a1a0102d-5cec-4219-9814-e0cc423ebd22","23db58b9-63b0-4bce-8714-07ce439e665e","","null","<div style=""display: flex; justify-content: center; align-items: center;"">
                <img src=""images/causal/causal_series_2/causal_series_2_d.jpg"" style=""width: 300px; height: 300px;"" />
              </div>","null",""
"","","","","","html-keyboard-response","94","673394","0.0-64.0","4E07E79AEEBD485BAD651B5A11F96E46","a1a0102d-5cec-4219-9814-e0cc423ebd22","23db58b9-63b0-4bce-8714-07ce439e665e","","null","<div style=""display: flex; justify-content: center; align-items: center;"">
                <img src=""images/other/blank.jpg"" style=""width: 300px; height: 300px;"" />
              </div>","null",""
"","","","","","html-keyboard-response","95","676406","0.0-65.0","4E07E79AEEBD485BAD651B5A11F96E46","a1a0102d-5cec-4219-9814-e0cc423ebd22","23db58b9-63b0-4bce-8714-07ce439e665e","","null","<div style=""display: flex; justify-content: center; align-items: center;"">
                <img src=""images/causal/causal_series_3/causal_series_3_a.jpg"" style=""width: 300px; height: 300px;"" />
              </div>","null",""
"","","","","","html-button-response","96","677186","0.0-66.0","4E07E79AEEBD485BAD651B5A11F96E46","a1a0102d-5cec-4219-9814-e0cc423ebd22","23db58b9-63b0-4bce-8714-07ce439e665e","","779","
    <div style=""display: flex; justify-content: center; align-items: center;"">
      <img src=""images/red_deck_2.png"" style=""width: 300px; height: 300px; margin-right: 10px;"" />
      <img src=""images/blue_deck_1.png"" style=""width: 300px; height: 300px;"" />
    </div>","1","1"
"","","","","","html-keyboard-response","97","680192","0.0-67.0-1.0-0.0","4E07E79AEEBD485BAD651B5A11F96E46","a1a0102d-5cec-4219-9814-e0cc423ebd22","23db58b9-63b0-4bce-8714-07ce439e665e","","null","<div style=""display: flex; justify-content: center; align-items: center;"">
                <img src=""images/semantic/semantic_series_6/semantic_series_6_d.jpg"" style=""width: 300px; height: 300px;"" />
              </div>","null",""
"","","","","","html-keyboard-response","98","683203","0.0-67.0-1.0-1.0","4E07E79AEEBD485BAD651B5A11F96E46","a1a0102d-5cec-4219-9814-e0cc423ebd22","23db58b9-63b0-4bce-8714-07ce439e665e","","null","<div style=""display: flex; justify-content: center; align-items: center;"">
                <img src=""images/semantic/semantic_series_7/semantic_series_7_d.jpg"" style=""width: 300px; height: 300px;"" />
              </div>","null",""
"","","","","","html-keyboard-response","99","686218","0.0-67.0-1.0-2.0","4E07E79AEEBD485BAD651B5A11F96E46","a1a0102d-5cec-4219-9814-e0cc423ebd22","23db58b9-63b0-4bce-8714-07ce439e665e","","null","<div style=""display: flex; justify-content: center; align-items: center;"">
                <img src=""images/semantic/semantic_series_8/semantic_series_8_d.jpg"" style=""width: 300px; height: 300px;"" />
              </div>","null",""
"","","","","","html-keyboard-response","100","689228","0.0-68.0","4E07E79AEEBD485BAD651B5A11F96E46","a1a0102d-5cec-4219-9814-e0cc423ebd22","23db58b9-63b0-4bce-8714-07ce439e665e","","null","<div style=""display: flex; justify-content: center; align-items: center;"">
                <img src=""images/other/blank.jpg"" style=""width: 300px; height: 300px;"" />
              </div>","null",""
"","","","","","html-keyboard-response","101","692229","0.0-69.0","4E07E79AEEBD485BAD651B5A11F96E46","a1a0102d-5cec-4219-9814-e0cc423ebd22","23db58b9-63b0-4bce-8714-07ce439e665e","","null","<div style=""display: flex; justify-content: center; align-items: center;"">
                <img src=""images/causal/causal_series_14/causal_series_14_a.jpg"" style=""width: 300px; height: 300px;"" />
              </div>","null",""
"","","","","","html-button-response","102","856550","0.0-70.0","4E07E79AEEBD485BAD651B5A11F96E46","a1a0102d-5cec-4219-9814-e0cc423ebd22","23db58b9-63b0-4bce-8714-07ce439e665e","","164320","
    <div style=""display: flex; justify-content: center; align-items: center;"">
      <img src=""images/red_deck_2.png"" style=""width: 300px; height: 300px; margin-right: 10px;"" />
      <img src=""images/blue_deck_1.png"" style=""width: 300px; height: 300px;"" />
    </div>","0","0"
"","","","","","html-keyboard-response","103","860353","0.0-71.0-0.0-0.0","4E07E79AEEBD485BAD651B5A11F96E46","a1a0102d-5cec-4219-9814-e0cc423ebd22","23db58b9-63b0-4bce-8714-07ce439e665e","","null","<div style=""display: flex; justify-content: center; align-items: center;"">
                <img src=""images/causal/causal_series_14/causal_series_14_b.jpg"" style=""width: 300px; height: 300px;"" />
              </div>","null",""
"","","","","","html-keyboard-response","104","864355","0.0-71.0-0.0-1.0","4E07E79AEEBD485BAD651B5A11F96E46","a1a0102d-5cec-4219-9814-e0cc423ebd22","23db58b9-63b0-4bce-8714-07ce439e665e","","null","<div style=""display: flex; justify-content: center; align-items: center;"">
                <img src=""images/causal/causal_series_14/causal_series_14_c.jpg"" style=""width: 300px; height: 300px;"" />
              </div>","null",""
"","","","","","html-keyboard-response","105","867767","0.0-71.0-0.0-2.0","4E07E79AEEBD485BAD651B5A11F96E46","a1a0102d-5cec-4219-9814-e0cc423ebd22","23db58b9-63b0-4bce-8714-07ce439e665e","","null","<div style=""display: flex; justify-content: center; align-items: center;"">
                <img src=""images/causal/causal_series_14/causal_series_14_d.jpg"" style=""width: 300px; height: 300px;"" />
              </div>","null",""
"","","","","","html-keyboard-response","106","871353","0.0-72.0","4E07E79AEEBD485BAD651B5A11F96E46","a1a0102d-5cec-4219-9814-e0cc423ebd22","23db58b9-63b0-4bce-8714-07ce439e665e","","null","<div style=""display: flex; justify-content: center; align-items: center;"">
                <img src=""images/other/blank.jpg"" style=""width: 300px; height: 300px;"" />
              </div>","null",""
"","","","","","html-keyboard-response","107","875356","0.0-73.0","4E07E79AEEBD485BAD651B5A11F96E46","a1a0102d-5cec-4219-9814-e0cc423ebd22","23db58b9-63b0-4bce-8714-07ce439e665e","","null","<div style=""display: flex; justify-content: center; align-items: center;"">
                <img src=""images/causal/causal_series_17/causal_series_17_a.jpg"" style=""width: 300px; height: 300px;"" />
              </div>","null",""
"","","","","","html-button-response","108","890732","0.0-74.0","4E07E79AEEBD485BAD651B5A11F96E46","a1a0102d-5cec-4219-9814-e0cc423ebd22","23db58b9-63b0-4bce-8714-07ce439e665e","","15376","
    <div style=""display: flex; justify-content: center; align-items: center;"">
      <img src=""images/red_deck_2.png"" style=""width: 300px; height: 300px; margin-right: 10px;"" />
      <img src=""images/blue_deck_1.png"" style=""width: 300px; height: 300px;"" />
    </div>","0","0"
"","","","","","html-keyboard-response","109","893741","0.0-75.0-0.0-0.0","4E07E79AEEBD485BAD651B5A11F96E46","a1a0102d-5cec-4219-9814-e0cc423ebd22","23db58b9-63b0-4bce-8714-07ce439e665e","","null","<div style=""display: flex; justify-content: center; align-items: center;"">
                <img src=""images/causal/causal_series_17/causal_series_17_b.jpg"" style=""width: 300px; height: 300px;"" />
              </div>","null",""
"","","","","","html-keyboard-response","110","896744","0.0-75.0-0.0-1.0","4E07E79AEEBD485BAD651B5A11F96E46","a1a0102d-5cec-4219-9814-e0cc423ebd22","23db58b9-63b0-4bce-8714-07ce439e665e","","null","<div style=""display: flex; justify-content: center; align-items: center;"">
                <img src=""images/causal/causal_series_17/causal_series_17_c.jpg"" style=""width: 300px; height: 300px;"" />
              </div>","null",""
"","","","","","html-keyboard-response","111","899746","0.0-75.0-0.0-2.0","4E07E79AEEBD485BAD651B5A11F96E46","a1a0102d-5cec-4219-9814-e0cc423ebd22","23db58b9-63b0-4bce-8714-07ce439e665e","","null","<div style=""display: flex; justify-content: center; align-items: center;"">
                <img src=""images/causal/causal_series_17/causal_series_17_d.jpg"" style=""width: 300px; height: 300px;"" />
              </div>","null",""
"","","","","","html-keyboard-response","112","902754","0.0-76.0","4E07E79AEEBD485BAD651B5A11F96E46","a1a0102d-5cec-4219-9814-e0cc423ebd22","23db58b9-63b0-4bce-8714-07ce439e665e","","null","<div style=""display: flex; justify-content: center; align-items: center;"">
                <img src=""images/other/blank.jpg"" style=""width: 300px; height: 300px;"" />
              </div>","null",""
"","","","","","survey-text","113","914271","0.0-77.0","4E07E79AEEBD485BAD651B5A11F96E46","a1a0102d-5cec-4219-9814-e0cc423ebd22","23db58b9-63b0-4bce-8714-07ce439e665e","","11514","","{""Q0"":""activity level""}",""
"","","","","","survey-text","114","923501","0.0-78.0","4E07E79AEEBD485BAD651B5A11F96E46","a1a0102d-5cec-4219-9814-e0cc423ebd22","23db58b9-63b0-4bce-8714-07ce439e665e","","9227","","{""Q0"":""the red deck seemed more engaging""}",""
"","","","","","html-button-response","115","929616","0.0-79.0","4E07E79AEEBD485BAD651B5A11F96E46","a1a0102d-5cec-4219-9814-e0cc423ebd22","23db58b9-63b0-4bce-8714-07ce439e665e","","6115","Which color deck does the fourth image continue the story from the series?","0",""
"","","","","","html-button-response","116","930959","0.0-80.0","4E07E79AEEBD485BAD651B5A11F96E46","a1a0102d-5cec-4219-9814-e0cc423ebd22","23db58b9-63b0-4bce-8714-07ce439e665e","","1342","Which color deck does the fourth image not follow the story from the series?","1",""
"","","","","","survey-text","117","941721","0.0-81.0","4E07E79AEEBD485BAD651B5A11F96E46","a1a0102d-5cec-4219-9814-e0cc423ebd22","23db58b9-63b0-4bce-8714-07ce439e665e","","10760","","{""Q0"":""Male"",""Q1"":""27""}",""
"","","","","","instructions","118","947511","0.0-82.0","4E07E79AEEBD485BAD651B5A11F96E46","a1a0102d-5cec-4219-9814-e0cc423ebd22","23db58b9-63b0-4bce-8714-07ce439e665e","[{""page_index"":0,""viewing_time"":5789}]","5789","","",""
