"success","timeout","failed_images","failed_audio","failed_video","trial_type","trial_index","time_elapsed","internal_node_id","subject_id","study_id","session_id","view_history","rt","stimulus","response","phase","choice","question_order"
"true","false","[]","[]","[]","preload","0","424","0.0-0.0","F10B5079F863411ABD85CF7C5BD46E53","019a50d1-2936-7da3-b9df-fa70d490b5d7","019a50cf-ba5d-7779-b88c-2ff4a321cee9","","","","","","",""
"","","","","","instructions","1","7387","0.0-1.0","F10B5079F863411ABD85CF7C5BD46E53","019a50d1-2936-7da3-b9df-fa70d490b5d7","019a50cf-ba5d-7779-b88c-2ff4a321cee9","[{""page_index"":0,""viewing_time"":6963}]","6963","","","","",""
"","","","","","instructions","2","16425","0.0-2.0","F10B5079F863411ABD85CF7C5BD46E53","019a50d1-2936-7da3-b9df-fa70d490b5d7","019a50cf-ba5d-7779-b88c-2ff4a321cee9","[{""page_index"":0,""viewing_time"":9037}]","9038","","","","",""
"true","","","","","fullscreen","3","19347","0.0-3.0","F10B5079F863411ABD85CF7C5BD46E53","019a50d1-2936-7da3-b9df-fa70d490b5d7","019a50cf-ba5d-7779-b88c-2ff4a321cee9","","1909","","","","",""
"","","","","","instructions","4","38773","0.0-4.0","F10B5079F863411ABD85CF7C5BD46E53","019a50d1-2936-7da3-b9df-fa70d490b5d7","019a50cf-ba5d-7779-b88c-2ff4a321cee9","[{""page_index"":0,""viewing_time"":19425}]","19425","","","","",""
"","","","","","html-button-response","5","41355","0.0-5.0-0.0","F10B5079F863411ABD85CF7C5BD46E53","019a50d1-2936-7da3-b9df-fa70d490b5d7","019a50cf-ba5d-7779-b88c-2ff4a321cee9","","2582","
        <div style=""display: flex; justify-content: center; align-items: center;"">
          <img src=""images/red_deck_2.png"" style=""width: 300px; height: 300px; margin-right: 10px;"" />
          <img src=""images/blue_deck_1.png"" style=""width: 300px; height: 300px;"" />
        </div>","0","deck_choice","0",""
"","","","","","html-keyboard-response","6","47364","0.0-5.0-1.0-0.0-0.0","F10B5079F863411ABD85CF7C5BD46E53","019a50d1-2936-7da3-b9df-fa70d490b5d7","019a50cf-ba5d-7779-b88c-2ff4a321cee9","","null","<div style=""display: flex; justify-content: center; align-items: center;"">
                     <img src=""images/causal/causal_series_7/causal_series_7_a.png"" style=""width: 300px; height: 300px;"" />
                   </div>","null","causal_a","",""
"","","","","","html-keyboard-response","7","53370","0.0-5.0-1.0-0.0-1.0","F10B5079F863411ABD85CF7C5BD46E53","019a50d1-2936-7da3-b9df-fa70d490b5d7","019a50cf-ba5d-7779-b88c-2ff4a321cee9","","null","<div style=""display: flex; justify-content: center; align-items: center;"">
                     <img src=""images/causal/causal_series_7/causal_series_7_b.png"" style=""width: 300px; height: 300px;"" />
                   </div>","null","causal_b","",""
"","","","","","survey-likert","8","56871","0.0-5.0-2.0","F10B5079F863411ABD85CF7C5BD46E53","019a50d1-2936-7da3-b9df-fa70d490b5d7","019a50cf-ba5d-7779-b88c-2ff4a321cee9","","3500","","{""Q0"":2}","surprise_rating","","[0]"
"","","","","","survey-likert","9","59358","0.0-5.0-3.0","F10B5079F863411ABD85CF7C5BD46E53","019a50d1-2936-7da3-b9df-fa70d490b5d7","019a50cf-ba5d-7779-b88c-2ff4a321cee9","","2486","","{""Q0"":1}","enjoyment_rating","","[0]"
"","","","","","html-button-response","10","60925","0.0-6.0-0.0","F10B5079F863411ABD85CF7C5BD46E53","019a50d1-2936-7da3-b9df-fa70d490b5d7","019a50cf-ba5d-7779-b88c-2ff4a321cee9","","1566","
        <div style=""display: flex; justify-content: center; align-items: center;"">
          <img src=""images/red_deck_2.png"" style=""width: 300px; height: 300px; margin-right: 10px;"" />
          <img src=""images/blue_deck_1.png"" style=""width: 300px; height: 300px;"" />
        </div>","1","deck_choice","1",""
"","","","","","html-keyboard-response","11","72926","0.0-6.0-1.0-1.0-0.0","F10B5079F863411ABD85CF7C5BD46E53","019a50d1-2936-7da3-b9df-fa70d490b5d7","019a50cf-ba5d-7779-b88c-2ff4a321cee9","","null","<div style=""display: flex; justify-content: center; align-items: center;"">
                     <img src=""images/semantic/semantic_series_8/semantic_series_8_a.png"" style=""width: 300px; height: 300px;"" />
                   </div>","null","semantic_a","",""
"","","","","","survey-likert","12","76946","0.0-6.0-2.0","F10B5079F863411ABD85CF7C5BD46E53","019a50d1-2936-7da3-b9df-fa70d490b5d7","019a50cf-ba5d-7779-b88c-2ff4a321cee9","","4019","","{""Q0"":1}","surprise_rating","","[0]"
"","","","","","survey-likert","13","79446","0.0-6.0-3.0","F10B5079F863411ABD85CF7C5BD46E53","019a50d1-2936-7da3-b9df-fa70d490b5d7","019a50cf-ba5d-7779-b88c-2ff4a321cee9","","2499","","{""Q0"":3}","enjoyment_rating","","[0]"
"","","","","","html-button-response","14","80217","0.0-7.0-0.0","F10B5079F863411ABD85CF7C5BD46E53","019a50d1-2936-7da3-b9df-fa70d490b5d7","019a50cf-ba5d-7779-b88c-2ff4a321cee9","","770","
        <div style=""display: flex; justify-content: center; align-items: center;"">
          <img src=""images/red_deck_2.png"" style=""width: 300px; height: 300px; margin-right: 10px;"" />
          <img src=""images/blue_deck_1.png"" style=""width: 300px; height: 300px;"" />
        </div>","1","deck_choice","1",""
"","","","","","html-keyboard-response","15","92228","0.0-7.0-1.0-1.0-0.0","F10B5079F863411ABD85CF7C5BD46E53","019a50d1-2936-7da3-b9df-fa70d490b5d7","019a50cf-ba5d-7779-b88c-2ff4a321cee9","","null","<div style=""display: flex; justify-content: center; align-items: center;"">
                     <img src=""images/semantic/semantic_series_1/semantic_series_1_a.png"" style=""width: 300px; height: 300px;"" />
                   </div>","null","semantic_a","",""
"","","","","","survey-likert","16","94923","0.0-7.0-2.0","F10B5079F863411ABD85CF7C5BD46E53","019a50d1-2936-7da3-b9df-fa70d490b5d7","019a50cf-ba5d-7779-b88c-2ff4a321cee9","","2694","","{""Q0"":2}","surprise_rating","","[0]"
"","","","","","survey-likert","17","96258","0.0-7.0-3.0","F10B5079F863411ABD85CF7C5BD46E53","019a50d1-2936-7da3-b9df-fa70d490b5d7","019a50cf-ba5d-7779-b88c-2ff4a321cee9","","1334","","{""Q0"":3}","enjoyment_rating","","[0]"
"","","","","","html-button-response","18","97145","0.0-8.0-0.0","F10B5079F863411ABD85CF7C5BD46E53","019a50d1-2936-7da3-b9df-fa70d490b5d7","019a50cf-ba5d-7779-b88c-2ff4a321cee9","","886","
        <div style=""display: flex; justify-content: center; align-items: center;"">
          <img src=""images/red_deck_2.png"" style=""width: 300px; height: 300px; margin-right: 10px;"" />
          <img src=""images/blue_deck_1.png"" style=""width: 300px; height: 300px;"" />
        </div>","0","deck_choice","0",""
"","","","","","html-keyboard-response","19","103150","0.0-8.0-1.0-0.0-0.0","F10B5079F863411ABD85CF7C5BD46E53","019a50d1-2936-7da3-b9df-fa70d490b5d7","019a50cf-ba5d-7779-b88c-2ff4a321cee9","","null","<div style=""display: flex; justify-content: center; align-items: center;"">
                     <img src=""images/causal/causal_series_10/causal_series_10_a.png"" style=""width: 300px; height: 300px;"" />
                   </div>","null","causal_a","",""
"","","","","","html-keyboard-response","20","109155","0.0-8.0-1.0-0.0-1.0","F10B5079F863411ABD85CF7C5BD46E53","019a50d1-2936-7da3-b9df-fa70d490b5d7","019a50cf-ba5d-7779-b88c-2ff4a321cee9","","null","<div style=""display: flex; justify-content: center; align-items: center;"">
                     <img src=""images/causal/causal_series_10/causal_series_10_b.png"" style=""width: 300px; height: 300px;"" />
                   </div>","null","causal_b","",""
"","","","","","survey-likert","21","112950","0.0-8.0-2.0","F10B5079F863411ABD85CF7C5BD46E53","019a50d1-2936-7da3-b9df-fa70d490b5d7","019a50cf-ba5d-7779-b88c-2ff4a321cee9","","3794","","{""Q0"":1}","surprise_rating","","[0]"
"","","","","","survey-likert","22","115344","0.0-8.0-3.0","F10B5079F863411ABD85CF7C5BD46E53","019a50d1-2936-7da3-b9df-fa70d490b5d7","019a50cf-ba5d-7779-b88c-2ff4a321cee9","","2393","","{""Q0"":3}","enjoyment_rating","","[0]"
"","","","","","html-button-response","23","116237","0.0-9.0-0.0","F10B5079F863411ABD85CF7C5BD46E53","019a50d1-2936-7da3-b9df-fa70d490b5d7","019a50cf-ba5d-7779-b88c-2ff4a321cee9","","892","
        <div style=""display: flex; justify-content: center; align-items: center;"">
          <img src=""images/red_deck_2.png"" style=""width: 300px; height: 300px; margin-right: 10px;"" />
          <img src=""images/blue_deck_1.png"" style=""width: 300px; height: 300px;"" />
        </div>","0","deck_choice","0",""
"","","","","","html-keyboard-response","24","122242","0.0-9.0-1.0-0.0-0.0","F10B5079F863411ABD85CF7C5BD46E53","019a50d1-2936-7da3-b9df-fa70d490b5d7","019a50cf-ba5d-7779-b88c-2ff4a321cee9","","null","<div style=""display: flex; justify-content: center; align-items: center;"">
                     <img src=""images/causal/causal_series_9/causal_series_9_a.png"" style=""width: 300px; height: 300px;"" />
                   </div>","null","causal_a","",""
"","","","","","html-keyboard-response","25","128255","0.0-9.0-1.0-0.0-1.0","F10B5079F863411ABD85CF7C5BD46E53","019a50d1-2936-7da3-b9df-fa70d490b5d7","019a50cf-ba5d-7779-b88c-2ff4a321cee9","","null","<div style=""display: flex; justify-content: center; align-items: center;"">
                     <img src=""images/causal/causal_series_9/causal_series_9_b.png"" style=""width: 300px; height: 300px;"" />
                   </div>","null","causal_b","",""
"","","","","","survey-likert","26","132156","0.0-9.0-2.0","F10B5079F863411ABD85CF7C5BD46E53","019a50d1-2936-7da3-b9df-fa70d490b5d7","019a50cf-ba5d-7779-b88c-2ff4a321cee9","","3900","","{""Q0"":2}","surprise_rating","","[0]"
"","","","","","survey-likert","27","134393","0.0-9.0-3.0","F10B5079F863411ABD85CF7C5BD46E53","019a50d1-2936-7da3-b9df-fa70d490b5d7","019a50cf-ba5d-7779-b88c-2ff4a321cee9","","2236","","{""Q0"":2}","enjoyment_rating","","[0]"
"","","","","","html-button-response","28","134993","0.0-10.0-0.0","F10B5079F863411ABD85CF7C5BD46E53","019a50d1-2936-7da3-b9df-fa70d490b5d7","019a50cf-ba5d-7779-b88c-2ff4a321cee9","","599","
        <div style=""display: flex; justify-content: center; align-items: center;"">
          <img src=""images/red_deck_2.png"" style=""width: 300px; height: 300px; margin-right: 10px;"" />
          <img src=""images/blue_deck_1.png"" style=""width: 300px; height: 300px;"" />
        </div>","0","deck_choice","0",""
"","","","","","html-keyboard-response","29","140994","0.0-10.0-1.0-0.0-0.0","F10B5079F863411ABD85CF7C5BD46E53","019a50d1-2936-7da3-b9df-fa70d490b5d7","019a50cf-ba5d-7779-b88c-2ff4a321cee9","","null","<div style=""display: flex; justify-content: center; align-items: center;"">
                     <img src=""images/causal/causal_series_3/causal_series_3_a.png"" style=""width: 300px; height: 300px;"" />
                   </div>","null","causal_a","",""
"","","","","","html-keyboard-response","30","147011","0.0-10.0-1.0-0.0-1.0","F10B5079F863411ABD85CF7C5BD46E53","019a50d1-2936-7da3-b9df-fa70d490b5d7","019a50cf-ba5d-7779-b88c-2ff4a321cee9","","null","<div style=""display: flex; justify-content: center; align-items: center;"">
                     <img src=""images/causal/causal_series_3/causal_series_3_b.png"" style=""width: 300px; height: 300px;"" />
                   </div>","null","causal_b","",""
"","","","","","survey-likert","31","150261","0.0-10.0-2.0","F10B5079F863411ABD85CF7C5BD46E53","019a50d1-2936-7da3-b9df-fa70d490b5d7","019a50cf-ba5d-7779-b88c-2ff4a321cee9","","3249","","{""Q0"":1}","surprise_rating","","[0]"
"","","","","","survey-likert","32","152029","0.0-10.0-3.0","F10B5079F863411ABD85CF7C5BD46E53","019a50d1-2936-7da3-b9df-fa70d490b5d7","019a50cf-ba5d-7779-b88c-2ff4a321cee9","","1767","","{""Q0"":4}","enjoyment_rating","","[0]"
"","","","","","html-button-response","33","152508","0.0-11.0-0.0","F10B5079F863411ABD85CF7C5BD46E53","019a50d1-2936-7da3-b9df-fa70d490b5d7","019a50cf-ba5d-7779-b88c-2ff4a321cee9","","479","
        <div style=""display: flex; justify-content: center; align-items: center;"">
          <img src=""images/red_deck_2.png"" style=""width: 300px; height: 300px; margin-right: 10px;"" />
          <img src=""images/blue_deck_1.png"" style=""width: 300px; height: 300px;"" />
        </div>","0","deck_choice","0",""
"","","","","","html-keyboard-response","34","158509","0.0-11.0-1.0-0.0-0.0","F10B5079F863411ABD85CF7C5BD46E53","019a50d1-2936-7da3-b9df-fa70d490b5d7","019a50cf-ba5d-7779-b88c-2ff4a321cee9","","null","<div style=""display: flex; justify-content: center; align-items: center;"">
                     <img src=""images/causal/causal_series_6/causal_series_6_a.png"" style=""width: 300px; height: 300px;"" />
                   </div>","null","causal_a","",""
"","","","","","html-keyboard-response","35","164522","0.0-11.0-1.0-0.0-1.0","F10B5079F863411ABD85CF7C5BD46E53","019a50d1-2936-7da3-b9df-fa70d490b5d7","019a50cf-ba5d-7779-b88c-2ff4a321cee9","","null","<div style=""display: flex; justify-content: center; align-items: center;"">
                     <img src=""images/causal/causal_series_6/causal_series_6_b.png"" style=""width: 300px; height: 300px;"" />
                   </div>","null","causal_b","",""
"","","","","","survey-likert","36","166923","0.0-11.0-2.0","F10B5079F863411ABD85CF7C5BD46E53","019a50d1-2936-7da3-b9df-fa70d490b5d7","019a50cf-ba5d-7779-b88c-2ff4a321cee9","","2400","","{""Q0"":3}","surprise_rating","","[0]"
"","","","","","survey-likert","37","168315","0.0-11.0-3.0","F10B5079F863411ABD85CF7C5BD46E53","019a50d1-2936-7da3-b9df-fa70d490b5d7","019a50cf-ba5d-7779-b88c-2ff4a321cee9","","1391","","{""Q0"":1}","enjoyment_rating","","[0]"
"","","","","","html-button-response","38","169424","0.0-12.0-0.0","F10B5079F863411ABD85CF7C5BD46E53","019a50d1-2936-7da3-b9df-fa70d490b5d7","019a50cf-ba5d-7779-b88c-2ff4a321cee9","","1108","
        <div style=""display: flex; justify-content: center; align-items: center;"">
          <img src=""images/red_deck_2.png"" style=""width: 300px; height: 300px; margin-right: 10px;"" />
          <img src=""images/blue_deck_1.png"" style=""width: 300px; height: 300px;"" />
        </div>","0","deck_choice","0",""
"","","","","","html-keyboard-response","39","175436","0.0-12.0-1.0-0.0-0.0","F10B5079F863411ABD85CF7C5BD46E53","019a50d1-2936-7da3-b9df-fa70d490b5d7","019a50cf-ba5d-7779-b88c-2ff4a321cee9","","null","<div style=""display: flex; justify-content: center; align-items: center;"">
                     <img src=""images/causal/causal_series_4/causal_series_4_a.png"" style=""width: 300px; height: 300px;"" />
                   </div>","null","causal_a","",""
"","","","","","html-keyboard-response","40","181452","0.0-12.0-1.0-0.0-1.0","F10B5079F863411ABD85CF7C5BD46E53","019a50d1-2936-7da3-b9df-fa70d490b5d7","019a50cf-ba5d-7779-b88c-2ff4a321cee9","","null","<div style=""display: flex; justify-content: center; align-items: center;"">
                     <img src=""images/causal/causal_series_4/causal_series_4_b.png"" style=""width: 300px; height: 300px;"" />
                   </div>","null","causal_b","",""
"","","","","","survey-likert","41","184055","0.0-12.0-2.0","F10B5079F863411ABD85CF7C5BD46E53","019a50d1-2936-7da3-b9df-fa70d490b5d7","019a50cf-ba5d-7779-b88c-2ff4a321cee9","","2602","","{""Q0"":1}","surprise_rating","","[0]"
"","","","","","survey-likert","42","186529","0.0-12.0-3.0","F10B5079F863411ABD85CF7C5BD46E53","019a50d1-2936-7da3-b9df-fa70d490b5d7","019a50cf-ba5d-7779-b88c-2ff4a321cee9","","2473","","{""Q0"":2}","enjoyment_rating","","[0]"
"","","","","","html-button-response","43","187026","0.0-13.0-0.0","F10B5079F863411ABD85CF7C5BD46E53","019a50d1-2936-7da3-b9df-fa70d490b5d7","019a50cf-ba5d-7779-b88c-2ff4a321cee9","","497","
        <div style=""display: flex; justify-content: center; align-items: center;"">
          <img src=""images/red_deck_2.png"" style=""width: 300px; height: 300px; margin-right: 10px;"" />
          <img src=""images/blue_deck_1.png"" style=""width: 300px; height: 300px;"" />
        </div>","0","deck_choice","0",""
"","","","","","html-keyboard-response","44","193032","0.0-13.0-1.0-0.0-0.0","F10B5079F863411ABD85CF7C5BD46E53","019a50d1-2936-7da3-b9df-fa70d490b5d7","019a50cf-ba5d-7779-b88c-2ff4a321cee9","","null","<div style=""display: flex; justify-content: center; align-items: center;"">
                     <img src=""images/causal/causal_series_2/causal_series_2_a.png"" style=""width: 300px; height: 300px;"" />
                   </div>","null","causal_a","",""
"","","","","","html-keyboard-response","45","199034","0.0-13.0-1.0-0.0-1.0","F10B5079F863411ABD85CF7C5BD46E53","019a50d1-2936-7da3-b9df-fa70d490b5d7","019a50cf-ba5d-7779-b88c-2ff4a321cee9","","null","<div style=""display: flex; justify-content: center; align-items: center;"">
                     <img src=""images/causal/causal_series_2/causal_series_2_b.png"" style=""width: 300px; height: 300px;"" />
                   </div>","null","causal_b","",""
"","","","","","survey-likert","46","202751","0.0-13.0-2.0","F10B5079F863411ABD85CF7C5BD46E53","019a50d1-2936-7da3-b9df-fa70d490b5d7","019a50cf-ba5d-7779-b88c-2ff4a321cee9","","3717","","{""Q0"":4}","surprise_rating","","[0]"
"","","","","","survey-likert","47","204484","0.0-13.0-3.0","F10B5079F863411ABD85CF7C5BD46E53","019a50d1-2936-7da3-b9df-fa70d490b5d7","019a50cf-ba5d-7779-b88c-2ff4a321cee9","","1732","","{""Q0"":4}","enjoyment_rating","","[0]"
"","","","","","html-button-response","48","205160","0.0-14.0-0.0","F10B5079F863411ABD85CF7C5BD46E53","019a50d1-2936-7da3-b9df-fa70d490b5d7","019a50cf-ba5d-7779-b88c-2ff4a321cee9","","674","
        <div style=""display: flex; justify-content: center; align-items: center;"">
          <img src=""images/red_deck_2.png"" style=""width: 300px; height: 300px; margin-right: 10px;"" />
          <img src=""images/blue_deck_1.png"" style=""width: 300px; height: 300px;"" />
        </div>","0","deck_choice","0",""
"","","","","","html-keyboard-response","49","211168","0.0-14.0-1.0-0.0-0.0","F10B5079F863411ABD85CF7C5BD46E53","019a50d1-2936-7da3-b9df-fa70d490b5d7","019a50cf-ba5d-7779-b88c-2ff4a321cee9","","null","<div style=""display: flex; justify-content: center; align-items: center;"">
                     <img src=""images/causal/causal_series_5/causal_series_5_a.png"" style=""width: 300px; height: 300px;"" />
                   </div>","null","causal_a","",""
"","","","","","html-keyboard-response","50","217185","0.0-14.0-1.0-0.0-1.0","F10B5079F863411ABD85CF7C5BD46E53","019a50d1-2936-7da3-b9df-fa70d490b5d7","019a50cf-ba5d-7779-b88c-2ff4a321cee9","","null","<div style=""display: flex; justify-content: center; align-items: center;"">
                     <img src=""images/causal/causal_series_5/causal_series_5_b.png"" style=""width: 300px; height: 300px;"" />
                   </div>","null","causal_b","",""
"","","","","","survey-likert","51","218902","0.0-14.0-2.0","F10B5079F863411ABD85CF7C5BD46E53","019a50d1-2936-7da3-b9df-fa70d490b5d7","019a50cf-ba5d-7779-b88c-2ff4a321cee9","","1716","","{""Q0"":3}","surprise_rating","","[0]"
"","","","","","survey-likert","52","220063","0.0-14.0-3.0","F10B5079F863411ABD85CF7C5BD46E53","019a50d1-2936-7da3-b9df-fa70d490b5d7","019a50cf-ba5d-7779-b88c-2ff4a321cee9","","1160","","{""Q0"":3}","enjoyment_rating","","[0]"
"","","","","","survey-text","53","242223","0.0-15.0","F10B5079F863411ABD85CF7C5BD46E53","019a50d1-2936-7da3-b9df-fa70d490b5d7","019a50cf-ba5d-7779-b88c-2ff4a321cee9","","22158","","{""Q0"":""One has questions and answers, one gives facts.""}","","",""
"","","","","","html-button-response","54","245757","0.0-16.0","F10B5079F863411ABD85CF7C5BD46E53","019a50d1-2936-7da3-b9df-fa70d490b5d7","019a50cf-ba5d-7779-b88c-2ff4a321cee9","","3534","Which color deck showed a question and an answer?","0","","",""
"","","","","","html-button-response","55","246700","0.0-17.0","F10B5079F863411ABD85CF7C5BD46E53","019a50d1-2936-7da3-b9df-fa70d490b5d7","019a50cf-ba5d-7779-b88c-2ff4a321cee9","","943","Which color deck showed an interesting fact?","1","","",""
"","","","","","html-button-response","56","249123","0.0-18.0","F10B5079F863411ABD85CF7C5BD46E53","019a50d1-2936-7da3-b9df-fa70d490b5d7","019a50cf-ba5d-7779-b88c-2ff4a321cee9","","2422","Which type of deck did you prefer overall?","1","","",""
"","","","","","survey-text","57","255544","0.0-19.0","F10B5079F863411ABD85CF7C5BD46E53","019a50d1-2936-7da3-b9df-fa70d490b5d7","019a50cf-ba5d-7779-b88c-2ff4a321cee9","","6419","","{""Q0"":""MALE"",""Q1"":""29""}","","",""
"","","","","","instructions","58","265772","0.0-20.0","F10B5079F863411ABD85CF7C5BD46E53","019a50d1-2936-7da3-b9df-fa70d490b5d7","019a50cf-ba5d-7779-b88c-2ff4a321cee9","[{""page_index"":0,""viewing_time"":10228}]","10228","","","","",""
