"success","timeout","failed_images","failed_audio","failed_video","trial_type","trial_index","time_elapsed","internal_node_id","subject_id","study_id","session_id","view_history","rt","stimulus","response","choice","question_order"
"true","false","[]","[]","[]","preload","0","70","0.0-0.0","1AB14046F2DB4B52BEE0FFF482B47E88","0199d0b0-184d-762f-b722-d51df0398c4b","0199d096-ba1e-7664-9b18-6b0b7f11fd27","","","","","",""
"","","","","","instructions","1","2687","0.0-1.0","1AB14046F2DB4B52BEE0FFF482B47E88","0199d0b0-184d-762f-b722-d51df0398c4b","0199d096-ba1e-7664-9b18-6b0b7f11fd27","[{""page_index"":0,""viewing_time"":2615}]","2616","","","",""
"","","","","","instructions","2","5282","0.0-2.0","1AB14046F2DB4B52BEE0FFF482B47E88","0199d0b0-184d-762f-b722-d51df0398c4b","0199d096-ba1e-7664-9b18-6b0b7f11fd27","[{""page_index"":0,""viewing_time"":2594}]","2595","","","",""
"true","","","","","fullscreen","3","7022","0.0-3.0","1AB14046F2DB4B52BEE0FFF482B47E88","0199d0b0-184d-762f-b722-d51df0398c4b","0199d096-ba1e-7664-9b18-6b0b7f11fd27","","723","","","",""
"","","","","","instructions","4","8522","0.0-4.0","1AB14046F2DB4B52BEE0FFF482B47E88","0199d0b0-184d-762f-b722-d51df0398c4b","0199d096-ba1e-7664-9b18-6b0b7f11fd27","[{""page_index"":0,""viewing_time"":1498}]","1499","","","",""
"","","","","","html-keyboard-response","5","15539","0.0-5.0","1AB14046F2DB4B52BEE0FFF482B47E88","0199d0b0-184d-762f-b722-d51df0398c4b","0199d096-ba1e-7664-9b18-6b0b7f11fd27","","null","<div style=""display: flex; justify-content: center; align-items: center;"">
                     <img src=""images/causal/causal_series_1/causal_series_1_a.png"" style=""width: 300px; height: 300px;"" />
                   </div>","null","",""
"","","","","","html-keyboard-response","6","22543","0.0-6.0","1AB14046F2DB4B52BEE0FFF482B47E88","0199d0b0-184d-762f-b722-d51df0398c4b","0199d096-ba1e-7664-9b18-6b0b7f11fd27","","null","<div style=""display: flex; justify-content: center; align-items: center;"">
                     <img src=""images/causal/causal_series_1/causal_series_1_b.png"" style=""width: 300px; height: 300px;"" />
                   </div>","null","",""
"","","","","","html-keyboard-response","7","29544","0.0-7.0","1AB14046F2DB4B52BEE0FFF482B47E88","0199d0b0-184d-762f-b722-d51df0398c4b","0199d096-ba1e-7664-9b18-6b0b7f11fd27","","null","<div style=""display: flex; justify-content: center; align-items: center;"">
                     <img src=""images/causal/causal_series_1/causal_series_1_c.png"" style=""width: 300px; height: 300px;"" />
                   </div>","null","",""
"","","","","","html-button-response","8","31680","0.0-8.0","1AB14046F2DB4B52BEE0FFF482B47E88","0199d0b0-184d-762f-b722-d51df0398c4b","0199d096-ba1e-7664-9b18-6b0b7f11fd27","","2134","
        <div style=""display: flex; justify-content: center; align-items: center;"">
          <img src=""images/red_deck_2.png"" style=""width: 300px; height: 300px; margin-right: 10px;"" />
          <img src=""images/blue_deck_1.png"" style=""width: 300px; height: 300px;"" />
        </div>","1","1",""
"","","","","","html-keyboard-response","9","38693","0.0-9.0-1.0-0.0","1AB14046F2DB4B52BEE0FFF482B47E88","0199d0b0-184d-762f-b722-d51df0398c4b","0199d096-ba1e-7664-9b18-6b0b7f11fd27","","null","<div style=""display: flex; justify-content: center; align-items: center;"">
                     <img src=""images/semantic/semantic_series_1/semantic_series_1_d.png"" style=""width: 300px; height: 300px;"" />
                   </div>","null","",""
"","","","","","survey-likert","10","55067","0.0-10.0","1AB14046F2DB4B52BEE0FFF482B47E88","0199d0b0-184d-762f-b722-d51df0398c4b","0199d096-ba1e-7664-9b18-6b0b7f11fd27","","16372","","{""Q0"":1}","","[0]"
"","","","","","survey-likert","11","56709","0.0-11.0","1AB14046F2DB4B52BEE0FFF482B47E88","0199d0b0-184d-762f-b722-d51df0398c4b","0199d096-ba1e-7664-9b18-6b0b7f11fd27","","1641","","{""Q0"":2}","","[0]"
"","","","","","html-keyboard-response","12","63712","0.0-12.0","1AB14046F2DB4B52BEE0FFF482B47E88","0199d0b0-184d-762f-b722-d51df0398c4b","0199d096-ba1e-7664-9b18-6b0b7f11fd27","","null","<div style=""display: flex; justify-content: center; align-items: center;"">
                     <img src=""images/other/blank.png"" style=""width: 300px; height: 300px;"" />
                   </div>","null","",""
"","","","","","html-keyboard-response","13","70714","0.0-13.0","1AB14046F2DB4B52BEE0FFF482B47E88","0199d0b0-184d-762f-b722-d51df0398c4b","0199d096-ba1e-7664-9b18-6b0b7f11fd27","","null","<div style=""display: flex; justify-content: center; align-items: center;"">
                     <img src=""images/causal/causal_series_5/causal_series_5_a.png"" style=""width: 300px; height: 300px;"" />
                   </div>","null","",""
"","","","","","html-keyboard-response","14","77723","0.0-14.0","1AB14046F2DB4B52BEE0FFF482B47E88","0199d0b0-184d-762f-b722-d51df0398c4b","0199d096-ba1e-7664-9b18-6b0b7f11fd27","","null","<div style=""display: flex; justify-content: center; align-items: center;"">
                     <img src=""images/causal/causal_series_5/causal_series_5_b.png"" style=""width: 300px; height: 300px;"" />
                   </div>","null","",""
"","","","","","html-keyboard-response","15","84730","0.0-15.0","1AB14046F2DB4B52BEE0FFF482B47E88","0199d0b0-184d-762f-b722-d51df0398c4b","0199d096-ba1e-7664-9b18-6b0b7f11fd27","","null","<div style=""display: flex; justify-content: center; align-items: center;"">
                     <img src=""images/causal/causal_series_5/causal_series_5_c.png"" style=""width: 300px; height: 300px;"" />
                   </div>","null","",""
"","","","","","html-button-response","16","108153","0.0-16.0","1AB14046F2DB4B52BEE0FFF482B47E88","0199d0b0-184d-762f-b722-d51df0398c4b","0199d096-ba1e-7664-9b18-6b0b7f11fd27","","23422","
        <div style=""display: flex; justify-content: center; align-items: center;"">
          <img src=""images/red_deck_2.png"" style=""width: 300px; height: 300px; margin-right: 10px;"" />
          <img src=""images/blue_deck_1.png"" style=""width: 300px; height: 300px;"" />
        </div>","1","1",""
"","","","","","html-keyboard-response","17","115164","0.0-17.0-1.0-0.0","1AB14046F2DB4B52BEE0FFF482B47E88","0199d0b0-184d-762f-b722-d51df0398c4b","0199d096-ba1e-7664-9b18-6b0b7f11fd27","","null","<div style=""display: flex; justify-content: center; align-items: center;"">
                     <img src=""images/semantic/semantic_series_5/semantic_series_5_d.png"" style=""width: 300px; height: 300px;"" />
                   </div>","null","",""
"","","","","","survey-likert","18","125136","0.0-18.0","1AB14046F2DB4B52BEE0FFF482B47E88","0199d0b0-184d-762f-b722-d51df0398c4b","0199d096-ba1e-7664-9b18-6b0b7f11fd27","","9972","","{""Q0"":3}","","[0]"
"","","","","","survey-likert","19","127280","0.0-19.0","1AB14046F2DB4B52BEE0FFF482B47E88","0199d0b0-184d-762f-b722-d51df0398c4b","0199d096-ba1e-7664-9b18-6b0b7f11fd27","","2142","","{""Q0"":4}","","[0]"
"","","","","","html-keyboard-response","20","134284","0.0-20.0","1AB14046F2DB4B52BEE0FFF482B47E88","0199d0b0-184d-762f-b722-d51df0398c4b","0199d096-ba1e-7664-9b18-6b0b7f11fd27","","null","<div style=""display: flex; justify-content: center; align-items: center;"">
                     <img src=""images/other/blank.png"" style=""width: 300px; height: 300px;"" />
                   </div>","null","",""
"","","","","","html-keyboard-response","21","141291","0.0-21.0","1AB14046F2DB4B52BEE0FFF482B47E88","0199d0b0-184d-762f-b722-d51df0398c4b","0199d096-ba1e-7664-9b18-6b0b7f11fd27","","null","<div style=""display: flex; justify-content: center; align-items: center;"">
                     <img src=""images/causal/causal_series_7/causal_series_7_a.png"" style=""width: 300px; height: 300px;"" />
                   </div>","null","",""
"","","","","","html-keyboard-response","22","148296","0.0-22.0","1AB14046F2DB4B52BEE0FFF482B47E88","0199d0b0-184d-762f-b722-d51df0398c4b","0199d096-ba1e-7664-9b18-6b0b7f11fd27","","null","<div style=""display: flex; justify-content: center; align-items: center;"">
                     <img src=""images/causal/causal_series_7/causal_series_7_b.png"" style=""width: 300px; height: 300px;"" />
                   </div>","null","",""
"","","","","","html-keyboard-response","23","155310","0.0-23.0","1AB14046F2DB4B52BEE0FFF482B47E88","0199d0b0-184d-762f-b722-d51df0398c4b","0199d096-ba1e-7664-9b18-6b0b7f11fd27","","null","<div style=""display: flex; justify-content: center; align-items: center;"">
                     <img src=""images/causal/causal_series_7/causal_series_7_c.png"" style=""width: 300px; height: 300px;"" />
                   </div>","null","",""
"","","","","","html-button-response","24","159091","0.0-24.0","1AB14046F2DB4B52BEE0FFF482B47E88","0199d0b0-184d-762f-b722-d51df0398c4b","0199d096-ba1e-7664-9b18-6b0b7f11fd27","","3779","
        <div style=""display: flex; justify-content: center; align-items: center;"">
          <img src=""images/red_deck_2.png"" style=""width: 300px; height: 300px; margin-right: 10px;"" />
          <img src=""images/blue_deck_1.png"" style=""width: 300px; height: 300px;"" />
        </div>","1","1",""
"","","","","","html-keyboard-response","25","166097","0.0-25.0-1.0-0.0","1AB14046F2DB4B52BEE0FFF482B47E88","0199d0b0-184d-762f-b722-d51df0398c4b","0199d096-ba1e-7664-9b18-6b0b7f11fd27","","null","<div style=""display: flex; justify-content: center; align-items: center;"">
                     <img src=""images/semantic/semantic_series_7/semantic_series_7_d.png"" style=""width: 300px; height: 300px;"" />
                   </div>","null","",""
"","","","","","survey-likert","26","196993","0.0-26.0","1AB14046F2DB4B52BEE0FFF482B47E88","0199d0b0-184d-762f-b722-d51df0398c4b","0199d096-ba1e-7664-9b18-6b0b7f11fd27","","30895","","{""Q0"":3}","","[0]"
"","","","","","survey-likert","27","197954","0.0-27.0","1AB14046F2DB4B52BEE0FFF482B47E88","0199d0b0-184d-762f-b722-d51df0398c4b","0199d096-ba1e-7664-9b18-6b0b7f11fd27","","960","","{""Q0"":1}","","[0]"
"","","","","","html-keyboard-response","28","204957","0.0-28.0","1AB14046F2DB4B52BEE0FFF482B47E88","0199d0b0-184d-762f-b722-d51df0398c4b","0199d096-ba1e-7664-9b18-6b0b7f11fd27","","null","<div style=""display: flex; justify-content: center; align-items: center;"">
                     <img src=""images/other/blank.png"" style=""width: 300px; height: 300px;"" />
                   </div>","null","",""
"","","","","","html-keyboard-response","29","211964","0.0-29.0","1AB14046F2DB4B52BEE0FFF482B47E88","0199d0b0-184d-762f-b722-d51df0398c4b","0199d096-ba1e-7664-9b18-6b0b7f11fd27","","null","<div style=""display: flex; justify-content: center; align-items: center;"">
                     <img src=""images/causal/causal_series_4/causal_series_4_a.png"" style=""width: 300px; height: 300px;"" />
                   </div>","null","",""
"","","","","","html-keyboard-response","30","218966","0.0-30.0","1AB14046F2DB4B52BEE0FFF482B47E88","0199d0b0-184d-762f-b722-d51df0398c4b","0199d096-ba1e-7664-9b18-6b0b7f11fd27","","null","<div style=""display: flex; justify-content: center; align-items: center;"">
                     <img src=""images/causal/causal_series_4/causal_series_4_b.png"" style=""width: 300px; height: 300px;"" />
                   </div>","null","",""
"","","","","","html-keyboard-response","31","225973","0.0-31.0","1AB14046F2DB4B52BEE0FFF482B47E88","0199d0b0-184d-762f-b722-d51df0398c4b","0199d096-ba1e-7664-9b18-6b0b7f11fd27","","null","<div style=""display: flex; justify-content: center; align-items: center;"">
                     <img src=""images/causal/causal_series_4/causal_series_4_c.png"" style=""width: 300px; height: 300px;"" />
                   </div>","null","",""
"","","","","","html-button-response","32","226962","0.0-32.0","1AB14046F2DB4B52BEE0FFF482B47E88","0199d0b0-184d-762f-b722-d51df0398c4b","0199d096-ba1e-7664-9b18-6b0b7f11fd27","","987","
        <div style=""display: flex; justify-content: center; align-items: center;"">
          <img src=""images/red_deck_2.png"" style=""width: 300px; height: 300px; margin-right: 10px;"" />
          <img src=""images/blue_deck_1.png"" style=""width: 300px; height: 300px;"" />
        </div>","0","0",""
"","","","","","html-keyboard-response","33","233976","0.0-33.0-0.0-0.0","1AB14046F2DB4B52BEE0FFF482B47E88","0199d0b0-184d-762f-b722-d51df0398c4b","0199d096-ba1e-7664-9b18-6b0b7f11fd27","","null","<div style=""display: flex; justify-content: center; align-items: center;"">
                     <img src=""images/causal/causal_series_4/causal_series_4_d.png"" style=""width: 300px; height: 300px;"" />
                   </div>","null","",""
"","","","","","survey-likert","34","238235","0.0-34.0","1AB14046F2DB4B52BEE0FFF482B47E88","0199d0b0-184d-762f-b722-d51df0398c4b","0199d096-ba1e-7664-9b18-6b0b7f11fd27","","4258","","{""Q0"":3}","","[0]"
"","","","","","survey-likert","35","239662","0.0-35.0","1AB14046F2DB4B52BEE0FFF482B47E88","0199d0b0-184d-762f-b722-d51df0398c4b","0199d096-ba1e-7664-9b18-6b0b7f11fd27","","1424","","{""Q0"":3}","","[0]"
"","","","","","html-keyboard-response","36","246678","0.0-36.0","1AB14046F2DB4B52BEE0FFF482B47E88","0199d0b0-184d-762f-b722-d51df0398c4b","0199d096-ba1e-7664-9b18-6b0b7f11fd27","","null","<div style=""display: flex; justify-content: center; align-items: center;"">
                     <img src=""images/other/blank.png"" style=""width: 300px; height: 300px;"" />
                   </div>","null","",""
"","","","","","html-keyboard-response","37","253692","0.0-37.0","1AB14046F2DB4B52BEE0FFF482B47E88","0199d0b0-184d-762f-b722-d51df0398c4b","0199d096-ba1e-7664-9b18-6b0b7f11fd27","","null","<div style=""display: flex; justify-content: center; align-items: center;"">
                     <img src=""images/causal/causal_series_9/causal_series_9_a.png"" style=""width: 300px; height: 300px;"" />
                   </div>","null","",""
"","","","","","html-keyboard-response","38","260700","0.0-38.0","1AB14046F2DB4B52BEE0FFF482B47E88","0199d0b0-184d-762f-b722-d51df0398c4b","0199d096-ba1e-7664-9b18-6b0b7f11fd27","","null","<div style=""display: flex; justify-content: center; align-items: center;"">
                     <img src=""images/causal/causal_series_9/causal_series_9_b.png"" style=""width: 300px; height: 300px;"" />
                   </div>","null","",""
"","","","","","html-keyboard-response","39","267710","0.0-39.0","1AB14046F2DB4B52BEE0FFF482B47E88","0199d0b0-184d-762f-b722-d51df0398c4b","0199d096-ba1e-7664-9b18-6b0b7f11fd27","","null","<div style=""display: flex; justify-content: center; align-items: center;"">
                     <img src=""images/causal/causal_series_9/causal_series_9_c.png"" style=""width: 300px; height: 300px;"" />
                   </div>","null","",""
"","","","","","html-button-response","40","295162","0.0-40.0","1AB14046F2DB4B52BEE0FFF482B47E88","0199d0b0-184d-762f-b722-d51df0398c4b","0199d096-ba1e-7664-9b18-6b0b7f11fd27","","27450","
        <div style=""display: flex; justify-content: center; align-items: center;"">
          <img src=""images/red_deck_2.png"" style=""width: 300px; height: 300px; margin-right: 10px;"" />
          <img src=""images/blue_deck_1.png"" style=""width: 300px; height: 300px;"" />
        </div>","1","1",""
"","","","","","html-keyboard-response","41","302166","0.0-41.0-1.0-0.0","1AB14046F2DB4B52BEE0FFF482B47E88","0199d0b0-184d-762f-b722-d51df0398c4b","0199d096-ba1e-7664-9b18-6b0b7f11fd27","","null","<div style=""display: flex; justify-content: center; align-items: center;"">
                     <img src=""images/semantic/semantic_series_9/semantic_series_9_d.png"" style=""width: 300px; height: 300px;"" />
                   </div>","null","",""
"","","","","","survey-likert","42","355559","0.0-42.0","1AB14046F2DB4B52BEE0FFF482B47E88","0199d0b0-184d-762f-b722-d51df0398c4b","0199d096-ba1e-7664-9b18-6b0b7f11fd27","","53391","","{""Q0"":3}","","[0]"
"","","","","","survey-likert","43","356832","0.0-43.0","1AB14046F2DB4B52BEE0FFF482B47E88","0199d0b0-184d-762f-b722-d51df0398c4b","0199d096-ba1e-7664-9b18-6b0b7f11fd27","","1272","","{""Q0"":4}","","[0]"
"","","","","","html-keyboard-response","44","363837","0.0-44.0","1AB14046F2DB4B52BEE0FFF482B47E88","0199d0b0-184d-762f-b722-d51df0398c4b","0199d096-ba1e-7664-9b18-6b0b7f11fd27","","null","<div style=""display: flex; justify-content: center; align-items: center;"">
                     <img src=""images/other/blank.png"" style=""width: 300px; height: 300px;"" />
                   </div>","null","",""
"","","","","","html-keyboard-response","45","370851","0.0-45.0","1AB14046F2DB4B52BEE0FFF482B47E88","0199d0b0-184d-762f-b722-d51df0398c4b","0199d096-ba1e-7664-9b18-6b0b7f11fd27","","null","<div style=""display: flex; justify-content: center; align-items: center;"">
                     <img src=""images/causal/causal_series_10/causal_series_10_a.png"" style=""width: 300px; height: 300px;"" />
                   </div>","null","",""
"","","","","","html-keyboard-response","46","377855","0.0-46.0","1AB14046F2DB4B52BEE0FFF482B47E88","0199d0b0-184d-762f-b722-d51df0398c4b","0199d096-ba1e-7664-9b18-6b0b7f11fd27","","null","<div style=""display: flex; justify-content: center; align-items: center;"">
                     <img src=""images/causal/causal_series_10/causal_series_10_b.png"" style=""width: 300px; height: 300px;"" />
                   </div>","null","",""
"","","","","","html-keyboard-response","47","384872","0.0-47.0","1AB14046F2DB4B52BEE0FFF482B47E88","0199d0b0-184d-762f-b722-d51df0398c4b","0199d096-ba1e-7664-9b18-6b0b7f11fd27","","null","<div style=""display: flex; justify-content: center; align-items: center;"">
                     <img src=""images/causal/causal_series_10/causal_series_10_c.png"" style=""width: 300px; height: 300px;"" />
                   </div>","null","",""
"","","","","","html-button-response","48","403893","0.0-48.0","1AB14046F2DB4B52BEE0FFF482B47E88","0199d0b0-184d-762f-b722-d51df0398c4b","0199d096-ba1e-7664-9b18-6b0b7f11fd27","","19019","
        <div style=""display: flex; justify-content: center; align-items: center;"">
          <img src=""images/red_deck_2.png"" style=""width: 300px; height: 300px; margin-right: 10px;"" />
          <img src=""images/blue_deck_1.png"" style=""width: 300px; height: 300px;"" />
        </div>","1","1",""
"","","","","","html-keyboard-response","49","410905","0.0-49.0-1.0-0.0","1AB14046F2DB4B52BEE0FFF482B47E88","0199d0b0-184d-762f-b722-d51df0398c4b","0199d096-ba1e-7664-9b18-6b0b7f11fd27","","null","<div style=""display: flex; justify-content: center; align-items: center;"">
                     <img src=""images/semantic/semantic_series_10/semantic_series_10_d.png"" style=""width: 300px; height: 300px;"" />
                   </div>","null","",""
"","","","","","survey-likert","50","427544","0.0-50.0","1AB14046F2DB4B52BEE0FFF482B47E88","0199d0b0-184d-762f-b722-d51df0398c4b","0199d096-ba1e-7664-9b18-6b0b7f11fd27","","16637","","{""Q0"":3}","","[0]"
"","","","","","survey-likert","51","435595","0.0-51.0","1AB14046F2DB4B52BEE0FFF482B47E88","0199d0b0-184d-762f-b722-d51df0398c4b","0199d096-ba1e-7664-9b18-6b0b7f11fd27","","8050","","{""Q0"":3}","","[0]"
"","","","","","html-keyboard-response","52","442613","0.0-52.0","1AB14046F2DB4B52BEE0FFF482B47E88","0199d0b0-184d-762f-b722-d51df0398c4b","0199d096-ba1e-7664-9b18-6b0b7f11fd27","","null","<div style=""display: flex; justify-content: center; align-items: center;"">
                     <img src=""images/other/blank.png"" style=""width: 300px; height: 300px;"" />
                   </div>","null","",""
"","","","","","html-keyboard-response","53","449619","0.0-53.0","1AB14046F2DB4B52BEE0FFF482B47E88","0199d0b0-184d-762f-b722-d51df0398c4b","0199d096-ba1e-7664-9b18-6b0b7f11fd27","","null","<div style=""display: flex; justify-content: center; align-items: center;"">
                     <img src=""images/causal/causal_series_3/causal_series_3_a.png"" style=""width: 300px; height: 300px;"" />
                   </div>","null","",""
"","","","","","html-keyboard-response","54","456627","0.0-54.0","1AB14046F2DB4B52BEE0FFF482B47E88","0199d0b0-184d-762f-b722-d51df0398c4b","0199d096-ba1e-7664-9b18-6b0b7f11fd27","","null","<div style=""display: flex; justify-content: center; align-items: center;"">
                     <img src=""images/causal/causal_series_3/causal_series_3_b.png"" style=""width: 300px; height: 300px;"" />
                   </div>","null","",""
"","","","","","html-keyboard-response","55","463633","0.0-55.0","1AB14046F2DB4B52BEE0FFF482B47E88","0199d0b0-184d-762f-b722-d51df0398c4b","0199d096-ba1e-7664-9b18-6b0b7f11fd27","","null","<div style=""display: flex; justify-content: center; align-items: center;"">
                     <img src=""images/causal/causal_series_3/causal_series_3_c.png"" style=""width: 300px; height: 300px;"" />
                   </div>","null","",""
"","","","","","html-button-response","56","485182","0.0-56.0","1AB14046F2DB4B52BEE0FFF482B47E88","0199d0b0-184d-762f-b722-d51df0398c4b","0199d096-ba1e-7664-9b18-6b0b7f11fd27","","21547","
        <div style=""display: flex; justify-content: center; align-items: center;"">
          <img src=""images/red_deck_2.png"" style=""width: 300px; height: 300px; margin-right: 10px;"" />
          <img src=""images/blue_deck_1.png"" style=""width: 300px; height: 300px;"" />
        </div>","0","0",""
"","","","","","html-keyboard-response","57","492200","0.0-57.0-0.0-0.0","1AB14046F2DB4B52BEE0FFF482B47E88","0199d0b0-184d-762f-b722-d51df0398c4b","0199d096-ba1e-7664-9b18-6b0b7f11fd27","","null","<div style=""display: flex; justify-content: center; align-items: center;"">
                     <img src=""images/causal/causal_series_3/causal_series_3_d.png"" style=""width: 300px; height: 300px;"" />
                   </div>","null","",""
"","","","","","survey-likert","58","574079","0.0-58.0","1AB14046F2DB4B52BEE0FFF482B47E88","0199d0b0-184d-762f-b722-d51df0398c4b","0199d096-ba1e-7664-9b18-6b0b7f11fd27","","81878","","{""Q0"":3}","","[0]"
"","","","","","survey-likert","59","576631","0.0-59.0","1AB14046F2DB4B52BEE0FFF482B47E88","0199d0b0-184d-762f-b722-d51df0398c4b","0199d096-ba1e-7664-9b18-6b0b7f11fd27","","2550","","{""Q0"":2}","","[0]"
"","","","","","html-keyboard-response","60","583634","0.0-60.0","1AB14046F2DB4B52BEE0FFF482B47E88","0199d0b0-184d-762f-b722-d51df0398c4b","0199d096-ba1e-7664-9b18-6b0b7f11fd27","","null","<div style=""display: flex; justify-content: center; align-items: center;"">
                     <img src=""images/other/blank.png"" style=""width: 300px; height: 300px;"" />
                   </div>","null","",""
"","","","","","html-keyboard-response","61","590650","0.0-61.0","1AB14046F2DB4B52BEE0FFF482B47E88","0199d0b0-184d-762f-b722-d51df0398c4b","0199d096-ba1e-7664-9b18-6b0b7f11fd27","","null","<div style=""display: flex; justify-content: center; align-items: center;"">
                     <img src=""images/causal/causal_series_2/causal_series_2_a.png"" style=""width: 300px; height: 300px;"" />
                   </div>","null","",""
"","","","","","html-keyboard-response","62","597656","0.0-62.0","1AB14046F2DB4B52BEE0FFF482B47E88","0199d0b0-184d-762f-b722-d51df0398c4b","0199d096-ba1e-7664-9b18-6b0b7f11fd27","","null","<div style=""display: flex; justify-content: center; align-items: center;"">
                     <img src=""images/causal/causal_series_2/causal_series_2_b.png"" style=""width: 300px; height: 300px;"" />
                   </div>","null","",""
"","","","","","html-keyboard-response","63","604666","0.0-63.0","1AB14046F2DB4B52BEE0FFF482B47E88","0199d0b0-184d-762f-b722-d51df0398c4b","0199d096-ba1e-7664-9b18-6b0b7f11fd27","","null","<div style=""display: flex; justify-content: center; align-items: center;"">
                     <img src=""images/causal/causal_series_2/causal_series_2_c.png"" style=""width: 300px; height: 300px;"" />
                   </div>","null","",""
"","","","","","html-button-response","64","643365","0.0-64.0","1AB14046F2DB4B52BEE0FFF482B47E88","0199d0b0-184d-762f-b722-d51df0398c4b","0199d096-ba1e-7664-9b18-6b0b7f11fd27","","38697","
        <div style=""display: flex; justify-content: center; align-items: center;"">
          <img src=""images/red_deck_2.png"" style=""width: 300px; height: 300px; margin-right: 10px;"" />
          <img src=""images/blue_deck_1.png"" style=""width: 300px; height: 300px;"" />
        </div>","1","1",""
"","","","","","html-keyboard-response","65","650369","0.0-65.0-1.0-0.0","1AB14046F2DB4B52BEE0FFF482B47E88","0199d0b0-184d-762f-b722-d51df0398c4b","0199d096-ba1e-7664-9b18-6b0b7f11fd27","","null","<div style=""display: flex; justify-content: center; align-items: center;"">
                     <img src=""images/semantic/semantic_series_2/semantic_series_2_d.png"" style=""width: 300px; height: 300px;"" />
                   </div>","null","",""
"","","","","","survey-likert","66","682600","0.0-66.0","1AB14046F2DB4B52BEE0FFF482B47E88","0199d0b0-184d-762f-b722-d51df0398c4b","0199d096-ba1e-7664-9b18-6b0b7f11fd27","","32230","","{""Q0"":4}","","[0]"
"","","","","","survey-likert","67","684082","0.0-67.0","1AB14046F2DB4B52BEE0FFF482B47E88","0199d0b0-184d-762f-b722-d51df0398c4b","0199d096-ba1e-7664-9b18-6b0b7f11fd27","","1480","","{""Q0"":3}","","[0]"
"","","","","","html-keyboard-response","68","691091","0.0-68.0","1AB14046F2DB4B52BEE0FFF482B47E88","0199d0b0-184d-762f-b722-d51df0398c4b","0199d096-ba1e-7664-9b18-6b0b7f11fd27","","null","<div style=""display: flex; justify-content: center; align-items: center;"">
                     <img src=""images/other/blank.png"" style=""width: 300px; height: 300px;"" />
                   </div>","null","",""
"","","","","","html-keyboard-response","69","698098","0.0-69.0","1AB14046F2DB4B52BEE0FFF482B47E88","0199d0b0-184d-762f-b722-d51df0398c4b","0199d096-ba1e-7664-9b18-6b0b7f11fd27","","null","<div style=""display: flex; justify-content: center; align-items: center;"">
                     <img src=""images/causal/causal_series_6/causal_series_6_a.png"" style=""width: 300px; height: 300px;"" />
                   </div>","null","",""
"","","","","","html-keyboard-response","70","705107","0.0-70.0","1AB14046F2DB4B52BEE0FFF482B47E88","0199d0b0-184d-762f-b722-d51df0398c4b","0199d096-ba1e-7664-9b18-6b0b7f11fd27","","null","<div style=""display: flex; justify-content: center; align-items: center;"">
                     <img src=""images/causal/causal_series_6/causal_series_6_b.png"" style=""width: 300px; height: 300px;"" />
                   </div>","null","",""
"","","","","","html-keyboard-response","71","712118","0.0-71.0","1AB14046F2DB4B52BEE0FFF482B47E88","0199d0b0-184d-762f-b722-d51df0398c4b","0199d096-ba1e-7664-9b18-6b0b7f11fd27","","null","<div style=""display: flex; justify-content: center; align-items: center;"">
                     <img src=""images/causal/causal_series_6/causal_series_6_c.png"" style=""width: 300px; height: 300px;"" />
                   </div>","null","",""
"","","","","","html-button-response","72","721161","0.0-72.0","1AB14046F2DB4B52BEE0FFF482B47E88","0199d0b0-184d-762f-b722-d51df0398c4b","0199d096-ba1e-7664-9b18-6b0b7f11fd27","","9040","
        <div style=""display: flex; justify-content: center; align-items: center;"">
          <img src=""images/red_deck_2.png"" style=""width: 300px; height: 300px; margin-right: 10px;"" />
          <img src=""images/blue_deck_1.png"" style=""width: 300px; height: 300px;"" />
        </div>","1","1",""
"","","","","","html-keyboard-response","73","728167","0.0-73.0-1.0-0.0","1AB14046F2DB4B52BEE0FFF482B47E88","0199d0b0-184d-762f-b722-d51df0398c4b","0199d096-ba1e-7664-9b18-6b0b7f11fd27","","null","<div style=""display: flex; justify-content: center; align-items: center;"">
                     <img src=""images/semantic/semantic_series_6/semantic_series_6_d.png"" style=""width: 300px; height: 300px;"" />
                   </div>","null","",""
"","","","","","survey-likert","74","740747","0.0-74.0","1AB14046F2DB4B52BEE0FFF482B47E88","0199d0b0-184d-762f-b722-d51df0398c4b","0199d096-ba1e-7664-9b18-6b0b7f11fd27","","12578","","{""Q0"":4}","","[0]"
"","","","","","survey-likert","75","741666","0.0-75.0","1AB14046F2DB4B52BEE0FFF482B47E88","0199d0b0-184d-762f-b722-d51df0398c4b","0199d096-ba1e-7664-9b18-6b0b7f11fd27","","916","","{""Q0"":3}","","[0]"
"","","","","","html-keyboard-response","76","748682","0.0-76.0","1AB14046F2DB4B52BEE0FFF482B47E88","0199d0b0-184d-762f-b722-d51df0398c4b","0199d096-ba1e-7664-9b18-6b0b7f11fd27","","null","<div style=""display: flex; justify-content: center; align-items: center;"">
                     <img src=""images/other/blank.png"" style=""width: 300px; height: 300px;"" />
                   </div>","null","",""
"","","","","","html-keyboard-response","77","755699","0.0-77.0","1AB14046F2DB4B52BEE0FFF482B47E88","0199d0b0-184d-762f-b722-d51df0398c4b","0199d096-ba1e-7664-9b18-6b0b7f11fd27","","null","<div style=""display: flex; justify-content: center; align-items: center;"">
                     <img src=""images/causal/causal_series_8/causal_series_8_a.png"" style=""width: 300px; height: 300px;"" />
                   </div>","null","",""
"","","","","","html-keyboard-response","78","762708","0.0-78.0","1AB14046F2DB4B52BEE0FFF482B47E88","0199d0b0-184d-762f-b722-d51df0398c4b","0199d096-ba1e-7664-9b18-6b0b7f11fd27","","null","<div style=""display: flex; justify-content: center; align-items: center;"">
                     <img src=""images/causal/causal_series_8/causal_series_8_b.png"" style=""width: 300px; height: 300px;"" />
                   </div>","null","",""
"","","","","","html-keyboard-response","79","819497","0.0-79.0","1AB14046F2DB4B52BEE0FFF482B47E88","0199d0b0-184d-762f-b722-d51df0398c4b","0199d096-ba1e-7664-9b18-6b0b7f11fd27","","null","<div style=""display: flex; justify-content: center; align-items: center;"">
                     <img src=""images/causal/causal_series_8/causal_series_8_c.png"" style=""width: 300px; height: 300px;"" />
                   </div>","null","",""
"","","","","","html-button-response","80","831847","0.0-80.0","1AB14046F2DB4B52BEE0FFF482B47E88","0199d0b0-184d-762f-b722-d51df0398c4b","0199d096-ba1e-7664-9b18-6b0b7f11fd27","","12340","
        <div style=""display: flex; justify-content: center; align-items: center;"">
          <img src=""images/red_deck_2.png"" style=""width: 300px; height: 300px; margin-right: 10px;"" />
          <img src=""images/blue_deck_1.png"" style=""width: 300px; height: 300px;"" />
        </div>","1","1",""
"","","","","","html-keyboard-response","81","838849","0.0-81.0-1.0-0.0","1AB14046F2DB4B52BEE0FFF482B47E88","0199d0b0-184d-762f-b722-d51df0398c4b","0199d096-ba1e-7664-9b18-6b0b7f11fd27","","null","<div style=""display: flex; justify-content: center; align-items: center;"">
                     <img src=""images/semantic/semantic_series_8/semantic_series_8_d.png"" style=""width: 300px; height: 300px;"" />
                   </div>","null","",""
"","","","","","survey-likert","82","841058","0.0-82.0","1AB14046F2DB4B52BEE0FFF482B47E88","0199d0b0-184d-762f-b722-d51df0398c4b","0199d096-ba1e-7664-9b18-6b0b7f11fd27","","2209","","{""Q0"":4}","","[0]"
"","","","","","survey-likert","83","842047","0.0-83.0","1AB14046F2DB4B52BEE0FFF482B47E88","0199d0b0-184d-762f-b722-d51df0398c4b","0199d096-ba1e-7664-9b18-6b0b7f11fd27","","988","","{""Q0"":2}","","[0]"
"","","","","","html-keyboard-response","84","849048","0.0-84.0","1AB14046F2DB4B52BEE0FFF482B47E88","0199d0b0-184d-762f-b722-d51df0398c4b","0199d096-ba1e-7664-9b18-6b0b7f11fd27","","null","<div style=""display: flex; justify-content: center; align-items: center;"">
                     <img src=""images/other/blank.png"" style=""width: 300px; height: 300px;"" />
                   </div>","null","",""
"","","","","","survey-text","85","873007","0.0-85.0","1AB14046F2DB4B52BEE0FFF482B47E88","0199d0b0-184d-762f-b722-d51df0398c4b","0199d096-ba1e-7664-9b18-6b0b7f11fd27","","23954","","{""Q0"":""One had bad things happen""}","",""
"","","","","","html-button-response","86","873176","0.0-86.0","1AB14046F2DB4B52BEE0FFF482B47E88","0199d0b0-184d-762f-b722-d51df0398c4b","0199d096-ba1e-7664-9b18-6b0b7f11fd27","","168","Which color deck do the following images continue the story from?","0","",""
"","","","","","html-button-response","87","879776","0.0-87.0","1AB14046F2DB4B52BEE0FFF482B47E88","0199d0b0-184d-762f-b722-d51df0398c4b","0199d096-ba1e-7664-9b18-6b0b7f11fd27","","6599","Which color deck do the following images NOT follow the story from?","1","",""
"","","","","","html-button-response","88","880956","0.0-88.0","1AB14046F2DB4B52BEE0FFF482B47E88","0199d0b0-184d-762f-b722-d51df0398c4b","0199d096-ba1e-7664-9b18-6b0b7f11fd27","","1179","Which type of deck did you prefer overall?","1","",""
"","","","","","survey-text","89","892817","0.0-89.0","1AB14046F2DB4B52BEE0FFF482B47E88","0199d0b0-184d-762f-b722-d51df0398c4b","0199d096-ba1e-7664-9b18-6b0b7f11fd27","","11859","","{""Q0"":""female"",""Q1"":""33""}","",""
"","","","","","instructions","90","907829","0.0-90.0","1AB14046F2DB4B52BEE0FFF482B47E88","0199d0b0-184d-762f-b722-d51df0398c4b","0199d096-ba1e-7664-9b18-6b0b7f11fd27","[{""page_index"":0,""viewing_time"":15011}]","15011","","","",""
