"success","timeout","failed_images","failed_audio","failed_video","trial_type","trial_index","time_elapsed","internal_node_id","subject_id","study_id","session_id","view_history","rt","stimulus","response","series","repetition","phase","choice","question_order"
"true","false","[]","[]","[]","preload","0","796","0.0-0.0","1785A107E1FE41A5964212696685C120","0199d676-57c9-7422-b19b-09a988607609","0199d675-8795-765b-adc2-c813de8cd3d1","","","","","","","","",""
"","","","","","instructions","1","128391","0.0-1.0","1785A107E1FE41A5964212696685C120","0199d676-57c9-7422-b19b-09a988607609","0199d675-8795-765b-adc2-c813de8cd3d1","[{""page_index"":0,""viewing_time"":127594}]","127594","","","","","","",""
"","","","","","instructions","2","133008","0.0-2.0","1785A107E1FE41A5964212696685C120","0199d676-57c9-7422-b19b-09a988607609","0199d675-8795-765b-adc2-c813de8cd3d1","[{""page_index"":0,""viewing_time"":4615}]","4615","","","","","","",""
"true","","","","","fullscreen","3","136027","0.0-3.0","1785A107E1FE41A5964212696685C120","0199d676-57c9-7422-b19b-09a988607609","0199d675-8795-765b-adc2-c813de8cd3d1","","2001","","","","","","",""
"","","","","","instructions","4","139875","0.0-4.0","1785A107E1FE41A5964212696685C120","0199d676-57c9-7422-b19b-09a988607609","0199d675-8795-765b-adc2-c813de8cd3d1","[{""page_index"":0,""viewing_time"":3846}]","3846","","","","","","",""
"","","","","","html-keyboard-response","5","145882","0.0-5.0","1785A107E1FE41A5964212696685C120","0199d676-57c9-7422-b19b-09a988607609","0199d675-8795-765b-adc2-c813de8cd3d1","","null","<div style=""display: flex; justify-content: center; align-items: center;"">
                     <img src=""images/causal/causal_series_8/causal_series_8_a.png"" style=""width: 300px; height: 300px;"" />
                   </div>","null","8","2","A","",""
"","","","","","html-button-response","6","148040","0.0-6.0","1785A107E1FE41A5964212696685C120","0199d676-57c9-7422-b19b-09a988607609","0199d675-8795-765b-adc2-c813de8cd3d1","","2156","
        <div style=""display: flex; justify-content: center; align-items: center;"">
          <img src=""images/red_deck_2.png"" style=""width: 300px; height: 300px; margin-right: 10px;"" />
          <img src=""images/blue_deck_1.png"" style=""width: 300px; height: 300px;"" />
        </div>","0","8","2","choice","0",""
"","","","","","html-keyboard-response","7","154048","0.0-7.0-0.0-0.0","1785A107E1FE41A5964212696685C120","0199d676-57c9-7422-b19b-09a988607609","0199d675-8795-765b-adc2-c813de8cd3d1","","null","<div style=""display: flex; justify-content: center; align-items: center;"">
                     <img src=""images/causal/causal_series_8/causal_series_8_b.png"" style=""width: 300px; height: 300px;"" />
                   </div>","null","8","2","B","",""
"","","","","","html-keyboard-response","8","160063","0.0-7.0-0.0-1.0","1785A107E1FE41A5964212696685C120","0199d676-57c9-7422-b19b-09a988607609","0199d675-8795-765b-adc2-c813de8cd3d1","","null","<div style=""display: flex; justify-content: center; align-items: center;"">
                     <img src=""images/causal/causal_series_8/causal_series_8_c.png"" style=""width: 300px; height: 300px;"" />
                   </div>","null","8","2","C","",""
"","","","","","html-keyboard-response","9","166067","0.0-7.0-0.0-2.0","1785A107E1FE41A5964212696685C120","0199d676-57c9-7422-b19b-09a988607609","0199d675-8795-765b-adc2-c813de8cd3d1","","null","<div style=""display: flex; justify-content: center; align-items: center;"">
                     <img src=""images/causal/causal_series_8/causal_series_8_d.png"" style=""width: 300px; height: 300px;"" />
                   </div>","null","8","2","D","",""
"","","","","","survey-likert","10","171398","0.0-8.0","1785A107E1FE41A5964212696685C120","0199d676-57c9-7422-b19b-09a988607609","0199d675-8795-765b-adc2-c813de8cd3d1","","5327","","{""Q0"":0}","8","2","surprise_rating","","[0]"
"","","","","","survey-likert","11","175139","0.0-9.0","1785A107E1FE41A5964212696685C120","0199d676-57c9-7422-b19b-09a988607609","0199d675-8795-765b-adc2-c813de8cd3d1","","3739","","{""Q0"":0}","8","2","enjoyment_rating","","[0]"
"","","","","","html-keyboard-response","12","181154","0.0-10.0","1785A107E1FE41A5964212696685C120","0199d676-57c9-7422-b19b-09a988607609","0199d675-8795-765b-adc2-c813de8cd3d1","","null","<div style=""display: flex; justify-content: center; align-items: center;"">
                     <img src=""images/other/blank.png"" style=""width: 300px; height: 300px;"" />
                   </div>","null","0","0","blank","",""
"","","","","","html-keyboard-response","13","187160","0.0-11.0","1785A107E1FE41A5964212696685C120","0199d676-57c9-7422-b19b-09a988607609","0199d675-8795-765b-adc2-c813de8cd3d1","","null","<div style=""display: flex; justify-content: center; align-items: center;"">
                     <img src=""images/causal/causal_series_10/causal_series_10_a.png"" style=""width: 300px; height: 300px;"" />
                   </div>","null","10","2","A","",""
"","","","","","html-button-response","14","191517","0.0-12.0","1785A107E1FE41A5964212696685C120","0199d676-57c9-7422-b19b-09a988607609","0199d675-8795-765b-adc2-c813de8cd3d1","","4355","
        <div style=""display: flex; justify-content: center; align-items: center;"">
          <img src=""images/red_deck_2.png"" style=""width: 300px; height: 300px; margin-right: 10px;"" />
          <img src=""images/blue_deck_1.png"" style=""width: 300px; height: 300px;"" />
        </div>","0","10","2","choice","0",""
"","","","","","html-keyboard-response","15","197519","0.0-13.0-0.0-0.0","1785A107E1FE41A5964212696685C120","0199d676-57c9-7422-b19b-09a988607609","0199d675-8795-765b-adc2-c813de8cd3d1","","null","<div style=""display: flex; justify-content: center; align-items: center;"">
                     <img src=""images/causal/causal_series_10/causal_series_10_b.png"" style=""width: 300px; height: 300px;"" />
                   </div>","null","10","2","B","",""
"","","","","","html-keyboard-response","16","203530","0.0-13.0-0.0-1.0","1785A107E1FE41A5964212696685C120","0199d676-57c9-7422-b19b-09a988607609","0199d675-8795-765b-adc2-c813de8cd3d1","","null","<div style=""display: flex; justify-content: center; align-items: center;"">
                     <img src=""images/causal/causal_series_10/causal_series_10_c.png"" style=""width: 300px; height: 300px;"" />
                   </div>","null","10","2","C","",""
"","","","","","html-keyboard-response","17","209546","0.0-13.0-0.0-2.0","1785A107E1FE41A5964212696685C120","0199d676-57c9-7422-b19b-09a988607609","0199d675-8795-765b-adc2-c813de8cd3d1","","null","<div style=""display: flex; justify-content: center; align-items: center;"">
                     <img src=""images/causal/causal_series_10/causal_series_10_d.png"" style=""width: 300px; height: 300px;"" />
                   </div>","null","10","2","D","",""
"","","","","","survey-likert","18","214993","0.0-14.0","1785A107E1FE41A5964212696685C120","0199d676-57c9-7422-b19b-09a988607609","0199d675-8795-765b-adc2-c813de8cd3d1","","5446","","{""Q0"":4}","10","2","surprise_rating","","[0]"
"","","","","","survey-likert","19","217552","0.0-15.0","1785A107E1FE41A5964212696685C120","0199d676-57c9-7422-b19b-09a988607609","0199d675-8795-765b-adc2-c813de8cd3d1","","2556","","{""Q0"":4}","10","2","enjoyment_rating","","[0]"
"","","","","","html-keyboard-response","20","223556","0.0-16.0","1785A107E1FE41A5964212696685C120","0199d676-57c9-7422-b19b-09a988607609","0199d675-8795-765b-adc2-c813de8cd3d1","","null","<div style=""display: flex; justify-content: center; align-items: center;"">
                     <img src=""images/other/blank.png"" style=""width: 300px; height: 300px;"" />
                   </div>","null","0","0","blank","",""
"","","","","","html-keyboard-response","21","229559","0.0-17.0","1785A107E1FE41A5964212696685C120","0199d676-57c9-7422-b19b-09a988607609","0199d675-8795-765b-adc2-c813de8cd3d1","","null","<div style=""display: flex; justify-content: center; align-items: center;"">
                     <img src=""images/causal/causal_series_5/causal_series_5_a.png"" style=""width: 300px; height: 300px;"" />
                   </div>","null","5","1","A","",""
"","","","","","html-button-response","22","232823","0.0-18.0","1785A107E1FE41A5964212696685C120","0199d676-57c9-7422-b19b-09a988607609","0199d675-8795-765b-adc2-c813de8cd3d1","","3262","
        <div style=""display: flex; justify-content: center; align-items: center;"">
          <img src=""images/red_deck_2.png"" style=""width: 300px; height: 300px; margin-right: 10px;"" />
          <img src=""images/blue_deck_1.png"" style=""width: 300px; height: 300px;"" />
        </div>","0","5","1","choice","0",""
"","","","","","html-keyboard-response","23","238833","0.0-19.0-0.0-0.0","1785A107E1FE41A5964212696685C120","0199d676-57c9-7422-b19b-09a988607609","0199d675-8795-765b-adc2-c813de8cd3d1","","null","<div style=""display: flex; justify-content: center; align-items: center;"">
                     <img src=""images/causal/causal_series_5/causal_series_5_b.png"" style=""width: 300px; height: 300px;"" />
                   </div>","null","5","1","B","",""
"","","","","","html-keyboard-response","24","244839","0.0-19.0-0.0-1.0","1785A107E1FE41A5964212696685C120","0199d676-57c9-7422-b19b-09a988607609","0199d675-8795-765b-adc2-c813de8cd3d1","","null","<div style=""display: flex; justify-content: center; align-items: center;"">
                     <img src=""images/causal/causal_series_5/causal_series_5_c.png"" style=""width: 300px; height: 300px;"" />
                   </div>","null","5","1","C","",""
"","","","","","html-keyboard-response","25","250852","0.0-19.0-0.0-2.0","1785A107E1FE41A5964212696685C120","0199d676-57c9-7422-b19b-09a988607609","0199d675-8795-765b-adc2-c813de8cd3d1","","null","<div style=""display: flex; justify-content: center; align-items: center;"">
                     <img src=""images/causal/causal_series_5/causal_series_5_d.png"" style=""width: 300px; height: 300px;"" />
                   </div>","null","5","1","D","",""
"","","","","","survey-likert","26","277675","0.0-20.0","1785A107E1FE41A5964212696685C120","0199d676-57c9-7422-b19b-09a988607609","0199d675-8795-765b-adc2-c813de8cd3d1","","26821","","{""Q0"":4}","5","1","surprise_rating","","[0]"
"","","","","","survey-likert","27","281807","0.0-21.0","1785A107E1FE41A5964212696685C120","0199d676-57c9-7422-b19b-09a988607609","0199d675-8795-765b-adc2-c813de8cd3d1","","4130","","{""Q0"":2}","5","1","enjoyment_rating","","[0]"
"","","","","","html-keyboard-response","28","287812","0.0-22.0","1785A107E1FE41A5964212696685C120","0199d676-57c9-7422-b19b-09a988607609","0199d675-8795-765b-adc2-c813de8cd3d1","","null","<div style=""display: flex; justify-content: center; align-items: center;"">
                     <img src=""images/other/blank.png"" style=""width: 300px; height: 300px;"" />
                   </div>","null","0","0","blank","",""
"","","","","","html-keyboard-response","29","293815","0.0-23.0","1785A107E1FE41A5964212696685C120","0199d676-57c9-7422-b19b-09a988607609","0199d675-8795-765b-adc2-c813de8cd3d1","","null","<div style=""display: flex; justify-content: center; align-items: center;"">
                     <img src=""images/causal/causal_series_1/causal_series_1_a.png"" style=""width: 300px; height: 300px;"" />
                   </div>","null","1","2","A","",""
"","","","","","html-button-response","30","366475","0.0-24.0","1785A107E1FE41A5964212696685C120","0199d676-57c9-7422-b19b-09a988607609","0199d675-8795-765b-adc2-c813de8cd3d1","","72658","
        <div style=""display: flex; justify-content: center; align-items: center;"">
          <img src=""images/red_deck_2.png"" style=""width: 300px; height: 300px; margin-right: 10px;"" />
          <img src=""images/blue_deck_1.png"" style=""width: 300px; height: 300px;"" />
        </div>","0","1","2","choice","0",""
"","","","","","html-keyboard-response","31","372481","0.0-25.0-0.0-0.0","1785A107E1FE41A5964212696685C120","0199d676-57c9-7422-b19b-09a988607609","0199d675-8795-765b-adc2-c813de8cd3d1","","null","<div style=""display: flex; justify-content: center; align-items: center;"">
                     <img src=""images/causal/causal_series_1/causal_series_1_b.png"" style=""width: 300px; height: 300px;"" />
                   </div>","null","1","2","B","",""
"","","","","","html-keyboard-response","32","378485","0.0-25.0-0.0-1.0","1785A107E1FE41A5964212696685C120","0199d676-57c9-7422-b19b-09a988607609","0199d675-8795-765b-adc2-c813de8cd3d1","","null","<div style=""display: flex; justify-content: center; align-items: center;"">
                     <img src=""images/causal/causal_series_1/causal_series_1_c.png"" style=""width: 300px; height: 300px;"" />
                   </div>","null","1","2","C","",""
"","","","","","html-keyboard-response","33","384491","0.0-25.0-0.0-2.0","1785A107E1FE41A5964212696685C120","0199d676-57c9-7422-b19b-09a988607609","0199d675-8795-765b-adc2-c813de8cd3d1","","null","<div style=""display: flex; justify-content: center; align-items: center;"">
                     <img src=""images/causal/causal_series_1/causal_series_1_d.png"" style=""width: 300px; height: 300px;"" />
                   </div>","null","1","2","D","",""
"","","","","","survey-likert","34","389129","0.0-26.0","1785A107E1FE41A5964212696685C120","0199d676-57c9-7422-b19b-09a988607609","0199d675-8795-765b-adc2-c813de8cd3d1","","4636","","{""Q0"":4}","1","2","surprise_rating","","[0]"
"","","","","","survey-likert","35","391756","0.0-27.0","1785A107E1FE41A5964212696685C120","0199d676-57c9-7422-b19b-09a988607609","0199d675-8795-765b-adc2-c813de8cd3d1","","2624","","{""Q0"":4}","1","2","enjoyment_rating","","[0]"
"","","","","","html-keyboard-response","36","397759","0.0-28.0","1785A107E1FE41A5964212696685C120","0199d676-57c9-7422-b19b-09a988607609","0199d675-8795-765b-adc2-c813de8cd3d1","","null","<div style=""display: flex; justify-content: center; align-items: center;"">
                     <img src=""images/other/blank.png"" style=""width: 300px; height: 300px;"" />
                   </div>","null","0","0","blank","",""
"","","","","","html-keyboard-response","37","403771","0.0-29.0","1785A107E1FE41A5964212696685C120","0199d676-57c9-7422-b19b-09a988607609","0199d675-8795-765b-adc2-c813de8cd3d1","","null","<div style=""display: flex; justify-content: center; align-items: center;"">
                     <img src=""images/causal/causal_series_9/causal_series_9_a.png"" style=""width: 300px; height: 300px;"" />
                   </div>","null","9","2","A","",""
"","","","","","html-button-response","38","407358","0.0-30.0","1785A107E1FE41A5964212696685C120","0199d676-57c9-7422-b19b-09a988607609","0199d675-8795-765b-adc2-c813de8cd3d1","","3585","
        <div style=""display: flex; justify-content: center; align-items: center;"">
          <img src=""images/red_deck_2.png"" style=""width: 300px; height: 300px; margin-right: 10px;"" />
          <img src=""images/blue_deck_1.png"" style=""width: 300px; height: 300px;"" />
        </div>","1","9","2","choice","1",""
"","","","","","html-keyboard-response","39","413362","0.0-31.0-1.0-0.0","1785A107E1FE41A5964212696685C120","0199d676-57c9-7422-b19b-09a988607609","0199d675-8795-765b-adc2-c813de8cd3d1","","null","<div style=""display: flex; justify-content: center; align-items: center;"">
                     <img src=""images/semantic/semantic_series_9/semantic_series_9_b.png"" style=""width: 300px; height: 300px;"" />
                   </div>","null","9","2","B","",""
"","","","","","html-keyboard-response","40","419376","0.0-31.0-1.0-1.0","1785A107E1FE41A5964212696685C120","0199d676-57c9-7422-b19b-09a988607609","0199d675-8795-765b-adc2-c813de8cd3d1","","null","<div style=""display: flex; justify-content: center; align-items: center;"">
                     <img src=""images/semantic/semantic_series_9/semantic_series_9_c.png"" style=""width: 300px; height: 300px;"" />
                   </div>","null","9","2","C","",""
"","","","","","html-keyboard-response","41","425384","0.0-31.0-1.0-2.0","1785A107E1FE41A5964212696685C120","0199d676-57c9-7422-b19b-09a988607609","0199d675-8795-765b-adc2-c813de8cd3d1","","null","<div style=""display: flex; justify-content: center; align-items: center;"">
                     <img src=""images/semantic/semantic_series_9/semantic_series_9_d.png"" style=""width: 300px; height: 300px;"" />
                   </div>","null","9","2","D","",""
"","","","","","survey-likert","42","429903","0.0-32.0","1785A107E1FE41A5964212696685C120","0199d676-57c9-7422-b19b-09a988607609","0199d675-8795-765b-adc2-c813de8cd3d1","","4517","","{""Q0"":4}","9","2","surprise_rating","","[0]"
"","","","","","survey-likert","43","432119","0.0-33.0","1785A107E1FE41A5964212696685C120","0199d676-57c9-7422-b19b-09a988607609","0199d675-8795-765b-adc2-c813de8cd3d1","","2214","","{""Q0"":4}","9","2","enjoyment_rating","","[0]"
"","","","","","html-keyboard-response","44","438127","0.0-34.0","1785A107E1FE41A5964212696685C120","0199d676-57c9-7422-b19b-09a988607609","0199d675-8795-765b-adc2-c813de8cd3d1","","null","<div style=""display: flex; justify-content: center; align-items: center;"">
                     <img src=""images/other/blank.png"" style=""width: 300px; height: 300px;"" />
                   </div>","null","0","0","blank","",""
"","","","","","html-keyboard-response","45","444131","0.0-35.0","1785A107E1FE41A5964212696685C120","0199d676-57c9-7422-b19b-09a988607609","0199d675-8795-765b-adc2-c813de8cd3d1","","null","<div style=""display: flex; justify-content: center; align-items: center;"">
                     <img src=""images/causal/causal_series_3/causal_series_3_a.png"" style=""width: 300px; height: 300px;"" />
                   </div>","null","3","1","A","",""
"","","","","","html-button-response","46","549809","0.0-36.0","1785A107E1FE41A5964212696685C120","0199d676-57c9-7422-b19b-09a988607609","0199d675-8795-765b-adc2-c813de8cd3d1","","105675","
        <div style=""display: flex; justify-content: center; align-items: center;"">
          <img src=""images/red_deck_2.png"" style=""width: 300px; height: 300px; margin-right: 10px;"" />
          <img src=""images/blue_deck_1.png"" style=""width: 300px; height: 300px;"" />
        </div>","1","3","1","choice","1",""
"","","","","","html-keyboard-response","47","555819","0.0-37.0-1.0-0.0","1785A107E1FE41A5964212696685C120","0199d676-57c9-7422-b19b-09a988607609","0199d675-8795-765b-adc2-c813de8cd3d1","","null","<div style=""display: flex; justify-content: center; align-items: center;"">
                     <img src=""images/semantic/semantic_series_3/semantic_series_3_b.png"" style=""width: 300px; height: 300px;"" />
                   </div>","null","3","1","B","",""
"","","","","","html-keyboard-response","48","561822","0.0-37.0-1.0-1.0","1785A107E1FE41A5964212696685C120","0199d676-57c9-7422-b19b-09a988607609","0199d675-8795-765b-adc2-c813de8cd3d1","","null","<div style=""display: flex; justify-content: center; align-items: center;"">
                     <img src=""images/semantic/semantic_series_3/semantic_series_3_c.png"" style=""width: 300px; height: 300px;"" />
                   </div>","null","3","1","C","",""
"","","","","","html-keyboard-response","49","567836","0.0-37.0-1.0-2.0","1785A107E1FE41A5964212696685C120","0199d676-57c9-7422-b19b-09a988607609","0199d675-8795-765b-adc2-c813de8cd3d1","","null","<div style=""display: flex; justify-content: center; align-items: center;"">
                     <img src=""images/semantic/semantic_series_3/semantic_series_3_d.png"" style=""width: 300px; height: 300px;"" />
                   </div>","null","3","1","D","",""
"","","","","","survey-likert","50","577007","0.0-38.0","1785A107E1FE41A5964212696685C120","0199d676-57c9-7422-b19b-09a988607609","0199d675-8795-765b-adc2-c813de8cd3d1","","9169","","{""Q0"":1}","3","1","surprise_rating","","[0]"
"","","","","","survey-likert","51","580486","0.0-39.0","1785A107E1FE41A5964212696685C120","0199d676-57c9-7422-b19b-09a988607609","0199d675-8795-765b-adc2-c813de8cd3d1","","3476","","{""Q0"":1}","3","1","enjoyment_rating","","[0]"
"","","","","","html-keyboard-response","52","586490","0.0-40.0","1785A107E1FE41A5964212696685C120","0199d676-57c9-7422-b19b-09a988607609","0199d675-8795-765b-adc2-c813de8cd3d1","","null","<div style=""display: flex; justify-content: center; align-items: center;"">
                     <img src=""images/other/blank.png"" style=""width: 300px; height: 300px;"" />
                   </div>","null","0","0","blank","",""
"","","","","","html-keyboard-response","53","592493","0.0-41.0","1785A107E1FE41A5964212696685C120","0199d676-57c9-7422-b19b-09a988607609","0199d675-8795-765b-adc2-c813de8cd3d1","","null","<div style=""display: flex; justify-content: center; align-items: center;"">
                     <img src=""images/causal/causal_series_6/causal_series_6_a.png"" style=""width: 300px; height: 300px;"" />
                   </div>","null","6","2","A","",""
"","","","","","html-button-response","54","620229","0.0-42.0","1785A107E1FE41A5964212696685C120","0199d676-57c9-7422-b19b-09a988607609","0199d675-8795-765b-adc2-c813de8cd3d1","","27733","
        <div style=""display: flex; justify-content: center; align-items: center;"">
          <img src=""images/red_deck_2.png"" style=""width: 300px; height: 300px; margin-right: 10px;"" />
          <img src=""images/blue_deck_1.png"" style=""width: 300px; height: 300px;"" />
        </div>","0","6","2","choice","0",""
"","","","","","html-keyboard-response","55","626234","0.0-43.0-0.0-0.0","1785A107E1FE41A5964212696685C120","0199d676-57c9-7422-b19b-09a988607609","0199d675-8795-765b-adc2-c813de8cd3d1","","null","<div style=""display: flex; justify-content: center; align-items: center;"">
                     <img src=""images/causal/causal_series_6/causal_series_6_b.png"" style=""width: 300px; height: 300px;"" />
                   </div>","null","6","2","B","",""
"","","","","","html-keyboard-response","56","632237","0.0-43.0-0.0-1.0","1785A107E1FE41A5964212696685C120","0199d676-57c9-7422-b19b-09a988607609","0199d675-8795-765b-adc2-c813de8cd3d1","","null","<div style=""display: flex; justify-content: center; align-items: center;"">
                     <img src=""images/causal/causal_series_6/causal_series_6_c.png"" style=""width: 300px; height: 300px;"" />
                   </div>","null","6","2","C","",""
"","","","","","html-keyboard-response","57","638253","0.0-43.0-0.0-2.0","1785A107E1FE41A5964212696685C120","0199d676-57c9-7422-b19b-09a988607609","0199d675-8795-765b-adc2-c813de8cd3d1","","null","<div style=""display: flex; justify-content: center; align-items: center;"">
                     <img src=""images/causal/causal_series_6/causal_series_6_d.png"" style=""width: 300px; height: 300px;"" />
                   </div>","null","6","2","D","",""
"","","","","","survey-likert","58","644326","0.0-44.0","1785A107E1FE41A5964212696685C120","0199d676-57c9-7422-b19b-09a988607609","0199d675-8795-765b-adc2-c813de8cd3d1","","6070","","{""Q0"":2}","6","2","surprise_rating","","[0]"
"","","","","","survey-likert","59","645937","0.0-45.0","1785A107E1FE41A5964212696685C120","0199d676-57c9-7422-b19b-09a988607609","0199d675-8795-765b-adc2-c813de8cd3d1","","1609","","{""Q0"":2}","6","2","enjoyment_rating","","[0]"
"","","","","","html-keyboard-response","60","651951","0.0-46.0","1785A107E1FE41A5964212696685C120","0199d676-57c9-7422-b19b-09a988607609","0199d675-8795-765b-adc2-c813de8cd3d1","","null","<div style=""display: flex; justify-content: center; align-items: center;"">
                     <img src=""images/other/blank.png"" style=""width: 300px; height: 300px;"" />
                   </div>","null","0","0","blank","",""
"","","","","","html-keyboard-response","61","657961","0.0-47.0","1785A107E1FE41A5964212696685C120","0199d676-57c9-7422-b19b-09a988607609","0199d675-8795-765b-adc2-c813de8cd3d1","","null","<div style=""display: flex; justify-content: center; align-items: center;"">
                     <img src=""images/causal/causal_series_10/causal_series_10_a.png"" style=""width: 300px; height: 300px;"" />
                   </div>","null","10","1","A","",""
"","","","","","html-button-response","62","662823","0.0-48.0","1785A107E1FE41A5964212696685C120","0199d676-57c9-7422-b19b-09a988607609","0199d675-8795-765b-adc2-c813de8cd3d1","","4860","
        <div style=""display: flex; justify-content: center; align-items: center;"">
          <img src=""images/red_deck_2.png"" style=""width: 300px; height: 300px; margin-right: 10px;"" />
          <img src=""images/blue_deck_1.png"" style=""width: 300px; height: 300px;"" />
        </div>","0","10","1","choice","0",""
"","","","","","html-keyboard-response","63","668830","0.0-49.0-0.0-0.0","1785A107E1FE41A5964212696685C120","0199d676-57c9-7422-b19b-09a988607609","0199d675-8795-765b-adc2-c813de8cd3d1","","null","<div style=""display: flex; justify-content: center; align-items: center;"">
                     <img src=""images/causal/causal_series_10/causal_series_10_b.png"" style=""width: 300px; height: 300px;"" />
                   </div>","null","10","1","B","",""
"","","","","","html-keyboard-response","64","674840","0.0-49.0-0.0-1.0","1785A107E1FE41A5964212696685C120","0199d676-57c9-7422-b19b-09a988607609","0199d675-8795-765b-adc2-c813de8cd3d1","","null","<div style=""display: flex; justify-content: center; align-items: center;"">
                     <img src=""images/causal/causal_series_10/causal_series_10_c.png"" style=""width: 300px; height: 300px;"" />
                   </div>","null","10","1","C","",""
"","","","","","html-keyboard-response","65","680844","0.0-49.0-0.0-2.0","1785A107E1FE41A5964212696685C120","0199d676-57c9-7422-b19b-09a988607609","0199d675-8795-765b-adc2-c813de8cd3d1","","null","<div style=""display: flex; justify-content: center; align-items: center;"">
                     <img src=""images/causal/causal_series_10/causal_series_10_d.png"" style=""width: 300px; height: 300px;"" />
                   </div>","null","10","1","D","",""
"","","","","","survey-likert","66","684859","0.0-50.0","1785A107E1FE41A5964212696685C120","0199d676-57c9-7422-b19b-09a988607609","0199d675-8795-765b-adc2-c813de8cd3d1","","4013","","{""Q0"":0}","10","1","surprise_rating","","[0]"
"","","","","","survey-likert","67","687049","0.0-51.0","1785A107E1FE41A5964212696685C120","0199d676-57c9-7422-b19b-09a988607609","0199d675-8795-765b-adc2-c813de8cd3d1","","2188","","{""Q0"":0}","10","1","enjoyment_rating","","[0]"
"","","","","","html-keyboard-response","68","693055","0.0-52.0","1785A107E1FE41A5964212696685C120","0199d676-57c9-7422-b19b-09a988607609","0199d675-8795-765b-adc2-c813de8cd3d1","","null","<div style=""display: flex; justify-content: center; align-items: center;"">
                     <img src=""images/other/blank.png"" style=""width: 300px; height: 300px;"" />
                   </div>","null","0","0","blank","",""
"","","","","","html-keyboard-response","69","699063","0.0-53.0","1785A107E1FE41A5964212696685C120","0199d676-57c9-7422-b19b-09a988607609","0199d675-8795-765b-adc2-c813de8cd3d1","","null","<div style=""display: flex; justify-content: center; align-items: center;"">
                     <img src=""images/causal/causal_series_2/causal_series_2_a.png"" style=""width: 300px; height: 300px;"" />
                   </div>","null","2","2","A","",""
"","","","","","html-button-response","70","701502","0.0-54.0","1785A107E1FE41A5964212696685C120","0199d676-57c9-7422-b19b-09a988607609","0199d675-8795-765b-adc2-c813de8cd3d1","","2437","
        <div style=""display: flex; justify-content: center; align-items: center;"">
          <img src=""images/red_deck_2.png"" style=""width: 300px; height: 300px; margin-right: 10px;"" />
          <img src=""images/blue_deck_1.png"" style=""width: 300px; height: 300px;"" />
        </div>","0","2","2","choice","0",""
"","","","","","html-keyboard-response","71","707518","0.0-55.0-0.0-0.0","1785A107E1FE41A5964212696685C120","0199d676-57c9-7422-b19b-09a988607609","0199d675-8795-765b-adc2-c813de8cd3d1","","null","<div style=""display: flex; justify-content: center; align-items: center;"">
                     <img src=""images/causal/causal_series_2/causal_series_2_b.png"" style=""width: 300px; height: 300px;"" />
                   </div>","null","2","2","B","",""
"","","","","","html-keyboard-response","72","713536","0.0-55.0-0.0-1.0","1785A107E1FE41A5964212696685C120","0199d676-57c9-7422-b19b-09a988607609","0199d675-8795-765b-adc2-c813de8cd3d1","","null","<div style=""display: flex; justify-content: center; align-items: center;"">
                     <img src=""images/causal/causal_series_2/causal_series_2_c.png"" style=""width: 300px; height: 300px;"" />
                   </div>","null","2","2","C","",""
"","","","","","html-keyboard-response","73","719539","0.0-55.0-0.0-2.0","1785A107E1FE41A5964212696685C120","0199d676-57c9-7422-b19b-09a988607609","0199d675-8795-765b-adc2-c813de8cd3d1","","null","<div style=""display: flex; justify-content: center; align-items: center;"">
                     <img src=""images/causal/causal_series_2/causal_series_2_d.png"" style=""width: 300px; height: 300px;"" />
                   </div>","null","2","2","D","",""
"","","","","","survey-likert","74","723830","0.0-56.0","1785A107E1FE41A5964212696685C120","0199d676-57c9-7422-b19b-09a988607609","0199d675-8795-765b-adc2-c813de8cd3d1","","4288","","{""Q0"":3}","2","2","surprise_rating","","[0]"
"","","","","","survey-likert","75","725455","0.0-57.0","1785A107E1FE41A5964212696685C120","0199d676-57c9-7422-b19b-09a988607609","0199d675-8795-765b-adc2-c813de8cd3d1","","1624","","{""Q0"":3}","2","2","enjoyment_rating","","[0]"
"","","","","","html-keyboard-response","76","731465","0.0-58.0","1785A107E1FE41A5964212696685C120","0199d676-57c9-7422-b19b-09a988607609","0199d675-8795-765b-adc2-c813de8cd3d1","","null","<div style=""display: flex; justify-content: center; align-items: center;"">
                     <img src=""images/other/blank.png"" style=""width: 300px; height: 300px;"" />
                   </div>","null","0","0","blank","",""
"","","","","","html-keyboard-response","77","737479","0.0-59.0","1785A107E1FE41A5964212696685C120","0199d676-57c9-7422-b19b-09a988607609","0199d675-8795-765b-adc2-c813de8cd3d1","","null","<div style=""display: flex; justify-content: center; align-items: center;"">
                     <img src=""images/causal/causal_series_8/causal_series_8_a.png"" style=""width: 300px; height: 300px;"" />
                   </div>","null","8","1","A","",""
"","","","","","html-button-response","78","740087","0.0-60.0","1785A107E1FE41A5964212696685C120","0199d676-57c9-7422-b19b-09a988607609","0199d675-8795-765b-adc2-c813de8cd3d1","","2605","
        <div style=""display: flex; justify-content: center; align-items: center;"">
          <img src=""images/red_deck_2.png"" style=""width: 300px; height: 300px; margin-right: 10px;"" />
          <img src=""images/blue_deck_1.png"" style=""width: 300px; height: 300px;"" />
        </div>","0","8","1","choice","0",""
"","","","","","html-keyboard-response","79","746093","0.0-61.0-0.0-0.0","1785A107E1FE41A5964212696685C120","0199d676-57c9-7422-b19b-09a988607609","0199d675-8795-765b-adc2-c813de8cd3d1","","null","<div style=""display: flex; justify-content: center; align-items: center;"">
                     <img src=""images/causal/causal_series_8/causal_series_8_b.png"" style=""width: 300px; height: 300px;"" />
                   </div>","null","8","1","B","",""
"","","","","","html-keyboard-response","80","752101","0.0-61.0-0.0-1.0","1785A107E1FE41A5964212696685C120","0199d676-57c9-7422-b19b-09a988607609","0199d675-8795-765b-adc2-c813de8cd3d1","","null","<div style=""display: flex; justify-content: center; align-items: center;"">
                     <img src=""images/causal/causal_series_8/causal_series_8_c.png"" style=""width: 300px; height: 300px;"" />
                   </div>","null","8","1","C","",""
"","","","","","html-keyboard-response","81","758106","0.0-61.0-0.0-2.0","1785A107E1FE41A5964212696685C120","0199d676-57c9-7422-b19b-09a988607609","0199d675-8795-765b-adc2-c813de8cd3d1","","null","<div style=""display: flex; justify-content: center; align-items: center;"">
                     <img src=""images/causal/causal_series_8/causal_series_8_d.png"" style=""width: 300px; height: 300px;"" />
                   </div>","null","8","1","D","",""
"","","","","","survey-likert","82","762549","0.0-62.0","1785A107E1FE41A5964212696685C120","0199d676-57c9-7422-b19b-09a988607609","0199d675-8795-765b-adc2-c813de8cd3d1","","4440","","{""Q0"":2}","8","1","surprise_rating","","[0]"
"","","","","","survey-likert","83","763827","0.0-63.0","1785A107E1FE41A5964212696685C120","0199d676-57c9-7422-b19b-09a988607609","0199d675-8795-765b-adc2-c813de8cd3d1","","1276","","{""Q0"":2}","8","1","enjoyment_rating","","[0]"
"","","","","","html-keyboard-response","84","769836","0.0-64.0","1785A107E1FE41A5964212696685C120","0199d676-57c9-7422-b19b-09a988607609","0199d675-8795-765b-adc2-c813de8cd3d1","","null","<div style=""display: flex; justify-content: center; align-items: center;"">
                     <img src=""images/other/blank.png"" style=""width: 300px; height: 300px;"" />
                   </div>","null","0","0","blank","",""
"","","","","","html-keyboard-response","85","775845","0.0-65.0","1785A107E1FE41A5964212696685C120","0199d676-57c9-7422-b19b-09a988607609","0199d675-8795-765b-adc2-c813de8cd3d1","","null","<div style=""display: flex; justify-content: center; align-items: center;"">
                     <img src=""images/causal/causal_series_7/causal_series_7_a.png"" style=""width: 300px; height: 300px;"" />
                   </div>","null","7","1","A","",""
"","","","","","html-button-response","86","778487","0.0-66.0","1785A107E1FE41A5964212696685C120","0199d676-57c9-7422-b19b-09a988607609","0199d675-8795-765b-adc2-c813de8cd3d1","","2639","
        <div style=""display: flex; justify-content: center; align-items: center;"">
          <img src=""images/red_deck_2.png"" style=""width: 300px; height: 300px; margin-right: 10px;"" />
          <img src=""images/blue_deck_1.png"" style=""width: 300px; height: 300px;"" />
        </div>","0","7","1","choice","0",""
"","","","","","html-keyboard-response","87","784499","0.0-67.0-0.0-0.0","1785A107E1FE41A5964212696685C120","0199d676-57c9-7422-b19b-09a988607609","0199d675-8795-765b-adc2-c813de8cd3d1","","null","<div style=""display: flex; justify-content: center; align-items: center;"">
                     <img src=""images/causal/causal_series_7/causal_series_7_b.png"" style=""width: 300px; height: 300px;"" />
                   </div>","null","7","1","B","",""
"","","","","","html-keyboard-response","88","790513","0.0-67.0-0.0-1.0","1785A107E1FE41A5964212696685C120","0199d676-57c9-7422-b19b-09a988607609","0199d675-8795-765b-adc2-c813de8cd3d1","","null","<div style=""display: flex; justify-content: center; align-items: center;"">
                     <img src=""images/causal/causal_series_7/causal_series_7_c.png"" style=""width: 300px; height: 300px;"" />
                   </div>","null","7","1","C","",""
"","","","","","html-keyboard-response","89","796521","0.0-67.0-0.0-2.0","1785A107E1FE41A5964212696685C120","0199d676-57c9-7422-b19b-09a988607609","0199d675-8795-765b-adc2-c813de8cd3d1","","null","<div style=""display: flex; justify-content: center; align-items: center;"">
                     <img src=""images/causal/causal_series_7/causal_series_7_d.png"" style=""width: 300px; height: 300px;"" />
                   </div>","null","7","1","D","",""
"","","","","","survey-likert","90","799397","0.0-68.0","1785A107E1FE41A5964212696685C120","0199d676-57c9-7422-b19b-09a988607609","0199d675-8795-765b-adc2-c813de8cd3d1","","2874","","{""Q0"":2}","7","1","surprise_rating","","[0]"
"","","","","","survey-likert","91","800967","0.0-69.0","1785A107E1FE41A5964212696685C120","0199d676-57c9-7422-b19b-09a988607609","0199d675-8795-765b-adc2-c813de8cd3d1","","1568","","{""Q0"":2}","7","1","enjoyment_rating","","[0]"
"","","","","","html-keyboard-response","92","806976","0.0-70.0","1785A107E1FE41A5964212696685C120","0199d676-57c9-7422-b19b-09a988607609","0199d675-8795-765b-adc2-c813de8cd3d1","","null","<div style=""display: flex; justify-content: center; align-items: center;"">
                     <img src=""images/other/blank.png"" style=""width: 300px; height: 300px;"" />
                   </div>","null","0","0","blank","",""
"","","","","","html-keyboard-response","93","812992","0.0-71.0","1785A107E1FE41A5964212696685C120","0199d676-57c9-7422-b19b-09a988607609","0199d675-8795-765b-adc2-c813de8cd3d1","","null","<div style=""display: flex; justify-content: center; align-items: center;"">
                     <img src=""images/causal/causal_series_4/causal_series_4_a.png"" style=""width: 300px; height: 300px;"" />
                   </div>","null","4","1","A","",""
"","","","","","html-button-response","94","818090","0.0-72.0","1785A107E1FE41A5964212696685C120","0199d676-57c9-7422-b19b-09a988607609","0199d675-8795-765b-adc2-c813de8cd3d1","","5096","
        <div style=""display: flex; justify-content: center; align-items: center;"">
          <img src=""images/red_deck_2.png"" style=""width: 300px; height: 300px; margin-right: 10px;"" />
          <img src=""images/blue_deck_1.png"" style=""width: 300px; height: 300px;"" />
        </div>","0","4","1","choice","0",""
"","","","","","html-keyboard-response","95","824100","0.0-73.0-0.0-0.0","1785A107E1FE41A5964212696685C120","0199d676-57c9-7422-b19b-09a988607609","0199d675-8795-765b-adc2-c813de8cd3d1","","null","<div style=""display: flex; justify-content: center; align-items: center;"">
                     <img src=""images/causal/causal_series_4/causal_series_4_b.png"" style=""width: 300px; height: 300px;"" />
                   </div>","null","4","1","B","",""
"","","","","","html-keyboard-response","96","830118","0.0-73.0-0.0-1.0","1785A107E1FE41A5964212696685C120","0199d676-57c9-7422-b19b-09a988607609","0199d675-8795-765b-adc2-c813de8cd3d1","","null","<div style=""display: flex; justify-content: center; align-items: center;"">
                     <img src=""images/causal/causal_series_4/causal_series_4_c.png"" style=""width: 300px; height: 300px;"" />
                   </div>","null","4","1","C","",""
"","","","","","html-keyboard-response","97","836129","0.0-73.0-0.0-2.0","1785A107E1FE41A5964212696685C120","0199d676-57c9-7422-b19b-09a988607609","0199d675-8795-765b-adc2-c813de8cd3d1","","null","<div style=""display: flex; justify-content: center; align-items: center;"">
                     <img src=""images/causal/causal_series_4/causal_series_4_d.png"" style=""width: 300px; height: 300px;"" />
                   </div>","null","4","1","D","",""
"","","","","","survey-likert","98","838667","0.0-74.0","1785A107E1FE41A5964212696685C120","0199d676-57c9-7422-b19b-09a988607609","0199d675-8795-765b-adc2-c813de8cd3d1","","2537","","{""Q0"":4}","4","1","surprise_rating","","[0]"
"","","","","","survey-likert","99","842221","0.0-75.0","1785A107E1FE41A5964212696685C120","0199d676-57c9-7422-b19b-09a988607609","0199d675-8795-765b-adc2-c813de8cd3d1","","3552","","{""Q0"":2}","4","1","enjoyment_rating","","[0]"
"","","","","","html-keyboard-response","100","848237","0.0-76.0","1785A107E1FE41A5964212696685C120","0199d676-57c9-7422-b19b-09a988607609","0199d675-8795-765b-adc2-c813de8cd3d1","","null","<div style=""display: flex; justify-content: center; align-items: center;"">
                     <img src=""images/other/blank.png"" style=""width: 300px; height: 300px;"" />
                   </div>","null","0","0","blank","",""
"","","","","","html-keyboard-response","101","854244","0.0-77.0","1785A107E1FE41A5964212696685C120","0199d676-57c9-7422-b19b-09a988607609","0199d675-8795-765b-adc2-c813de8cd3d1","","null","<div style=""display: flex; justify-content: center; align-items: center;"">
                     <img src=""images/causal/causal_series_7/causal_series_7_a.png"" style=""width: 300px; height: 300px;"" />
                   </div>","null","7","2","A","",""
"","","","","","html-button-response","102","857568","0.0-78.0","1785A107E1FE41A5964212696685C120","0199d676-57c9-7422-b19b-09a988607609","0199d675-8795-765b-adc2-c813de8cd3d1","","3321","
        <div style=""display: flex; justify-content: center; align-items: center;"">
          <img src=""images/red_deck_2.png"" style=""width: 300px; height: 300px; margin-right: 10px;"" />
          <img src=""images/blue_deck_1.png"" style=""width: 300px; height: 300px;"" />
        </div>","0","7","2","choice","0",""
"","","","","","html-keyboard-response","103","863585","0.0-79.0-0.0-0.0","1785A107E1FE41A5964212696685C120","0199d676-57c9-7422-b19b-09a988607609","0199d675-8795-765b-adc2-c813de8cd3d1","","null","<div style=""display: flex; justify-content: center; align-items: center;"">
                     <img src=""images/causal/causal_series_7/causal_series_7_b.png"" style=""width: 300px; height: 300px;"" />
                   </div>","null","7","2","B","",""
"","","","","","html-keyboard-response","104","869588","0.0-79.0-0.0-1.0","1785A107E1FE41A5964212696685C120","0199d676-57c9-7422-b19b-09a988607609","0199d675-8795-765b-adc2-c813de8cd3d1","","null","<div style=""display: flex; justify-content: center; align-items: center;"">
                     <img src=""images/causal/causal_series_7/causal_series_7_c.png"" style=""width: 300px; height: 300px;"" />
                   </div>","null","7","2","C","",""
"","","","","","html-keyboard-response","105","875597","0.0-79.0-0.0-2.0","1785A107E1FE41A5964212696685C120","0199d676-57c9-7422-b19b-09a988607609","0199d675-8795-765b-adc2-c813de8cd3d1","","null","<div style=""display: flex; justify-content: center; align-items: center;"">
                     <img src=""images/causal/causal_series_7/causal_series_7_d.png"" style=""width: 300px; height: 300px;"" />
                   </div>","null","7","2","D","",""
"","","","","","survey-likert","106","878778","0.0-80.0","1785A107E1FE41A5964212696685C120","0199d676-57c9-7422-b19b-09a988607609","0199d675-8795-765b-adc2-c813de8cd3d1","","3180","","{""Q0"":2}","7","2","surprise_rating","","[0]"
"","","","","","survey-likert","107","880014","0.0-81.0","1785A107E1FE41A5964212696685C120","0199d676-57c9-7422-b19b-09a988607609","0199d675-8795-765b-adc2-c813de8cd3d1","","1233","","{""Q0"":2}","7","2","enjoyment_rating","","[0]"
"","","","","","html-keyboard-response","108","886021","0.0-82.0","1785A107E1FE41A5964212696685C120","0199d676-57c9-7422-b19b-09a988607609","0199d675-8795-765b-adc2-c813de8cd3d1","","null","<div style=""display: flex; justify-content: center; align-items: center;"">
                     <img src=""images/other/blank.png"" style=""width: 300px; height: 300px;"" />
                   </div>","null","0","0","blank","",""
"","","","","","html-keyboard-response","109","892030","0.0-83.0","1785A107E1FE41A5964212696685C120","0199d676-57c9-7422-b19b-09a988607609","0199d675-8795-765b-adc2-c813de8cd3d1","","null","<div style=""display: flex; justify-content: center; align-items: center;"">
                     <img src=""images/causal/causal_series_4/causal_series_4_a.png"" style=""width: 300px; height: 300px;"" />
                   </div>","null","4","2","A","",""
"","","","","","html-button-response","110","894325","0.0-84.0","1785A107E1FE41A5964212696685C120","0199d676-57c9-7422-b19b-09a988607609","0199d675-8795-765b-adc2-c813de8cd3d1","","2292","
        <div style=""display: flex; justify-content: center; align-items: center;"">
          <img src=""images/red_deck_2.png"" style=""width: 300px; height: 300px; margin-right: 10px;"" />
          <img src=""images/blue_deck_1.png"" style=""width: 300px; height: 300px;"" />
        </div>","0","4","2","choice","0",""
"","","","","","html-keyboard-response","111","900339","0.0-85.0-0.0-0.0","1785A107E1FE41A5964212696685C120","0199d676-57c9-7422-b19b-09a988607609","0199d675-8795-765b-adc2-c813de8cd3d1","","null","<div style=""display: flex; justify-content: center; align-items: center;"">
                     <img src=""images/causal/causal_series_4/causal_series_4_b.png"" style=""width: 300px; height: 300px;"" />
                   </div>","null","4","2","B","",""
"","","","","","html-keyboard-response","112","906353","0.0-85.0-0.0-1.0","1785A107E1FE41A5964212696685C120","0199d676-57c9-7422-b19b-09a988607609","0199d675-8795-765b-adc2-c813de8cd3d1","","null","<div style=""display: flex; justify-content: center; align-items: center;"">
                     <img src=""images/causal/causal_series_4/causal_series_4_c.png"" style=""width: 300px; height: 300px;"" />
                   </div>","null","4","2","C","",""
"","","","","","html-keyboard-response","113","912356","0.0-85.0-0.0-2.0","1785A107E1FE41A5964212696685C120","0199d676-57c9-7422-b19b-09a988607609","0199d675-8795-765b-adc2-c813de8cd3d1","","null","<div style=""display: flex; justify-content: center; align-items: center;"">
                     <img src=""images/causal/causal_series_4/causal_series_4_d.png"" style=""width: 300px; height: 300px;"" />
                   </div>","null","4","2","D","",""
"","","","","","survey-likert","114","913984","0.0-86.0","1785A107E1FE41A5964212696685C120","0199d676-57c9-7422-b19b-09a988607609","0199d675-8795-765b-adc2-c813de8cd3d1","","1627","","{""Q0"":4}","4","2","surprise_rating","","[0]"
"","","","","","survey-likert","115","915254","0.0-87.0","1785A107E1FE41A5964212696685C120","0199d676-57c9-7422-b19b-09a988607609","0199d675-8795-765b-adc2-c813de8cd3d1","","1268","","{""Q0"":4}","4","2","enjoyment_rating","","[0]"
"","","","","","html-keyboard-response","116","921271","0.0-88.0","1785A107E1FE41A5964212696685C120","0199d676-57c9-7422-b19b-09a988607609","0199d675-8795-765b-adc2-c813de8cd3d1","","null","<div style=""display: flex; justify-content: center; align-items: center;"">
                     <img src=""images/other/blank.png"" style=""width: 300px; height: 300px;"" />
                   </div>","null","0","0","blank","",""
"","","","","","html-keyboard-response","117","927286","0.0-89.0","1785A107E1FE41A5964212696685C120","0199d676-57c9-7422-b19b-09a988607609","0199d675-8795-765b-adc2-c813de8cd3d1","","null","<div style=""display: flex; justify-content: center; align-items: center;"">
                     <img src=""images/causal/causal_series_1/causal_series_1_a.png"" style=""width: 300px; height: 300px;"" />
                   </div>","null","1","1","A","",""
"","","","","","html-button-response","118","929957","0.0-90.0","1785A107E1FE41A5964212696685C120","0199d676-57c9-7422-b19b-09a988607609","0199d675-8795-765b-adc2-c813de8cd3d1","","2670","
        <div style=""display: flex; justify-content: center; align-items: center;"">
          <img src=""images/red_deck_2.png"" style=""width: 300px; height: 300px; margin-right: 10px;"" />
          <img src=""images/blue_deck_1.png"" style=""width: 300px; height: 300px;"" />
        </div>","0","1","1","choice","0",""
"","","","","","html-keyboard-response","119","935963","0.0-91.0-0.0-0.0","1785A107E1FE41A5964212696685C120","0199d676-57c9-7422-b19b-09a988607609","0199d675-8795-765b-adc2-c813de8cd3d1","","null","<div style=""display: flex; justify-content: center; align-items: center;"">
                     <img src=""images/causal/causal_series_1/causal_series_1_b.png"" style=""width: 300px; height: 300px;"" />
                   </div>","null","1","1","B","",""
"","","","","","html-keyboard-response","120","941975","0.0-91.0-0.0-1.0","1785A107E1FE41A5964212696685C120","0199d676-57c9-7422-b19b-09a988607609","0199d675-8795-765b-adc2-c813de8cd3d1","","null","<div style=""display: flex; justify-content: center; align-items: center;"">
                     <img src=""images/causal/causal_series_1/causal_series_1_c.png"" style=""width: 300px; height: 300px;"" />
                   </div>","null","1","1","C","",""
"","","","","","html-keyboard-response","121","947986","0.0-91.0-0.0-2.0","1785A107E1FE41A5964212696685C120","0199d676-57c9-7422-b19b-09a988607609","0199d675-8795-765b-adc2-c813de8cd3d1","","null","<div style=""display: flex; justify-content: center; align-items: center;"">
                     <img src=""images/causal/causal_series_1/causal_series_1_d.png"" style=""width: 300px; height: 300px;"" />
                   </div>","null","1","1","D","",""
"","","","","","survey-likert","122","951354","0.0-92.0","1785A107E1FE41A5964212696685C120","0199d676-57c9-7422-b19b-09a988607609","0199d675-8795-765b-adc2-c813de8cd3d1","","3367","","{""Q0"":2}","1","1","surprise_rating","","[0]"
"","","","","","survey-likert","123","952537","0.0-93.0","1785A107E1FE41A5964212696685C120","0199d676-57c9-7422-b19b-09a988607609","0199d675-8795-765b-adc2-c813de8cd3d1","","1180","","{""Q0"":2}","1","1","enjoyment_rating","","[0]"
"","","","","","html-keyboard-response","124","958546","0.0-94.0","1785A107E1FE41A5964212696685C120","0199d676-57c9-7422-b19b-09a988607609","0199d675-8795-765b-adc2-c813de8cd3d1","","null","<div style=""display: flex; justify-content: center; align-items: center;"">
                     <img src=""images/other/blank.png"" style=""width: 300px; height: 300px;"" />
                   </div>","null","0","0","blank","",""
"","","","","","html-keyboard-response","125","964555","0.0-95.0","1785A107E1FE41A5964212696685C120","0199d676-57c9-7422-b19b-09a988607609","0199d675-8795-765b-adc2-c813de8cd3d1","","null","<div style=""display: flex; justify-content: center; align-items: center;"">
                     <img src=""images/causal/causal_series_6/causal_series_6_a.png"" style=""width: 300px; height: 300px;"" />
                   </div>","null","6","1","A","",""
"","","","","","html-button-response","126","966835","0.0-96.0","1785A107E1FE41A5964212696685C120","0199d676-57c9-7422-b19b-09a988607609","0199d675-8795-765b-adc2-c813de8cd3d1","","2278","
        <div style=""display: flex; justify-content: center; align-items: center;"">
          <img src=""images/red_deck_2.png"" style=""width: 300px; height: 300px; margin-right: 10px;"" />
          <img src=""images/blue_deck_1.png"" style=""width: 300px; height: 300px;"" />
        </div>","0","6","1","choice","0",""
"","","","","","html-keyboard-response","127","972853","0.0-97.0-0.0-0.0","1785A107E1FE41A5964212696685C120","0199d676-57c9-7422-b19b-09a988607609","0199d675-8795-765b-adc2-c813de8cd3d1","","null","<div style=""display: flex; justify-content: center; align-items: center;"">
                     <img src=""images/causal/causal_series_6/causal_series_6_b.png"" style=""width: 300px; height: 300px;"" />
                   </div>","null","6","1","B","",""
"","","","","","html-keyboard-response","128","978867","0.0-97.0-0.0-1.0","1785A107E1FE41A5964212696685C120","0199d676-57c9-7422-b19b-09a988607609","0199d675-8795-765b-adc2-c813de8cd3d1","","null","<div style=""display: flex; justify-content: center; align-items: center;"">
                     <img src=""images/causal/causal_series_6/causal_series_6_c.png"" style=""width: 300px; height: 300px;"" />
                   </div>","null","6","1","C","",""
"","","","","","html-keyboard-response","129","984870","0.0-97.0-0.0-2.0","1785A107E1FE41A5964212696685C120","0199d676-57c9-7422-b19b-09a988607609","0199d675-8795-765b-adc2-c813de8cd3d1","","null","<div style=""display: flex; justify-content: center; align-items: center;"">
                     <img src=""images/causal/causal_series_6/causal_series_6_d.png"" style=""width: 300px; height: 300px;"" />
                   </div>","null","6","1","D","",""
"","","","","","survey-likert","130","988330","0.0-98.0","1785A107E1FE41A5964212696685C120","0199d676-57c9-7422-b19b-09a988607609","0199d675-8795-765b-adc2-c813de8cd3d1","","3458","","{""Q0"":0}","6","1","surprise_rating","","[0]"
"","","","","","survey-likert","131","989665","0.0-99.0","1785A107E1FE41A5964212696685C120","0199d676-57c9-7422-b19b-09a988607609","0199d675-8795-765b-adc2-c813de8cd3d1","","1334","","{""Q0"":0}","6","1","enjoyment_rating","","[0]"
"","","","","","html-keyboard-response","132","995674","0.0-100.0","1785A107E1FE41A5964212696685C120","0199d676-57c9-7422-b19b-09a988607609","0199d675-8795-765b-adc2-c813de8cd3d1","","null","<div style=""display: flex; justify-content: center; align-items: center;"">
                     <img src=""images/other/blank.png"" style=""width: 300px; height: 300px;"" />
                   </div>","null","0","0","blank","",""
"","","","","","html-keyboard-response","133","1001688","0.0-101.0","1785A107E1FE41A5964212696685C120","0199d676-57c9-7422-b19b-09a988607609","0199d675-8795-765b-adc2-c813de8cd3d1","","null","<div style=""display: flex; justify-content: center; align-items: center;"">
                     <img src=""images/causal/causal_series_5/causal_series_5_a.png"" style=""width: 300px; height: 300px;"" />
                   </div>","null","5","2","A","",""
"","","","","","html-button-response","134","1004134","0.0-102.0","1785A107E1FE41A5964212696685C120","0199d676-57c9-7422-b19b-09a988607609","0199d675-8795-765b-adc2-c813de8cd3d1","","2445","
        <div style=""display: flex; justify-content: center; align-items: center;"">
          <img src=""images/red_deck_2.png"" style=""width: 300px; height: 300px; margin-right: 10px;"" />
          <img src=""images/blue_deck_1.png"" style=""width: 300px; height: 300px;"" />
        </div>","0","5","2","choice","0",""
"","","","","","html-keyboard-response","135","1010144","0.0-103.0-0.0-0.0","1785A107E1FE41A5964212696685C120","0199d676-57c9-7422-b19b-09a988607609","0199d675-8795-765b-adc2-c813de8cd3d1","","null","<div style=""display: flex; justify-content: center; align-items: center;"">
                     <img src=""images/causal/causal_series_5/causal_series_5_b.png"" style=""width: 300px; height: 300px;"" />
                   </div>","null","5","2","B","",""
"","","","","","html-keyboard-response","136","1016148","0.0-103.0-0.0-1.0","1785A107E1FE41A5964212696685C120","0199d676-57c9-7422-b19b-09a988607609","0199d675-8795-765b-adc2-c813de8cd3d1","","null","<div style=""display: flex; justify-content: center; align-items: center;"">
                     <img src=""images/causal/causal_series_5/causal_series_5_c.png"" style=""width: 300px; height: 300px;"" />
                   </div>","null","5","2","C","",""
"","","","","","html-keyboard-response","137","1022150","0.0-103.0-0.0-2.0","1785A107E1FE41A5964212696685C120","0199d676-57c9-7422-b19b-09a988607609","0199d675-8795-765b-adc2-c813de8cd3d1","","null","<div style=""display: flex; justify-content: center; align-items: center;"">
                     <img src=""images/causal/causal_series_5/causal_series_5_d.png"" style=""width: 300px; height: 300px;"" />
                   </div>","null","5","2","D","",""
"","","","","","survey-likert","138","1024572","0.0-104.0","1785A107E1FE41A5964212696685C120","0199d676-57c9-7422-b19b-09a988607609","0199d675-8795-765b-adc2-c813de8cd3d1","","2420","","{""Q0"":0}","5","2","surprise_rating","","[0]"
"","","","","","survey-likert","139","1027001","0.0-105.0","1785A107E1FE41A5964212696685C120","0199d676-57c9-7422-b19b-09a988607609","0199d675-8795-765b-adc2-c813de8cd3d1","","2428","","{""Q0"":0}","5","2","enjoyment_rating","","[0]"
"","","","","","html-keyboard-response","140","1033010","0.0-106.0","1785A107E1FE41A5964212696685C120","0199d676-57c9-7422-b19b-09a988607609","0199d675-8795-765b-adc2-c813de8cd3d1","","null","<div style=""display: flex; justify-content: center; align-items: center;"">
                     <img src=""images/other/blank.png"" style=""width: 300px; height: 300px;"" />
                   </div>","null","0","0","blank","",""
"","","","","","html-keyboard-response","141","1039025","0.0-107.0","1785A107E1FE41A5964212696685C120","0199d676-57c9-7422-b19b-09a988607609","0199d675-8795-765b-adc2-c813de8cd3d1","","null","<div style=""display: flex; justify-content: center; align-items: center;"">
                     <img src=""images/causal/causal_series_3/causal_series_3_a.png"" style=""width: 300px; height: 300px;"" />
                   </div>","null","3","2","A","",""
"","","","","","html-button-response","142","1049303","0.0-108.0","1785A107E1FE41A5964212696685C120","0199d676-57c9-7422-b19b-09a988607609","0199d675-8795-765b-adc2-c813de8cd3d1","","10275","
        <div style=""display: flex; justify-content: center; align-items: center;"">
          <img src=""images/red_deck_2.png"" style=""width: 300px; height: 300px; margin-right: 10px;"" />
          <img src=""images/blue_deck_1.png"" style=""width: 300px; height: 300px;"" />
        </div>","0","3","2","choice","0",""
"","","","","","html-keyboard-response","143","1055309","0.0-109.0-0.0-0.0","1785A107E1FE41A5964212696685C120","0199d676-57c9-7422-b19b-09a988607609","0199d675-8795-765b-adc2-c813de8cd3d1","","null","<div style=""display: flex; justify-content: center; align-items: center;"">
                     <img src=""images/causal/causal_series_3/causal_series_3_b.png"" style=""width: 300px; height: 300px;"" />
                   </div>","null","3","2","B","",""
"","","","","","html-keyboard-response","144","1061326","0.0-109.0-0.0-1.0","1785A107E1FE41A5964212696685C120","0199d676-57c9-7422-b19b-09a988607609","0199d675-8795-765b-adc2-c813de8cd3d1","","null","<div style=""display: flex; justify-content: center; align-items: center;"">
                     <img src=""images/causal/causal_series_3/causal_series_3_c.png"" style=""width: 300px; height: 300px;"" />
                   </div>","null","3","2","C","",""
"","","","","","html-keyboard-response","145","1067342","0.0-109.0-0.0-2.0","1785A107E1FE41A5964212696685C120","0199d676-57c9-7422-b19b-09a988607609","0199d675-8795-765b-adc2-c813de8cd3d1","","null","<div style=""display: flex; justify-content: center; align-items: center;"">
                     <img src=""images/causal/causal_series_3/causal_series_3_d.png"" style=""width: 300px; height: 300px;"" />
                   </div>","null","3","2","D","",""
"","","","","","survey-likert","146","1112093","0.0-110.0","1785A107E1FE41A5964212696685C120","0199d676-57c9-7422-b19b-09a988607609","0199d675-8795-765b-adc2-c813de8cd3d1","","44748","","{""Q0"":0}","3","2","surprise_rating","","[0]"
"","","","","","survey-likert","147","1114471","0.0-111.0","1785A107E1FE41A5964212696685C120","0199d676-57c9-7422-b19b-09a988607609","0199d675-8795-765b-adc2-c813de8cd3d1","","2376","","{""Q0"":0}","3","2","enjoyment_rating","","[0]"
"","","","","","html-keyboard-response","148","1120483","0.0-112.0","1785A107E1FE41A5964212696685C120","0199d676-57c9-7422-b19b-09a988607609","0199d675-8795-765b-adc2-c813de8cd3d1","","null","<div style=""display: flex; justify-content: center; align-items: center;"">
                     <img src=""images/other/blank.png"" style=""width: 300px; height: 300px;"" />
                   </div>","null","0","0","blank","",""
"","","","","","html-keyboard-response","149","1126494","0.0-113.0","1785A107E1FE41A5964212696685C120","0199d676-57c9-7422-b19b-09a988607609","0199d675-8795-765b-adc2-c813de8cd3d1","","null","<div style=""display: flex; justify-content: center; align-items: center;"">
                     <img src=""images/causal/causal_series_2/causal_series_2_a.png"" style=""width: 300px; height: 300px;"" />
                   </div>","null","2","1","A","",""
"","","","","","html-button-response","150","1228015","0.0-114.0","1785A107E1FE41A5964212696685C120","0199d676-57c9-7422-b19b-09a988607609","0199d675-8795-765b-adc2-c813de8cd3d1","","101518","
        <div style=""display: flex; justify-content: center; align-items: center;"">
          <img src=""images/red_deck_2.png"" style=""width: 300px; height: 300px; margin-right: 10px;"" />
          <img src=""images/blue_deck_1.png"" style=""width: 300px; height: 300px;"" />
        </div>","0","2","1","choice","0",""
"","","","","","html-keyboard-response","151","1234029","0.0-115.0-0.0-0.0","1785A107E1FE41A5964212696685C120","0199d676-57c9-7422-b19b-09a988607609","0199d675-8795-765b-adc2-c813de8cd3d1","","null","<div style=""display: flex; justify-content: center; align-items: center;"">
                     <img src=""images/causal/causal_series_2/causal_series_2_b.png"" style=""width: 300px; height: 300px;"" />
                   </div>","null","2","1","B","",""
"","","","","","html-keyboard-response","152","1240040","0.0-115.0-0.0-1.0","1785A107E1FE41A5964212696685C120","0199d676-57c9-7422-b19b-09a988607609","0199d675-8795-765b-adc2-c813de8cd3d1","","null","<div style=""display: flex; justify-content: center; align-items: center;"">
                     <img src=""images/causal/causal_series_2/causal_series_2_c.png"" style=""width: 300px; height: 300px;"" />
                   </div>","null","2","1","C","",""
"","","","","","html-keyboard-response","153","1246053","0.0-115.0-0.0-2.0","1785A107E1FE41A5964212696685C120","0199d676-57c9-7422-b19b-09a988607609","0199d675-8795-765b-adc2-c813de8cd3d1","","null","<div style=""display: flex; justify-content: center; align-items: center;"">
                     <img src=""images/causal/causal_series_2/causal_series_2_d.png"" style=""width: 300px; height: 300px;"" />
                   </div>","null","2","1","D","",""
"","","","","","survey-likert","154","1254663","0.0-116.0","1785A107E1FE41A5964212696685C120","0199d676-57c9-7422-b19b-09a988607609","0199d675-8795-765b-adc2-c813de8cd3d1","","8608","","{""Q0"":2}","2","1","surprise_rating","","[0]"
"","","","","","survey-likert","155","1256118","0.0-117.0","1785A107E1FE41A5964212696685C120","0199d676-57c9-7422-b19b-09a988607609","0199d675-8795-765b-adc2-c813de8cd3d1","","1452","","{""Q0"":2}","2","1","enjoyment_rating","","[0]"
"","","","","","html-keyboard-response","156","1262134","0.0-118.0","1785A107E1FE41A5964212696685C120","0199d676-57c9-7422-b19b-09a988607609","0199d675-8795-765b-adc2-c813de8cd3d1","","null","<div style=""display: flex; justify-content: center; align-items: center;"">
                     <img src=""images/other/blank.png"" style=""width: 300px; height: 300px;"" />
                   </div>","null","0","0","blank","",""
"","","","","","html-keyboard-response","157","1268151","0.0-119.0","1785A107E1FE41A5964212696685C120","0199d676-57c9-7422-b19b-09a988607609","0199d675-8795-765b-adc2-c813de8cd3d1","","null","<div style=""display: flex; justify-content: center; align-items: center;"">
                     <img src=""images/causal/causal_series_9/causal_series_9_a.png"" style=""width: 300px; height: 300px;"" />
                   </div>","null","9","1","A","",""
"","","","","","html-button-response","158","1271445","0.0-120.0","1785A107E1FE41A5964212696685C120","0199d676-57c9-7422-b19b-09a988607609","0199d675-8795-765b-adc2-c813de8cd3d1","","3291","
        <div style=""display: flex; justify-content: center; align-items: center;"">
          <img src=""images/red_deck_2.png"" style=""width: 300px; height: 300px; margin-right: 10px;"" />
          <img src=""images/blue_deck_1.png"" style=""width: 300px; height: 300px;"" />
        </div>","0","9","1","choice","0",""
"","","","","","html-keyboard-response","159","1277453","0.0-121.0-0.0-0.0","1785A107E1FE41A5964212696685C120","0199d676-57c9-7422-b19b-09a988607609","0199d675-8795-765b-adc2-c813de8cd3d1","","null","<div style=""display: flex; justify-content: center; align-items: center;"">
                     <img src=""images/causal/causal_series_9/causal_series_9_b.png"" style=""width: 300px; height: 300px;"" />
                   </div>","null","9","1","B","",""
"","","","","","html-keyboard-response","160","1283462","0.0-121.0-0.0-1.0","1785A107E1FE41A5964212696685C120","0199d676-57c9-7422-b19b-09a988607609","0199d675-8795-765b-adc2-c813de8cd3d1","","null","<div style=""display: flex; justify-content: center; align-items: center;"">
                     <img src=""images/causal/causal_series_9/causal_series_9_c.png"" style=""width: 300px; height: 300px;"" />
                   </div>","null","9","1","C","",""
"","","","","","html-keyboard-response","161","1289467","0.0-121.0-0.0-2.0","1785A107E1FE41A5964212696685C120","0199d676-57c9-7422-b19b-09a988607609","0199d675-8795-765b-adc2-c813de8cd3d1","","null","<div style=""display: flex; justify-content: center; align-items: center;"">
                     <img src=""images/causal/causal_series_9/causal_series_9_d.png"" style=""width: 300px; height: 300px;"" />
                   </div>","null","9","1","D","",""
"","","","","","survey-likert","162","1294918","0.0-122.0","1785A107E1FE41A5964212696685C120","0199d676-57c9-7422-b19b-09a988607609","0199d675-8795-765b-adc2-c813de8cd3d1","","5448","","{""Q0"":4}","9","1","surprise_rating","","[0]"
"","","","","","survey-likert","163","1296374","0.0-123.0","1785A107E1FE41A5964212696685C120","0199d676-57c9-7422-b19b-09a988607609","0199d675-8795-765b-adc2-c813de8cd3d1","","1454","","{""Q0"":4}","9","1","enjoyment_rating","","[0]"
"","","","","","html-keyboard-response","164","1302386","0.0-124.0","1785A107E1FE41A5964212696685C120","0199d676-57c9-7422-b19b-09a988607609","0199d675-8795-765b-adc2-c813de8cd3d1","","null","<div style=""display: flex; justify-content: center; align-items: center;"">
                     <img src=""images/other/blank.png"" style=""width: 300px; height: 300px;"" />
                   </div>","null","0","0","blank","",""
"","","","","","survey-text","165","1346238","0.0-125.0","1785A107E1FE41A5964212696685C120","0199d676-57c9-7422-b19b-09a988607609","0199d675-8795-765b-adc2-c813de8cd3d1","","43803","","{""Q0"":""one was a story ""}","","","","",""
"","","","","","html-button-response","166","1357735","0.0-126.0","1785A107E1FE41A5964212696685C120","0199d676-57c9-7422-b19b-09a988607609","0199d675-8795-765b-adc2-c813de8cd3d1","","11491","Which color deck do the following sentences continue the story from?","0","","","","",""
"","","","","","html-button-response","167","1361012","0.0-127.0","1785A107E1FE41A5964212696685C120","0199d676-57c9-7422-b19b-09a988607609","0199d675-8795-765b-adc2-c813de8cd3d1","","3274","Which color deck do the following sentences NOT follow the story from?","1","","","","",""
"","","","","","html-button-response","168","1364399","0.0-128.0","1785A107E1FE41A5964212696685C120","0199d676-57c9-7422-b19b-09a988607609","0199d675-8795-765b-adc2-c813de8cd3d1","","3386","Which type of deck did you prefer overall?","1","","","","",""
"","","","","","survey-text","169","1373843","0.0-129.0","1785A107E1FE41A5964212696685C120","0199d676-57c9-7422-b19b-09a988607609","0199d675-8795-765b-adc2-c813de8cd3d1","","9437","","{""Q0"":""female"",""Q1"":""29""}","","","","",""
"","","","","","instructions","170","1379169","0.0-130.0","1785A107E1FE41A5964212696685C120","0199d676-57c9-7422-b19b-09a988607609","0199d675-8795-765b-adc2-c813de8cd3d1","[{""page_index"":0,""viewing_time"":5317}]","5318","","","","","","",""
