"success","timeout","failed_images","failed_audio","failed_video","trial_type","trial_index","time_elapsed","internal_node_id","subject_id","study_id","session_id","view_history","rt","stimulus","response","phase","choice","question_order"
"true","false","[]","[]","[]","preload","0","1028","0.0-0.0","B352FC63872444C6A4A7FD19353A1427","019a50d5-9d48-7d49-a746-f0147b146599","019a50cf-ba5d-7779-b88c-2ff4a321cee9","","","","","","",""
"","","","","","instructions","1","44043","0.0-1.0","B352FC63872444C6A4A7FD19353A1427","019a50d5-9d48-7d49-a746-f0147b146599","019a50cf-ba5d-7779-b88c-2ff4a321cee9","[{""page_index"":0,""viewing_time"":43014}]","43014","","","","",""
"","","","","","instructions","2","225119","0.0-2.0","B352FC63872444C6A4A7FD19353A1427","019a50d5-9d48-7d49-a746-f0147b146599","019a50cf-ba5d-7779-b88c-2ff4a321cee9","[{""page_index"":0,""viewing_time"":181077}]","181077","","","","",""
"true","","","","","fullscreen","3","235704","0.0-3.0","B352FC63872444C6A4A7FD19353A1427","019a50d5-9d48-7d49-a746-f0147b146599","019a50cf-ba5d-7779-b88c-2ff4a321cee9","","9584","","","","",""
"","","","","","instructions","4","570030","0.0-4.0","B352FC63872444C6A4A7FD19353A1427","019a50d5-9d48-7d49-a746-f0147b146599","019a50cf-ba5d-7779-b88c-2ff4a321cee9","[{""page_index"":0,""viewing_time"":334326}]","334326","","","","",""
"","","","","","html-button-response","5","571401","0.0-5.0-0.0","B352FC63872444C6A4A7FD19353A1427","019a50d5-9d48-7d49-a746-f0147b146599","019a50cf-ba5d-7779-b88c-2ff4a321cee9","","1369","
        <div style=""display: flex; justify-content: center; align-items: center;"">
          <img src=""images/red_deck_2.png"" style=""width: 300px; height: 300px; margin-right: 10px;"" />
          <img src=""images/blue_deck_1.png"" style=""width: 300px; height: 300px;"" />
        </div>","1","deck_choice","1",""
"","","","","","html-keyboard-response","6","583410","0.0-5.0-1.0-1.0-0.0","B352FC63872444C6A4A7FD19353A1427","019a50d5-9d48-7d49-a746-f0147b146599","019a50cf-ba5d-7779-b88c-2ff4a321cee9","","null","<div style=""display: flex; justify-content: center; align-items: center;"">
                     <img src=""images/semantic/semantic_series_7/semantic_series_7_a.png"" style=""width: 300px; height: 300px;"" />
                   </div>","null","semantic_a","",""
"","","","","","survey-likert","7","591259","0.0-5.0-2.0","B352FC63872444C6A4A7FD19353A1427","019a50d5-9d48-7d49-a746-f0147b146599","019a50cf-ba5d-7779-b88c-2ff4a321cee9","","7848","","{""Q0"":3}","surprise_rating","","[0]"
"","","","","","survey-likert","8","594301","0.0-5.0-3.0","B352FC63872444C6A4A7FD19353A1427","019a50d5-9d48-7d49-a746-f0147b146599","019a50cf-ba5d-7779-b88c-2ff4a321cee9","","3042","","{""Q0"":3}","enjoyment_rating","","[0]"
"","","","","","html-button-response","9","595733","0.0-6.0-0.0","B352FC63872444C6A4A7FD19353A1427","019a50d5-9d48-7d49-a746-f0147b146599","019a50cf-ba5d-7779-b88c-2ff4a321cee9","","1431","
        <div style=""display: flex; justify-content: center; align-items: center;"">
          <img src=""images/red_deck_2.png"" style=""width: 300px; height: 300px; margin-right: 10px;"" />
          <img src=""images/blue_deck_1.png"" style=""width: 300px; height: 300px;"" />
        </div>","0","deck_choice","0",""
"","","","","","html-keyboard-response","10","601735","0.0-6.0-1.0-0.0-0.0","B352FC63872444C6A4A7FD19353A1427","019a50d5-9d48-7d49-a746-f0147b146599","019a50cf-ba5d-7779-b88c-2ff4a321cee9","","null","<div style=""display: flex; justify-content: center; align-items: center;"">
                     <img src=""images/causal/causal_series_2/causal_series_2_a.png"" style=""width: 300px; height: 300px;"" />
                   </div>","null","causal_a","",""
"","","","","","html-keyboard-response","11","607751","0.0-6.0-1.0-0.0-1.0","B352FC63872444C6A4A7FD19353A1427","019a50d5-9d48-7d49-a746-f0147b146599","019a50cf-ba5d-7779-b88c-2ff4a321cee9","","null","<div style=""display: flex; justify-content: center; align-items: center;"">
                     <img src=""images/causal/causal_series_2/causal_series_2_b.png"" style=""width: 300px; height: 300px;"" />
                   </div>","null","causal_b","",""
"","","","","","survey-likert","12","613506","0.0-6.0-2.0","B352FC63872444C6A4A7FD19353A1427","019a50d5-9d48-7d49-a746-f0147b146599","019a50cf-ba5d-7779-b88c-2ff4a321cee9","","5755","","{""Q0"":2}","surprise_rating","","[0]"
"","","","","","survey-likert","13","615836","0.0-6.0-3.0","B352FC63872444C6A4A7FD19353A1427","019a50d5-9d48-7d49-a746-f0147b146599","019a50cf-ba5d-7779-b88c-2ff4a321cee9","","2329","","{""Q0"":2}","enjoyment_rating","","[0]"
"","","","","","html-button-response","14","616648","0.0-7.0-0.0","B352FC63872444C6A4A7FD19353A1427","019a50d5-9d48-7d49-a746-f0147b146599","019a50cf-ba5d-7779-b88c-2ff4a321cee9","","812","
        <div style=""display: flex; justify-content: center; align-items: center;"">
          <img src=""images/red_deck_2.png"" style=""width: 300px; height: 300px; margin-right: 10px;"" />
          <img src=""images/blue_deck_1.png"" style=""width: 300px; height: 300px;"" />
        </div>","1","deck_choice","1",""
"","","","","","html-keyboard-response","15","628654","0.0-7.0-1.0-1.0-0.0","B352FC63872444C6A4A7FD19353A1427","019a50d5-9d48-7d49-a746-f0147b146599","019a50cf-ba5d-7779-b88c-2ff4a321cee9","","null","<div style=""display: flex; justify-content: center; align-items: center;"">
                     <img src=""images/semantic/semantic_series_3/semantic_series_3_a.png"" style=""width: 300px; height: 300px;"" />
                   </div>","null","semantic_a","",""
"","","","","","survey-likert","16","631386","0.0-7.0-2.0","B352FC63872444C6A4A7FD19353A1427","019a50d5-9d48-7d49-a746-f0147b146599","019a50cf-ba5d-7779-b88c-2ff4a321cee9","","2732","","{""Q0"":0}","surprise_rating","","[0]"
"","","","","","survey-likert","17","634426","0.0-7.0-3.0","B352FC63872444C6A4A7FD19353A1427","019a50d5-9d48-7d49-a746-f0147b146599","019a50cf-ba5d-7779-b88c-2ff4a321cee9","","3040","","{""Q0"":4}","enjoyment_rating","","[0]"
"","","","","","html-button-response","18","635866","0.0-8.0-0.0","B352FC63872444C6A4A7FD19353A1427","019a50d5-9d48-7d49-a746-f0147b146599","019a50cf-ba5d-7779-b88c-2ff4a321cee9","","1439","
        <div style=""display: flex; justify-content: center; align-items: center;"">
          <img src=""images/red_deck_2.png"" style=""width: 300px; height: 300px; margin-right: 10px;"" />
          <img src=""images/blue_deck_1.png"" style=""width: 300px; height: 300px;"" />
        </div>","1","deck_choice","1",""
"","","","","","html-keyboard-response","19","647870","0.0-8.0-1.0-1.0-0.0","B352FC63872444C6A4A7FD19353A1427","019a50d5-9d48-7d49-a746-f0147b146599","019a50cf-ba5d-7779-b88c-2ff4a321cee9","","null","<div style=""display: flex; justify-content: center; align-items: center;"">
                     <img src=""images/semantic/semantic_series_4/semantic_series_4_a.png"" style=""width: 300px; height: 300px;"" />
                   </div>","null","semantic_a","",""
"","","","","","survey-likert","20","652255","0.0-8.0-2.0","B352FC63872444C6A4A7FD19353A1427","019a50d5-9d48-7d49-a746-f0147b146599","019a50cf-ba5d-7779-b88c-2ff4a321cee9","","4385","","{""Q0"":1}","surprise_rating","","[0]"
"","","","","","survey-likert","21","653639","0.0-8.0-3.0","B352FC63872444C6A4A7FD19353A1427","019a50d5-9d48-7d49-a746-f0147b146599","019a50cf-ba5d-7779-b88c-2ff4a321cee9","","1384","","{""Q0"":3}","enjoyment_rating","","[0]"
"","","","","","html-button-response","22","654784","0.0-9.0-0.0","B352FC63872444C6A4A7FD19353A1427","019a50d5-9d48-7d49-a746-f0147b146599","019a50cf-ba5d-7779-b88c-2ff4a321cee9","","1145","
        <div style=""display: flex; justify-content: center; align-items: center;"">
          <img src=""images/red_deck_2.png"" style=""width: 300px; height: 300px; margin-right: 10px;"" />
          <img src=""images/blue_deck_1.png"" style=""width: 300px; height: 300px;"" />
        </div>","0","deck_choice","0",""
"","","","","","html-keyboard-response","23","660789","0.0-9.0-1.0-0.0-0.0","B352FC63872444C6A4A7FD19353A1427","019a50d5-9d48-7d49-a746-f0147b146599","019a50cf-ba5d-7779-b88c-2ff4a321cee9","","null","<div style=""display: flex; justify-content: center; align-items: center;"">
                     <img src=""images/causal/causal_series_5/causal_series_5_a.png"" style=""width: 300px; height: 300px;"" />
                   </div>","null","causal_a","",""
"","","","","","html-keyboard-response","24","666791","0.0-9.0-1.0-0.0-1.0","B352FC63872444C6A4A7FD19353A1427","019a50d5-9d48-7d49-a746-f0147b146599","019a50cf-ba5d-7779-b88c-2ff4a321cee9","","null","<div style=""display: flex; justify-content: center; align-items: center;"">
                     <img src=""images/causal/causal_series_5/causal_series_5_b.png"" style=""width: 300px; height: 300px;"" />
                   </div>","null","causal_b","",""
"","","","","","survey-likert","25","668377","0.0-9.0-2.0","B352FC63872444C6A4A7FD19353A1427","019a50d5-9d48-7d49-a746-f0147b146599","019a50cf-ba5d-7779-b88c-2ff4a321cee9","","1586","","{""Q0"":0}","surprise_rating","","[0]"
"","","","","","survey-likert","26","670089","0.0-9.0-3.0","B352FC63872444C6A4A7FD19353A1427","019a50d5-9d48-7d49-a746-f0147b146599","019a50cf-ba5d-7779-b88c-2ff4a321cee9","","1711","","{""Q0"":4}","enjoyment_rating","","[0]"
"","","","","","html-button-response","27","670955","0.0-10.0-0.0","B352FC63872444C6A4A7FD19353A1427","019a50d5-9d48-7d49-a746-f0147b146599","019a50cf-ba5d-7779-b88c-2ff4a321cee9","","866","
        <div style=""display: flex; justify-content: center; align-items: center;"">
          <img src=""images/red_deck_2.png"" style=""width: 300px; height: 300px; margin-right: 10px;"" />
          <img src=""images/blue_deck_1.png"" style=""width: 300px; height: 300px;"" />
        </div>","0","deck_choice","0",""
"","","","","","html-keyboard-response","28","676958","0.0-10.0-1.0-0.0-0.0","B352FC63872444C6A4A7FD19353A1427","019a50d5-9d48-7d49-a746-f0147b146599","019a50cf-ba5d-7779-b88c-2ff4a321cee9","","null","<div style=""display: flex; justify-content: center; align-items: center;"">
                     <img src=""images/causal/causal_series_9/causal_series_9_a.png"" style=""width: 300px; height: 300px;"" />
                   </div>","null","causal_a","",""
"","","","","","html-keyboard-response","29","682971","0.0-10.0-1.0-0.0-1.0","B352FC63872444C6A4A7FD19353A1427","019a50d5-9d48-7d49-a746-f0147b146599","019a50cf-ba5d-7779-b88c-2ff4a321cee9","","null","<div style=""display: flex; justify-content: center; align-items: center;"">
                     <img src=""images/causal/causal_series_9/causal_series_9_b.png"" style=""width: 300px; height: 300px;"" />
                   </div>","null","causal_b","",""
"","","","","","survey-likert","30","686370","0.0-10.0-2.0","B352FC63872444C6A4A7FD19353A1427","019a50d5-9d48-7d49-a746-f0147b146599","019a50cf-ba5d-7779-b88c-2ff4a321cee9","","3399","","{""Q0"":1}","surprise_rating","","[0]"
"","","","","","survey-likert","31","688800","0.0-10.0-3.0","B352FC63872444C6A4A7FD19353A1427","019a50d5-9d48-7d49-a746-f0147b146599","019a50cf-ba5d-7779-b88c-2ff4a321cee9","","2430","","{""Q0"":4}","enjoyment_rating","","[0]"
"","","","","","html-button-response","32","689782","0.0-11.0-0.0","B352FC63872444C6A4A7FD19353A1427","019a50d5-9d48-7d49-a746-f0147b146599","019a50cf-ba5d-7779-b88c-2ff4a321cee9","","981","
        <div style=""display: flex; justify-content: center; align-items: center;"">
          <img src=""images/red_deck_2.png"" style=""width: 300px; height: 300px; margin-right: 10px;"" />
          <img src=""images/blue_deck_1.png"" style=""width: 300px; height: 300px;"" />
        </div>","0","deck_choice","0",""
"","","","","","html-keyboard-response","33","695796","0.0-11.0-1.0-0.0-0.0","B352FC63872444C6A4A7FD19353A1427","019a50d5-9d48-7d49-a746-f0147b146599","019a50cf-ba5d-7779-b88c-2ff4a321cee9","","null","<div style=""display: flex; justify-content: center; align-items: center;"">
                     <img src=""images/causal/causal_series_6/causal_series_6_a.png"" style=""width: 300px; height: 300px;"" />
                   </div>","null","causal_a","",""
"","","","","","html-keyboard-response","34","701801","0.0-11.0-1.0-0.0-1.0","B352FC63872444C6A4A7FD19353A1427","019a50d5-9d48-7d49-a746-f0147b146599","019a50cf-ba5d-7779-b88c-2ff4a321cee9","","null","<div style=""display: flex; justify-content: center; align-items: center;"">
                     <img src=""images/causal/causal_series_6/causal_series_6_b.png"" style=""width: 300px; height: 300px;"" />
                   </div>","null","causal_b","",""
"","","","","","survey-likert","35","708112","0.0-11.0-2.0","B352FC63872444C6A4A7FD19353A1427","019a50d5-9d48-7d49-a746-f0147b146599","019a50cf-ba5d-7779-b88c-2ff4a321cee9","","6311","","{""Q0"":3}","surprise_rating","","[0]"
"","","","","","survey-likert","36","710000","0.0-11.0-3.0","B352FC63872444C6A4A7FD19353A1427","019a50d5-9d48-7d49-a746-f0147b146599","019a50cf-ba5d-7779-b88c-2ff4a321cee9","","1887","","{""Q0"":4}","enjoyment_rating","","[0]"
"","","","","","html-button-response","37","710976","0.0-12.0-0.0","B352FC63872444C6A4A7FD19353A1427","019a50d5-9d48-7d49-a746-f0147b146599","019a50cf-ba5d-7779-b88c-2ff4a321cee9","","976","
        <div style=""display: flex; justify-content: center; align-items: center;"">
          <img src=""images/red_deck_2.png"" style=""width: 300px; height: 300px; margin-right: 10px;"" />
          <img src=""images/blue_deck_1.png"" style=""width: 300px; height: 300px;"" />
        </div>","1","deck_choice","1",""
"","","","","","html-keyboard-response","38","722990","0.0-12.0-1.0-1.0-0.0","B352FC63872444C6A4A7FD19353A1427","019a50d5-9d48-7d49-a746-f0147b146599","019a50cf-ba5d-7779-b88c-2ff4a321cee9","","null","<div style=""display: flex; justify-content: center; align-items: center;"">
                     <img src=""images/semantic/semantic_series_10/semantic_series_10_a.png"" style=""width: 300px; height: 300px;"" />
                   </div>","null","semantic_a","",""
"","","","","","survey-likert","39","727642","0.0-12.0-2.0","B352FC63872444C6A4A7FD19353A1427","019a50d5-9d48-7d49-a746-f0147b146599","019a50cf-ba5d-7779-b88c-2ff4a321cee9","","4652","","{""Q0"":0}","surprise_rating","","[0]"
"","","","","","survey-likert","40","729129","0.0-12.0-3.0","B352FC63872444C6A4A7FD19353A1427","019a50d5-9d48-7d49-a746-f0147b146599","019a50cf-ba5d-7779-b88c-2ff4a321cee9","","1486","","{""Q0"":4}","enjoyment_rating","","[0]"
"","","","","","html-button-response","41","730329","0.0-13.0-0.0","B352FC63872444C6A4A7FD19353A1427","019a50d5-9d48-7d49-a746-f0147b146599","019a50cf-ba5d-7779-b88c-2ff4a321cee9","","1199","
        <div style=""display: flex; justify-content: center; align-items: center;"">
          <img src=""images/red_deck_2.png"" style=""width: 300px; height: 300px; margin-right: 10px;"" />
          <img src=""images/blue_deck_1.png"" style=""width: 300px; height: 300px;"" />
        </div>","0","deck_choice","0",""
"","","","","","html-keyboard-response","42","736332","0.0-13.0-1.0-0.0-0.0","B352FC63872444C6A4A7FD19353A1427","019a50d5-9d48-7d49-a746-f0147b146599","019a50cf-ba5d-7779-b88c-2ff4a321cee9","","null","<div style=""display: flex; justify-content: center; align-items: center;"">
                     <img src=""images/causal/causal_series_1/causal_series_1_a.png"" style=""width: 300px; height: 300px;"" />
                   </div>","null","causal_a","",""
"","","","","","html-keyboard-response","43","742334","0.0-13.0-1.0-0.0-1.0","B352FC63872444C6A4A7FD19353A1427","019a50d5-9d48-7d49-a746-f0147b146599","019a50cf-ba5d-7779-b88c-2ff4a321cee9","","null","<div style=""display: flex; justify-content: center; align-items: center;"">
                     <img src=""images/causal/causal_series_1/causal_series_1_b.png"" style=""width: 300px; height: 300px;"" />
                   </div>","null","causal_b","",""
"","","","","","survey-likert","44","744201","0.0-13.0-2.0","B352FC63872444C6A4A7FD19353A1427","019a50d5-9d48-7d49-a746-f0147b146599","019a50cf-ba5d-7779-b88c-2ff4a321cee9","","1867","","{""Q0"":0}","surprise_rating","","[0]"
"","","","","","survey-likert","45","746127","0.0-13.0-3.0","B352FC63872444C6A4A7FD19353A1427","019a50d5-9d48-7d49-a746-f0147b146599","019a50cf-ba5d-7779-b88c-2ff4a321cee9","","1926","","{""Q0"":4}","enjoyment_rating","","[0]"
"","","","","","html-button-response","46","747591","0.0-14.0-0.0","B352FC63872444C6A4A7FD19353A1427","019a50d5-9d48-7d49-a746-f0147b146599","019a50cf-ba5d-7779-b88c-2ff4a321cee9","","1463","
        <div style=""display: flex; justify-content: center; align-items: center;"">
          <img src=""images/red_deck_2.png"" style=""width: 300px; height: 300px; margin-right: 10px;"" />
          <img src=""images/blue_deck_1.png"" style=""width: 300px; height: 300px;"" />
        </div>","1","deck_choice","1",""
"","","","","","html-keyboard-response","47","759597","0.0-14.0-1.0-1.0-0.0","B352FC63872444C6A4A7FD19353A1427","019a50d5-9d48-7d49-a746-f0147b146599","019a50cf-ba5d-7779-b88c-2ff4a321cee9","","null","<div style=""display: flex; justify-content: center; align-items: center;"">
                     <img src=""images/semantic/semantic_series_8/semantic_series_8_a.png"" style=""width: 300px; height: 300px;"" />
                   </div>","null","semantic_a","",""
"","","","","","survey-likert","48","762404","0.0-14.0-2.0","B352FC63872444C6A4A7FD19353A1427","019a50d5-9d48-7d49-a746-f0147b146599","019a50cf-ba5d-7779-b88c-2ff4a321cee9","","2806","","{""Q0"":2}","surprise_rating","","[0]"
"","","","","","survey-likert","49","764075","0.0-14.0-3.0","B352FC63872444C6A4A7FD19353A1427","019a50d5-9d48-7d49-a746-f0147b146599","019a50cf-ba5d-7779-b88c-2ff4a321cee9","","1672","","{""Q0"":3}","enjoyment_rating","","[0]"
"","","","","","survey-text","50","784388","0.0-15.0","B352FC63872444C6A4A7FD19353A1427","019a50d5-9d48-7d49-a746-f0147b146599","019a50cf-ba5d-7779-b88c-2ff4a321cee9","","20312","","{""Q0"":""One was a question & answer, the other was a fact""}","","",""
"","","","","","html-button-response","51","786680","0.0-16.0","B352FC63872444C6A4A7FD19353A1427","019a50d5-9d48-7d49-a746-f0147b146599","019a50cf-ba5d-7779-b88c-2ff4a321cee9","","2291","Which color deck showed a question and an answer?","0","","",""
"","","","","","html-button-response","52","787786","0.0-17.0","B352FC63872444C6A4A7FD19353A1427","019a50d5-9d48-7d49-a746-f0147b146599","019a50cf-ba5d-7779-b88c-2ff4a321cee9","","1106","Which color deck showed an interesting fact?","1","","",""
"","","","","","html-button-response","53","793794","0.0-18.0","B352FC63872444C6A4A7FD19353A1427","019a50d5-9d48-7d49-a746-f0147b146599","019a50cf-ba5d-7779-b88c-2ff4a321cee9","","6008","Which type of deck did you prefer overall?","1","","",""
"","","","","","survey-text","54","799477","0.0-19.0","B352FC63872444C6A4A7FD19353A1427","019a50d5-9d48-7d49-a746-f0147b146599","019a50cf-ba5d-7779-b88c-2ff4a321cee9","","5681","","{""Q0"":""MALE"",""Q1"":""33""}","","",""
"","","","","","instructions","55","819363","0.0-20.0","B352FC63872444C6A4A7FD19353A1427","019a50d5-9d48-7d49-a746-f0147b146599","019a50cf-ba5d-7779-b88c-2ff4a321cee9","[{""page_index"":0,""viewing_time"":19886}]","19886","","","","",""
