"success","timeout","failed_images","failed_audio","failed_video","trial_type","trial_index","time_elapsed","internal_node_id","subject_id","study_id","session_id","view_history","rt","stimulus","response","choice"
"true","false","[]","[]","[]","preload","0","1740","0.0-0.0","A40D4CF376F440118A2186018694577F","a8f8a8e8-9218-4f96-8515-972d419ee5bf","61e1ec61-13c7-4a8f-bf47-a91ec9909364","","","","",""
"","","","","","instructions","1","11242","0.0-1.0","A40D4CF376F440118A2186018694577F","a8f8a8e8-9218-4f96-8515-972d419ee5bf","61e1ec61-13c7-4a8f-bf47-a91ec9909364","[{""page_index"":0,""viewing_time"":9501}]","9501","","",""
"","","","","","instructions","2","13406","0.0-2.0","A40D4CF376F440118A2186018694577F","a8f8a8e8-9218-4f96-8515-972d419ee5bf","61e1ec61-13c7-4a8f-bf47-a91ec9909364","[{""page_index"":0,""viewing_time"":2164}]","2164","","",""
"true","","","","","fullscreen","3","15861","0.0-3.0","A40D4CF376F440118A2186018694577F","a8f8a8e8-9218-4f96-8515-972d419ee5bf","61e1ec61-13c7-4a8f-bf47-a91ec9909364","","1447","","",""
"","","","","","instructions","4","24601","0.0-4.0","A40D4CF376F440118A2186018694577F","a8f8a8e8-9218-4f96-8515-972d419ee5bf","61e1ec61-13c7-4a8f-bf47-a91ec9909364","[{""page_index"":0,""viewing_time"":8738}]","8739","","",""
"","","","","","html-keyboard-response","5","27612","0.0-5.0","A40D4CF376F440118A2186018694577F","a8f8a8e8-9218-4f96-8515-972d419ee5bf","61e1ec61-13c7-4a8f-bf47-a91ec9909364","","null","<div style=""display: flex; justify-content: center; align-items: center;"">
                <img src=""images/causal/causal_series_10/causal_series_10_a.jpg"" style=""width: 300px; height: 300px;"" />
              </div>","null",""
"","","","","","html-keyboard-response","6","30620","0.0-6.0","A40D4CF376F440118A2186018694577F","a8f8a8e8-9218-4f96-8515-972d419ee5bf","61e1ec61-13c7-4a8f-bf47-a91ec9909364","","null","<div style=""display: flex; justify-content: center; align-items: center;"">
                <img src=""images/causal/causal_series_10/causal_series_10_b.jpg"" style=""width: 300px; height: 300px;"" />
              </div>","null",""
"","","","","","html-keyboard-response","7","33624","0.0-7.0","A40D4CF376F440118A2186018694577F","a8f8a8e8-9218-4f96-8515-972d419ee5bf","61e1ec61-13c7-4a8f-bf47-a91ec9909364","","null","<div style=""display: flex; justify-content: center; align-items: center;"">
                <img src=""images/causal/causal_series_10/causal_series_10_c.jpg"" style=""width: 300px; height: 300px;"" />
              </div>","null",""
"","","","","","html-button-response","8","35588","0.0-8.0","A40D4CF376F440118A2186018694577F","a8f8a8e8-9218-4f96-8515-972d419ee5bf","61e1ec61-13c7-4a8f-bf47-a91ec9909364","","1962","
    <div style=""display: flex; justify-content: center; align-items: center;"">
      <img src=""images/red_deck_2.png"" style=""width: 300px; height: 300px; margin-right: 10px;"" />
      <img src=""images/blue_deck_1.png"" style=""width: 300px; height: 300px;"" />
    </div>","0","0"
"","","","","","html-keyboard-response","9","38597","0.0-9.0-0.0-0.0","A40D4CF376F440118A2186018694577F","a8f8a8e8-9218-4f96-8515-972d419ee5bf","61e1ec61-13c7-4a8f-bf47-a91ec9909364","","null","<div style=""display: flex; justify-content: center; align-items: center;"">
                <img src=""images/causal/causal_series_10/causal_series_10_d.jpg"" style=""width: 300px; height: 300px;"" />
              </div>","null",""
"","","","","","html-keyboard-response","10","41612","0.0-10.0","A40D4CF376F440118A2186018694577F","a8f8a8e8-9218-4f96-8515-972d419ee5bf","61e1ec61-13c7-4a8f-bf47-a91ec9909364","","null","<div style=""display: flex; justify-content: center; align-items: center;"">
                <img src=""images/other/blank.jpg"" style=""width: 300px; height: 300px;"" />
              </div>","null",""
"","","","","","html-keyboard-response","11","44618","0.0-11.0","A40D4CF376F440118A2186018694577F","a8f8a8e8-9218-4f96-8515-972d419ee5bf","61e1ec61-13c7-4a8f-bf47-a91ec9909364","","null","<div style=""display: flex; justify-content: center; align-items: center;"">
                <img src=""images/causal/causal_series_9/causal_series_9_a.jpg"" style=""width: 300px; height: 300px;"" />
              </div>","null",""
"","","","","","html-keyboard-response","12","47623","0.0-12.0","A40D4CF376F440118A2186018694577F","a8f8a8e8-9218-4f96-8515-972d419ee5bf","61e1ec61-13c7-4a8f-bf47-a91ec9909364","","null","<div style=""display: flex; justify-content: center; align-items: center;"">
                <img src=""images/causal/causal_series_9/causal_series_9_b.jpg"" style=""width: 300px; height: 300px;"" />
              </div>","null",""
"","","","","","html-keyboard-response","13","50627","0.0-13.0","A40D4CF376F440118A2186018694577F","a8f8a8e8-9218-4f96-8515-972d419ee5bf","61e1ec61-13c7-4a8f-bf47-a91ec9909364","","null","<div style=""display: flex; justify-content: center; align-items: center;"">
                <img src=""images/causal/causal_series_9/causal_series_9_c.jpg"" style=""width: 300px; height: 300px;"" />
              </div>","null",""
"","","","","","html-button-response","14","54340","0.0-14.0","A40D4CF376F440118A2186018694577F","a8f8a8e8-9218-4f96-8515-972d419ee5bf","61e1ec61-13c7-4a8f-bf47-a91ec9909364","","3712","
    <div style=""display: flex; justify-content: center; align-items: center;"">
      <img src=""images/red_deck_2.png"" style=""width: 300px; height: 300px; margin-right: 10px;"" />
      <img src=""images/blue_deck_1.png"" style=""width: 300px; height: 300px;"" />
    </div>","1","1"
"","","","","","html-keyboard-response","15","57349","0.0-15.0-1.0-0.0","A40D4CF376F440118A2186018694577F","a8f8a8e8-9218-4f96-8515-972d419ee5bf","61e1ec61-13c7-4a8f-bf47-a91ec9909364","","null","<div style=""display: flex; justify-content: center; align-items: center;"">
                <img src=""images/semantic/semantic_series_8/semantic_series_8_d.jpg"" style=""width: 300px; height: 300px;"" />
              </div>","null",""
"","","","","","html-keyboard-response","16","60358","0.0-16.0","A40D4CF376F440118A2186018694577F","a8f8a8e8-9218-4f96-8515-972d419ee5bf","61e1ec61-13c7-4a8f-bf47-a91ec9909364","","null","<div style=""display: flex; justify-content: center; align-items: center;"">
                <img src=""images/other/blank.jpg"" style=""width: 300px; height: 300px;"" />
              </div>","null",""
"","","","","","html-keyboard-response","17","63369","0.0-17.0","A40D4CF376F440118A2186018694577F","a8f8a8e8-9218-4f96-8515-972d419ee5bf","61e1ec61-13c7-4a8f-bf47-a91ec9909364","","null","<div style=""display: flex; justify-content: center; align-items: center;"">
                <img src=""images/causal/causal_series_14/causal_series_14_a.jpg"" style=""width: 300px; height: 300px;"" />
              </div>","null",""
"","","","","","html-keyboard-response","18","66379","0.0-18.0","A40D4CF376F440118A2186018694577F","a8f8a8e8-9218-4f96-8515-972d419ee5bf","61e1ec61-13c7-4a8f-bf47-a91ec9909364","","null","<div style=""display: flex; justify-content: center; align-items: center;"">
                <img src=""images/causal/causal_series_14/causal_series_14_b.jpg"" style=""width: 300px; height: 300px;"" />
              </div>","null",""
"","","","","","html-keyboard-response","19","69382","0.0-19.0","A40D4CF376F440118A2186018694577F","a8f8a8e8-9218-4f96-8515-972d419ee5bf","61e1ec61-13c7-4a8f-bf47-a91ec9909364","","null","<div style=""display: flex; justify-content: center; align-items: center;"">
                <img src=""images/causal/causal_series_14/causal_series_14_c.jpg"" style=""width: 300px; height: 300px;"" />
              </div>","null",""
"","","","","","html-button-response","20","71651","0.0-20.0","A40D4CF376F440118A2186018694577F","a8f8a8e8-9218-4f96-8515-972d419ee5bf","61e1ec61-13c7-4a8f-bf47-a91ec9909364","","2269","
    <div style=""display: flex; justify-content: center; align-items: center;"">
      <img src=""images/red_deck_2.png"" style=""width: 300px; height: 300px; margin-right: 10px;"" />
      <img src=""images/blue_deck_1.png"" style=""width: 300px; height: 300px;"" />
    </div>","0","0"
"","","","","","html-keyboard-response","21","74661","0.0-21.0-0.0-0.0","A40D4CF376F440118A2186018694577F","a8f8a8e8-9218-4f96-8515-972d419ee5bf","61e1ec61-13c7-4a8f-bf47-a91ec9909364","","null","<div style=""display: flex; justify-content: center; align-items: center;"">
                <img src=""images/causal/causal_series_14/causal_series_14_d.jpg"" style=""width: 300px; height: 300px;"" />
              </div>","null",""
"","","","","","html-keyboard-response","22","77666","0.0-22.0","A40D4CF376F440118A2186018694577F","a8f8a8e8-9218-4f96-8515-972d419ee5bf","61e1ec61-13c7-4a8f-bf47-a91ec9909364","","null","<div style=""display: flex; justify-content: center; align-items: center;"">
                <img src=""images/other/blank.jpg"" style=""width: 300px; height: 300px;"" />
              </div>","null",""
"","","","","","html-keyboard-response","23","80676","0.0-23.0","A40D4CF376F440118A2186018694577F","a8f8a8e8-9218-4f96-8515-972d419ee5bf","61e1ec61-13c7-4a8f-bf47-a91ec9909364","","null","<div style=""display: flex; justify-content: center; align-items: center;"">
                <img src=""images/causal/causal_series_16/causal_series_16_a.jpg"" style=""width: 300px; height: 300px;"" />
              </div>","null",""
"","","","","","html-keyboard-response","24","83689","0.0-24.0","A40D4CF376F440118A2186018694577F","a8f8a8e8-9218-4f96-8515-972d419ee5bf","61e1ec61-13c7-4a8f-bf47-a91ec9909364","","null","<div style=""display: flex; justify-content: center; align-items: center;"">
                <img src=""images/causal/causal_series_16/causal_series_16_b.jpg"" style=""width: 300px; height: 300px;"" />
              </div>","null",""
"","","","","","html-keyboard-response","25","86693","0.0-25.0","A40D4CF376F440118A2186018694577F","a8f8a8e8-9218-4f96-8515-972d419ee5bf","61e1ec61-13c7-4a8f-bf47-a91ec9909364","","null","<div style=""display: flex; justify-content: center; align-items: center;"">
                <img src=""images/causal/causal_series_16/causal_series_16_c.jpg"" style=""width: 300px; height: 300px;"" />
              </div>","null",""
"","","","","","html-button-response","26","87536","0.0-26.0","A40D4CF376F440118A2186018694577F","a8f8a8e8-9218-4f96-8515-972d419ee5bf","61e1ec61-13c7-4a8f-bf47-a91ec9909364","","843","
    <div style=""display: flex; justify-content: center; align-items: center;"">
      <img src=""images/red_deck_2.png"" style=""width: 300px; height: 300px; margin-right: 10px;"" />
      <img src=""images/blue_deck_1.png"" style=""width: 300px; height: 300px;"" />
    </div>","0","0"
"","","","","","html-keyboard-response","27","90544","0.0-27.0-0.0-0.0","A40D4CF376F440118A2186018694577F","a8f8a8e8-9218-4f96-8515-972d419ee5bf","61e1ec61-13c7-4a8f-bf47-a91ec9909364","","null","<div style=""display: flex; justify-content: center; align-items: center;"">
                <img src=""images/causal/causal_series_16/causal_series_16_d.jpg"" style=""width: 300px; height: 300px;"" />
              </div>","null",""
"","","","","","html-keyboard-response","28","93551","0.0-28.0","A40D4CF376F440118A2186018694577F","a8f8a8e8-9218-4f96-8515-972d419ee5bf","61e1ec61-13c7-4a8f-bf47-a91ec9909364","","null","<div style=""display: flex; justify-content: center; align-items: center;"">
                <img src=""images/other/blank.jpg"" style=""width: 300px; height: 300px;"" />
              </div>","null",""
"","","","","","html-keyboard-response","29","96555","0.0-29.0","A40D4CF376F440118A2186018694577F","a8f8a8e8-9218-4f96-8515-972d419ee5bf","61e1ec61-13c7-4a8f-bf47-a91ec9909364","","null","<div style=""display: flex; justify-content: center; align-items: center;"">
                <img src=""images/causal/causal_series_2/causal_series_2_a.jpg"" style=""width: 300px; height: 300px;"" />
              </div>","null",""
"","","","","","html-keyboard-response","30","99560","0.0-30.0","A40D4CF376F440118A2186018694577F","a8f8a8e8-9218-4f96-8515-972d419ee5bf","61e1ec61-13c7-4a8f-bf47-a91ec9909364","","null","<div style=""display: flex; justify-content: center; align-items: center;"">
                <img src=""images/causal/causal_series_2/causal_series_2_b.jpg"" style=""width: 300px; height: 300px;"" />
              </div>","null",""
"","","","","","html-keyboard-response","31","102561","0.0-31.0","A40D4CF376F440118A2186018694577F","a8f8a8e8-9218-4f96-8515-972d419ee5bf","61e1ec61-13c7-4a8f-bf47-a91ec9909364","","null","<div style=""display: flex; justify-content: center; align-items: center;"">
                <img src=""images/causal/causal_series_2/causal_series_2_c.jpg"" style=""width: 300px; height: 300px;"" />
              </div>","null",""
"","","","","","html-button-response","32","106149","0.0-32.0","A40D4CF376F440118A2186018694577F","a8f8a8e8-9218-4f96-8515-972d419ee5bf","61e1ec61-13c7-4a8f-bf47-a91ec9909364","","3587","
    <div style=""display: flex; justify-content: center; align-items: center;"">
      <img src=""images/red_deck_2.png"" style=""width: 300px; height: 300px; margin-right: 10px;"" />
      <img src=""images/blue_deck_1.png"" style=""width: 300px; height: 300px;"" />
    </div>","0","0"
"","","","","","html-keyboard-response","33","109150","0.0-33.0-0.0-0.0","A40D4CF376F440118A2186018694577F","a8f8a8e8-9218-4f96-8515-972d419ee5bf","61e1ec61-13c7-4a8f-bf47-a91ec9909364","","null","<div style=""display: flex; justify-content: center; align-items: center;"">
                <img src=""images/causal/causal_series_2/causal_series_2_d.jpg"" style=""width: 300px; height: 300px;"" />
              </div>","null",""
"","","","","","html-keyboard-response","34","112156","0.0-34.0","A40D4CF376F440118A2186018694577F","a8f8a8e8-9218-4f96-8515-972d419ee5bf","61e1ec61-13c7-4a8f-bf47-a91ec9909364","","null","<div style=""display: flex; justify-content: center; align-items: center;"">
                <img src=""images/other/blank.jpg"" style=""width: 300px; height: 300px;"" />
              </div>","null",""
"","","","","","html-keyboard-response","35","115162","0.0-35.0","A40D4CF376F440118A2186018694577F","a8f8a8e8-9218-4f96-8515-972d419ee5bf","61e1ec61-13c7-4a8f-bf47-a91ec9909364","","null","<div style=""display: flex; justify-content: center; align-items: center;"">
                <img src=""images/causal/causal_series_12/causal_series_12_a.jpg"" style=""width: 300px; height: 300px;"" />
              </div>","null",""
"","","","","","html-keyboard-response","36","118167","0.0-36.0","A40D4CF376F440118A2186018694577F","a8f8a8e8-9218-4f96-8515-972d419ee5bf","61e1ec61-13c7-4a8f-bf47-a91ec9909364","","null","<div style=""display: flex; justify-content: center; align-items: center;"">
                <img src=""images/causal/causal_series_12/causal_series_12_b.jpg"" style=""width: 300px; height: 300px;"" />
              </div>","null",""
"","","","","","html-keyboard-response","37","121168","0.0-37.0","A40D4CF376F440118A2186018694577F","a8f8a8e8-9218-4f96-8515-972d419ee5bf","61e1ec61-13c7-4a8f-bf47-a91ec9909364","","null","<div style=""display: flex; justify-content: center; align-items: center;"">
                <img src=""images/causal/causal_series_12/causal_series_12_c.jpg"" style=""width: 300px; height: 300px;"" />
              </div>","null",""
"","","","","","html-button-response","38","122028","0.0-38.0","A40D4CF376F440118A2186018694577F","a8f8a8e8-9218-4f96-8515-972d419ee5bf","61e1ec61-13c7-4a8f-bf47-a91ec9909364","","859","
    <div style=""display: flex; justify-content: center; align-items: center;"">
      <img src=""images/red_deck_2.png"" style=""width: 300px; height: 300px; margin-right: 10px;"" />
      <img src=""images/blue_deck_1.png"" style=""width: 300px; height: 300px;"" />
    </div>","1","1"
"","","","","","html-keyboard-response","39","125039","0.0-39.0-1.0-0.0","A40D4CF376F440118A2186018694577F","a8f8a8e8-9218-4f96-8515-972d419ee5bf","61e1ec61-13c7-4a8f-bf47-a91ec9909364","","null","<div style=""display: flex; justify-content: center; align-items: center;"">
                <img src=""images/semantic/semantic_series_11/semantic_series_11_d.jpg"" style=""width: 300px; height: 300px;"" />
              </div>","null",""
"","","","","","html-keyboard-response","40","128076","0.0-40.0","A40D4CF376F440118A2186018694577F","a8f8a8e8-9218-4f96-8515-972d419ee5bf","61e1ec61-13c7-4a8f-bf47-a91ec9909364","","null","<div style=""display: flex; justify-content: center; align-items: center;"">
                <img src=""images/other/blank.jpg"" style=""width: 300px; height: 300px;"" />
              </div>","null",""
"","","","","","html-keyboard-response","41","131081","0.0-41.0","A40D4CF376F440118A2186018694577F","a8f8a8e8-9218-4f96-8515-972d419ee5bf","61e1ec61-13c7-4a8f-bf47-a91ec9909364","","null","<div style=""display: flex; justify-content: center; align-items: center;"">
                <img src=""images/causal/causal_series_15/causal_series_15_a.jpg"" style=""width: 300px; height: 300px;"" />
              </div>","null",""
"","","","","","html-keyboard-response","42","134089","0.0-42.0","A40D4CF376F440118A2186018694577F","a8f8a8e8-9218-4f96-8515-972d419ee5bf","61e1ec61-13c7-4a8f-bf47-a91ec9909364","","null","<div style=""display: flex; justify-content: center; align-items: center;"">
                <img src=""images/causal/causal_series_15/causal_series_15_b.jpg"" style=""width: 300px; height: 300px;"" />
              </div>","null",""
"","","","","","html-keyboard-response","43","137104","0.0-43.0","A40D4CF376F440118A2186018694577F","a8f8a8e8-9218-4f96-8515-972d419ee5bf","61e1ec61-13c7-4a8f-bf47-a91ec9909364","","null","<div style=""display: flex; justify-content: center; align-items: center;"">
                <img src=""images/causal/causal_series_15/causal_series_15_c.jpg"" style=""width: 300px; height: 300px;"" />
              </div>","null",""
"","","","","","html-button-response","44","137814","0.0-44.0","A40D4CF376F440118A2186018694577F","a8f8a8e8-9218-4f96-8515-972d419ee5bf","61e1ec61-13c7-4a8f-bf47-a91ec9909364","","710","
    <div style=""display: flex; justify-content: center; align-items: center;"">
      <img src=""images/red_deck_2.png"" style=""width: 300px; height: 300px; margin-right: 10px;"" />
      <img src=""images/blue_deck_1.png"" style=""width: 300px; height: 300px;"" />
    </div>","0","0"
"","","","","","html-keyboard-response","45","140820","0.0-45.0-0.0-0.0","A40D4CF376F440118A2186018694577F","a8f8a8e8-9218-4f96-8515-972d419ee5bf","61e1ec61-13c7-4a8f-bf47-a91ec9909364","","null","<div style=""display: flex; justify-content: center; align-items: center;"">
                <img src=""images/causal/causal_series_15/causal_series_15_d.jpg"" style=""width: 300px; height: 300px;"" />
              </div>","null",""
"","","","","","html-keyboard-response","46","143835","0.0-46.0","A40D4CF376F440118A2186018694577F","a8f8a8e8-9218-4f96-8515-972d419ee5bf","61e1ec61-13c7-4a8f-bf47-a91ec9909364","","null","<div style=""display: flex; justify-content: center; align-items: center;"">
                <img src=""images/other/blank.jpg"" style=""width: 300px; height: 300px;"" />
              </div>","null",""
"","","","","","html-keyboard-response","47","146849","0.0-47.0","A40D4CF376F440118A2186018694577F","a8f8a8e8-9218-4f96-8515-972d419ee5bf","61e1ec61-13c7-4a8f-bf47-a91ec9909364","","null","<div style=""display: flex; justify-content: center; align-items: center;"">
                <img src=""images/causal/causal_series_7/causal_series_7_a.jpg"" style=""width: 300px; height: 300px;"" />
              </div>","null",""
"","","","","","html-keyboard-response","48","149863","0.0-48.0","A40D4CF376F440118A2186018694577F","a8f8a8e8-9218-4f96-8515-972d419ee5bf","61e1ec61-13c7-4a8f-bf47-a91ec9909364","","null","<div style=""display: flex; justify-content: center; align-items: center;"">
                <img src=""images/causal/causal_series_7/causal_series_7_b.jpg"" style=""width: 300px; height: 300px;"" />
              </div>","null",""
"","","","","","html-keyboard-response","49","152874","0.0-49.0","A40D4CF376F440118A2186018694577F","a8f8a8e8-9218-4f96-8515-972d419ee5bf","61e1ec61-13c7-4a8f-bf47-a91ec9909364","","null","<div style=""display: flex; justify-content: center; align-items: center;"">
                <img src=""images/causal/causal_series_7/causal_series_7_c.jpg"" style=""width: 300px; height: 300px;"" />
              </div>","null",""
"","","","","","html-button-response","50","153770","0.0-50.0","A40D4CF376F440118A2186018694577F","a8f8a8e8-9218-4f96-8515-972d419ee5bf","61e1ec61-13c7-4a8f-bf47-a91ec9909364","","897","
    <div style=""display: flex; justify-content: center; align-items: center;"">
      <img src=""images/red_deck_2.png"" style=""width: 300px; height: 300px; margin-right: 10px;"" />
      <img src=""images/blue_deck_1.png"" style=""width: 300px; height: 300px;"" />
    </div>","0","0"
"","","","","","html-keyboard-response","51","156787","0.0-51.0-0.0-0.0","A40D4CF376F440118A2186018694577F","a8f8a8e8-9218-4f96-8515-972d419ee5bf","61e1ec61-13c7-4a8f-bf47-a91ec9909364","","null","<div style=""display: flex; justify-content: center; align-items: center;"">
                <img src=""images/causal/causal_series_7/causal_series_7_d.jpg"" style=""width: 300px; height: 300px;"" />
              </div>","null",""
"","","","","","html-keyboard-response","52","159786","0.0-52.0","A40D4CF376F440118A2186018694577F","a8f8a8e8-9218-4f96-8515-972d419ee5bf","61e1ec61-13c7-4a8f-bf47-a91ec9909364","","null","<div style=""display: flex; justify-content: center; align-items: center;"">
                <img src=""images/other/blank.jpg"" style=""width: 300px; height: 300px;"" />
              </div>","null",""
"","","","","","html-keyboard-response","53","162801","0.0-53.0","A40D4CF376F440118A2186018694577F","a8f8a8e8-9218-4f96-8515-972d419ee5bf","61e1ec61-13c7-4a8f-bf47-a91ec9909364","","null","<div style=""display: flex; justify-content: center; align-items: center;"">
                <img src=""images/causal/causal_series_13/causal_series_13_a.jpg"" style=""width: 300px; height: 300px;"" />
              </div>","null",""
"","","","","","html-keyboard-response","54","165805","0.0-54.0","A40D4CF376F440118A2186018694577F","a8f8a8e8-9218-4f96-8515-972d419ee5bf","61e1ec61-13c7-4a8f-bf47-a91ec9909364","","null","<div style=""display: flex; justify-content: center; align-items: center;"">
                <img src=""images/causal/causal_series_13/causal_series_13_b.jpg"" style=""width: 300px; height: 300px;"" />
              </div>","null",""
"","","","","","html-keyboard-response","55","168807","0.0-55.0","A40D4CF376F440118A2186018694577F","a8f8a8e8-9218-4f96-8515-972d419ee5bf","61e1ec61-13c7-4a8f-bf47-a91ec9909364","","null","<div style=""display: flex; justify-content: center; align-items: center;"">
                <img src=""images/causal/causal_series_13/causal_series_13_c.jpg"" style=""width: 300px; height: 300px;"" />
              </div>","null",""
"","","","","","html-button-response","56","169295","0.0-56.0","A40D4CF376F440118A2186018694577F","a8f8a8e8-9218-4f96-8515-972d419ee5bf","61e1ec61-13c7-4a8f-bf47-a91ec9909364","","487","
    <div style=""display: flex; justify-content: center; align-items: center;"">
      <img src=""images/red_deck_2.png"" style=""width: 300px; height: 300px; margin-right: 10px;"" />
      <img src=""images/blue_deck_1.png"" style=""width: 300px; height: 300px;"" />
    </div>","0","0"
"","","","","","html-keyboard-response","57","172304","0.0-57.0-0.0-0.0","A40D4CF376F440118A2186018694577F","a8f8a8e8-9218-4f96-8515-972d419ee5bf","61e1ec61-13c7-4a8f-bf47-a91ec9909364","","null","<div style=""display: flex; justify-content: center; align-items: center;"">
                <img src=""images/causal/causal_series_13/causal_series_13_d.jpg"" style=""width: 300px; height: 300px;"" />
              </div>","null",""
"","","","","","html-keyboard-response","58","175315","0.0-58.0","A40D4CF376F440118A2186018694577F","a8f8a8e8-9218-4f96-8515-972d419ee5bf","61e1ec61-13c7-4a8f-bf47-a91ec9909364","","null","<div style=""display: flex; justify-content: center; align-items: center;"">
                <img src=""images/other/blank.jpg"" style=""width: 300px; height: 300px;"" />
              </div>","null",""
"","","","","","html-keyboard-response","59","178317","0.0-59.0","A40D4CF376F440118A2186018694577F","a8f8a8e8-9218-4f96-8515-972d419ee5bf","61e1ec61-13c7-4a8f-bf47-a91ec9909364","","null","<div style=""display: flex; justify-content: center; align-items: center;"">
                <img src=""images/causal/causal_series_18/causal_series_18_a.jpg"" style=""width: 300px; height: 300px;"" />
              </div>","null",""
"","","","","","html-keyboard-response","60","181320","0.0-60.0","A40D4CF376F440118A2186018694577F","a8f8a8e8-9218-4f96-8515-972d419ee5bf","61e1ec61-13c7-4a8f-bf47-a91ec9909364","","null","<div style=""display: flex; justify-content: center; align-items: center;"">
                <img src=""images/causal/causal_series_18/causal_series_18_b.jpg"" style=""width: 300px; height: 300px;"" />
              </div>","null",""
"","","","","","html-keyboard-response","61","184335","0.0-61.0","A40D4CF376F440118A2186018694577F","a8f8a8e8-9218-4f96-8515-972d419ee5bf","61e1ec61-13c7-4a8f-bf47-a91ec9909364","","null","<div style=""display: flex; justify-content: center; align-items: center;"">
                <img src=""images/causal/causal_series_18/causal_series_18_c.jpg"" style=""width: 300px; height: 300px;"" />
              </div>","null",""
"","","","","","html-button-response","62","185055","0.0-62.0","A40D4CF376F440118A2186018694577F","a8f8a8e8-9218-4f96-8515-972d419ee5bf","61e1ec61-13c7-4a8f-bf47-a91ec9909364","","721","
    <div style=""display: flex; justify-content: center; align-items: center;"">
      <img src=""images/red_deck_2.png"" style=""width: 300px; height: 300px; margin-right: 10px;"" />
      <img src=""images/blue_deck_1.png"" style=""width: 300px; height: 300px;"" />
    </div>","1","1"
"","","","","","html-keyboard-response","63","188074","0.0-63.0-1.0-0.0","A40D4CF376F440118A2186018694577F","a8f8a8e8-9218-4f96-8515-972d419ee5bf","61e1ec61-13c7-4a8f-bf47-a91ec9909364","","null","<div style=""display: flex; justify-content: center; align-items: center;"">
                <img src=""images/semantic/semantic_series_17/semantic_series_17_d.jpg"" style=""width: 300px; height: 300px;"" />
              </div>","null",""
"","","","","","html-keyboard-response","64","191076","0.0-64.0","A40D4CF376F440118A2186018694577F","a8f8a8e8-9218-4f96-8515-972d419ee5bf","61e1ec61-13c7-4a8f-bf47-a91ec9909364","","null","<div style=""display: flex; justify-content: center; align-items: center;"">
                <img src=""images/other/blank.jpg"" style=""width: 300px; height: 300px;"" />
              </div>","null",""
"","","","","","html-keyboard-response","65","194082","0.0-65.0","A40D4CF376F440118A2186018694577F","a8f8a8e8-9218-4f96-8515-972d419ee5bf","61e1ec61-13c7-4a8f-bf47-a91ec9909364","","null","<div style=""display: flex; justify-content: center; align-items: center;"">
                <img src=""images/causal/causal_series_5/causal_series_5_a.jpg"" style=""width: 300px; height: 300px;"" />
              </div>","null",""
"","","","","","html-keyboard-response","66","197089","0.0-66.0","A40D4CF376F440118A2186018694577F","a8f8a8e8-9218-4f96-8515-972d419ee5bf","61e1ec61-13c7-4a8f-bf47-a91ec9909364","","null","<div style=""display: flex; justify-content: center; align-items: center;"">
                <img src=""images/causal/causal_series_5/causal_series_5_b.jpg"" style=""width: 300px; height: 300px;"" />
              </div>","null",""
"","","","","","html-keyboard-response","67","200095","0.0-67.0","A40D4CF376F440118A2186018694577F","a8f8a8e8-9218-4f96-8515-972d419ee5bf","61e1ec61-13c7-4a8f-bf47-a91ec9909364","","null","<div style=""display: flex; justify-content: center; align-items: center;"">
                <img src=""images/causal/causal_series_5/causal_series_5_c.jpg"" style=""width: 300px; height: 300px;"" />
              </div>","null",""
"","","","","","html-button-response","68","200925","0.0-68.0","A40D4CF376F440118A2186018694577F","a8f8a8e8-9218-4f96-8515-972d419ee5bf","61e1ec61-13c7-4a8f-bf47-a91ec9909364","","830","
    <div style=""display: flex; justify-content: center; align-items: center;"">
      <img src=""images/red_deck_2.png"" style=""width: 300px; height: 300px; margin-right: 10px;"" />
      <img src=""images/blue_deck_1.png"" style=""width: 300px; height: 300px;"" />
    </div>","0","0"
"","","","","","html-keyboard-response","69","203928","0.0-69.0-0.0-0.0","A40D4CF376F440118A2186018694577F","a8f8a8e8-9218-4f96-8515-972d419ee5bf","61e1ec61-13c7-4a8f-bf47-a91ec9909364","","null","<div style=""display: flex; justify-content: center; align-items: center;"">
                <img src=""images/causal/causal_series_5/causal_series_5_d.jpg"" style=""width: 300px; height: 300px;"" />
              </div>","null",""
"","","","","","html-keyboard-response","70","206943","0.0-70.0","A40D4CF376F440118A2186018694577F","a8f8a8e8-9218-4f96-8515-972d419ee5bf","61e1ec61-13c7-4a8f-bf47-a91ec9909364","","null","<div style=""display: flex; justify-content: center; align-items: center;"">
                <img src=""images/other/blank.jpg"" style=""width: 300px; height: 300px;"" />
              </div>","null",""
"","","","","","html-keyboard-response","71","209946","0.0-71.0","A40D4CF376F440118A2186018694577F","a8f8a8e8-9218-4f96-8515-972d419ee5bf","61e1ec61-13c7-4a8f-bf47-a91ec9909364","","null","<div style=""display: flex; justify-content: center; align-items: center;"">
                <img src=""images/causal/causal_series_1/causal_series_1_a.jpg"" style=""width: 300px; height: 300px;"" />
              </div>","null",""
"","","","","","html-keyboard-response","72","212952","0.0-72.0","A40D4CF376F440118A2186018694577F","a8f8a8e8-9218-4f96-8515-972d419ee5bf","61e1ec61-13c7-4a8f-bf47-a91ec9909364","","null","<div style=""display: flex; justify-content: center; align-items: center;"">
                <img src=""images/causal/causal_series_1/causal_series_1_b.jpg"" style=""width: 300px; height: 300px;"" />
              </div>","null",""
"","","","","","html-keyboard-response","73","215965","0.0-73.0","A40D4CF376F440118A2186018694577F","a8f8a8e8-9218-4f96-8515-972d419ee5bf","61e1ec61-13c7-4a8f-bf47-a91ec9909364","","null","<div style=""display: flex; justify-content: center; align-items: center;"">
                <img src=""images/causal/causal_series_1/causal_series_1_c.jpg"" style=""width: 300px; height: 300px;"" />
              </div>","null",""
"","","","","","html-button-response","74","216423","0.0-74.0","A40D4CF376F440118A2186018694577F","a8f8a8e8-9218-4f96-8515-972d419ee5bf","61e1ec61-13c7-4a8f-bf47-a91ec9909364","","458","
    <div style=""display: flex; justify-content: center; align-items: center;"">
      <img src=""images/red_deck_2.png"" style=""width: 300px; height: 300px; margin-right: 10px;"" />
      <img src=""images/blue_deck_1.png"" style=""width: 300px; height: 300px;"" />
    </div>","0","0"
"","","","","","html-keyboard-response","75","219429","0.0-75.0-0.0-0.0","A40D4CF376F440118A2186018694577F","a8f8a8e8-9218-4f96-8515-972d419ee5bf","61e1ec61-13c7-4a8f-bf47-a91ec9909364","","null","<div style=""display: flex; justify-content: center; align-items: center;"">
                <img src=""images/causal/causal_series_1/causal_series_1_d.jpg"" style=""width: 300px; height: 300px;"" />
              </div>","null",""
"","","","","","html-keyboard-response","76","222432","0.0-76.0","A40D4CF376F440118A2186018694577F","a8f8a8e8-9218-4f96-8515-972d419ee5bf","61e1ec61-13c7-4a8f-bf47-a91ec9909364","","null","<div style=""display: flex; justify-content: center; align-items: center;"">
                <img src=""images/other/blank.jpg"" style=""width: 300px; height: 300px;"" />
              </div>","null",""
"","","","","","html-keyboard-response","77","225434","0.0-77.0","A40D4CF376F440118A2186018694577F","a8f8a8e8-9218-4f96-8515-972d419ee5bf","61e1ec61-13c7-4a8f-bf47-a91ec9909364","","null","<div style=""display: flex; justify-content: center; align-items: center;"">
                <img src=""images/causal/causal_series_4/causal_series_4_a.jpg"" style=""width: 300px; height: 300px;"" />
              </div>","null",""
"","","","","","html-keyboard-response","78","228450","0.0-78.0","A40D4CF376F440118A2186018694577F","a8f8a8e8-9218-4f96-8515-972d419ee5bf","61e1ec61-13c7-4a8f-bf47-a91ec9909364","","null","<div style=""display: flex; justify-content: center; align-items: center;"">
                <img src=""images/causal/causal_series_4/causal_series_4_b.jpg"" style=""width: 300px; height: 300px;"" />
              </div>","null",""
"","","","","","html-keyboard-response","79","231451","0.0-79.0","A40D4CF376F440118A2186018694577F","a8f8a8e8-9218-4f96-8515-972d419ee5bf","61e1ec61-13c7-4a8f-bf47-a91ec9909364","","null","<div style=""display: flex; justify-content: center; align-items: center;"">
                <img src=""images/causal/causal_series_4/causal_series_4_c.jpg"" style=""width: 300px; height: 300px;"" />
              </div>","null",""
"","","","","","html-button-response","80","232258","0.0-80.0","A40D4CF376F440118A2186018694577F","a8f8a8e8-9218-4f96-8515-972d419ee5bf","61e1ec61-13c7-4a8f-bf47-a91ec9909364","","805","
    <div style=""display: flex; justify-content: center; align-items: center;"">
      <img src=""images/red_deck_2.png"" style=""width: 300px; height: 300px; margin-right: 10px;"" />
      <img src=""images/blue_deck_1.png"" style=""width: 300px; height: 300px;"" />
    </div>","1","1"
"","","","","","html-keyboard-response","81","235271","0.0-81.0-1.0-0.0","A40D4CF376F440118A2186018694577F","a8f8a8e8-9218-4f96-8515-972d419ee5bf","61e1ec61-13c7-4a8f-bf47-a91ec9909364","","null","<div style=""display: flex; justify-content: center; align-items: center;"">
                <img src=""images/semantic/semantic_series_3/semantic_series_3_d.jpg"" style=""width: 300px; height: 300px;"" />
              </div>","null",""
"","","","","","html-keyboard-response","82","238276","0.0-82.0","A40D4CF376F440118A2186018694577F","a8f8a8e8-9218-4f96-8515-972d419ee5bf","61e1ec61-13c7-4a8f-bf47-a91ec9909364","","null","<div style=""display: flex; justify-content: center; align-items: center;"">
                <img src=""images/other/blank.jpg"" style=""width: 300px; height: 300px;"" />
              </div>","null",""
"","","","","","html-keyboard-response","83","241276","0.0-83.0","A40D4CF376F440118A2186018694577F","a8f8a8e8-9218-4f96-8515-972d419ee5bf","61e1ec61-13c7-4a8f-bf47-a91ec9909364","","null","<div style=""display: flex; justify-content: center; align-items: center;"">
                <img src=""images/causal/causal_series_17/causal_series_17_a.jpg"" style=""width: 300px; height: 300px;"" />
              </div>","null",""
"","","","","","html-keyboard-response","84","244279","0.0-84.0","A40D4CF376F440118A2186018694577F","a8f8a8e8-9218-4f96-8515-972d419ee5bf","61e1ec61-13c7-4a8f-bf47-a91ec9909364","","null","<div style=""display: flex; justify-content: center; align-items: center;"">
                <img src=""images/causal/causal_series_17/causal_series_17_b.jpg"" style=""width: 300px; height: 300px;"" />
              </div>","null",""
"","","","","","html-keyboard-response","85","247294","0.0-85.0","A40D4CF376F440118A2186018694577F","a8f8a8e8-9218-4f96-8515-972d419ee5bf","61e1ec61-13c7-4a8f-bf47-a91ec9909364","","null","<div style=""display: flex; justify-content: center; align-items: center;"">
                <img src=""images/causal/causal_series_17/causal_series_17_c.jpg"" style=""width: 300px; height: 300px;"" />
              </div>","null",""
"","","","","","html-button-response","86","248331","0.0-86.0","A40D4CF376F440118A2186018694577F","a8f8a8e8-9218-4f96-8515-972d419ee5bf","61e1ec61-13c7-4a8f-bf47-a91ec9909364","","1037","
    <div style=""display: flex; justify-content: center; align-items: center;"">
      <img src=""images/red_deck_2.png"" style=""width: 300px; height: 300px; margin-right: 10px;"" />
      <img src=""images/blue_deck_1.png"" style=""width: 300px; height: 300px;"" />
    </div>","0","0"
"","","","","","html-keyboard-response","87","251344","0.0-87.0-0.0-0.0","A40D4CF376F440118A2186018694577F","a8f8a8e8-9218-4f96-8515-972d419ee5bf","61e1ec61-13c7-4a8f-bf47-a91ec9909364","","null","<div style=""display: flex; justify-content: center; align-items: center;"">
                <img src=""images/causal/causal_series_17/causal_series_17_d.jpg"" style=""width: 300px; height: 300px;"" />
              </div>","null",""
"","","","","","html-keyboard-response","88","254385","0.0-88.0","A40D4CF376F440118A2186018694577F","a8f8a8e8-9218-4f96-8515-972d419ee5bf","61e1ec61-13c7-4a8f-bf47-a91ec9909364","","null","<div style=""display: flex; justify-content: center; align-items: center;"">
                <img src=""images/other/blank.jpg"" style=""width: 300px; height: 300px;"" />
              </div>","null",""
"","","","","","html-keyboard-response","89","257393","0.0-89.0","A40D4CF376F440118A2186018694577F","a8f8a8e8-9218-4f96-8515-972d419ee5bf","61e1ec61-13c7-4a8f-bf47-a91ec9909364","","null","<div style=""display: flex; justify-content: center; align-items: center;"">
                <img src=""images/causal/causal_series_3/causal_series_3_a.jpg"" style=""width: 300px; height: 300px;"" />
              </div>","null",""
"","","","","","html-keyboard-response","90","260395","0.0-90.0","A40D4CF376F440118A2186018694577F","a8f8a8e8-9218-4f96-8515-972d419ee5bf","61e1ec61-13c7-4a8f-bf47-a91ec9909364","","null","<div style=""display: flex; justify-content: center; align-items: center;"">
                <img src=""images/causal/causal_series_3/causal_series_3_b.jpg"" style=""width: 300px; height: 300px;"" />
              </div>","null",""
"","","","","","html-keyboard-response","91","263409","0.0-91.0","A40D4CF376F440118A2186018694577F","a8f8a8e8-9218-4f96-8515-972d419ee5bf","61e1ec61-13c7-4a8f-bf47-a91ec9909364","","null","<div style=""display: flex; justify-content: center; align-items: center;"">
                <img src=""images/causal/causal_series_3/causal_series_3_c.jpg"" style=""width: 300px; height: 300px;"" />
              </div>","null",""
"","","","","","html-button-response","92","263807","0.0-92.0","A40D4CF376F440118A2186018694577F","a8f8a8e8-9218-4f96-8515-972d419ee5bf","61e1ec61-13c7-4a8f-bf47-a91ec9909364","","396","
    <div style=""display: flex; justify-content: center; align-items: center;"">
      <img src=""images/red_deck_2.png"" style=""width: 300px; height: 300px; margin-right: 10px;"" />
      <img src=""images/blue_deck_1.png"" style=""width: 300px; height: 300px;"" />
    </div>","0","0"
"","","","","","html-keyboard-response","93","266810","0.0-93.0-0.0-0.0","A40D4CF376F440118A2186018694577F","a8f8a8e8-9218-4f96-8515-972d419ee5bf","61e1ec61-13c7-4a8f-bf47-a91ec9909364","","null","<div style=""display: flex; justify-content: center; align-items: center;"">
                <img src=""images/causal/causal_series_3/causal_series_3_d.jpg"" style=""width: 300px; height: 300px;"" />
              </div>","null",""
"","","","","","html-keyboard-response","94","269813","0.0-94.0","A40D4CF376F440118A2186018694577F","a8f8a8e8-9218-4f96-8515-972d419ee5bf","61e1ec61-13c7-4a8f-bf47-a91ec9909364","","null","<div style=""display: flex; justify-content: center; align-items: center;"">
                <img src=""images/other/blank.jpg"" style=""width: 300px; height: 300px;"" />
              </div>","null",""
"","","","","","html-keyboard-response","95","272828","0.0-95.0","A40D4CF376F440118A2186018694577F","a8f8a8e8-9218-4f96-8515-972d419ee5bf","61e1ec61-13c7-4a8f-bf47-a91ec9909364","","null","<div style=""display: flex; justify-content: center; align-items: center;"">
                <img src=""images/causal/causal_series_6/causal_series_6_a.jpg"" style=""width: 300px; height: 300px;"" />
              </div>","null",""
"","","","","","html-keyboard-response","96","275830","0.0-96.0","A40D4CF376F440118A2186018694577F","a8f8a8e8-9218-4f96-8515-972d419ee5bf","61e1ec61-13c7-4a8f-bf47-a91ec9909364","","null","<div style=""display: flex; justify-content: center; align-items: center;"">
                <img src=""images/causal/causal_series_6/causal_series_6_b.jpg"" style=""width: 300px; height: 300px;"" />
              </div>","null",""
"","","","","","html-keyboard-response","97","278832","0.0-97.0","A40D4CF376F440118A2186018694577F","a8f8a8e8-9218-4f96-8515-972d419ee5bf","61e1ec61-13c7-4a8f-bf47-a91ec9909364","","null","<div style=""display: flex; justify-content: center; align-items: center;"">
                <img src=""images/causal/causal_series_6/causal_series_6_c.jpg"" style=""width: 300px; height: 300px;"" />
              </div>","null",""
"","","","","","html-button-response","98","287944","0.0-98.0","A40D4CF376F440118A2186018694577F","a8f8a8e8-9218-4f96-8515-972d419ee5bf","61e1ec61-13c7-4a8f-bf47-a91ec9909364","","9112","
    <div style=""display: flex; justify-content: center; align-items: center;"">
      <img src=""images/red_deck_2.png"" style=""width: 300px; height: 300px; margin-right: 10px;"" />
      <img src=""images/blue_deck_1.png"" style=""width: 300px; height: 300px;"" />
    </div>","0","0"
"","","","","","html-keyboard-response","99","290947","0.0-99.0-0.0-0.0","A40D4CF376F440118A2186018694577F","a8f8a8e8-9218-4f96-8515-972d419ee5bf","61e1ec61-13c7-4a8f-bf47-a91ec9909364","","null","<div style=""display: flex; justify-content: center; align-items: center;"">
                <img src=""images/causal/causal_series_6/causal_series_6_d.jpg"" style=""width: 300px; height: 300px;"" />
              </div>","null",""
"","","","","","html-keyboard-response","100","293952","0.0-100.0","A40D4CF376F440118A2186018694577F","a8f8a8e8-9218-4f96-8515-972d419ee5bf","61e1ec61-13c7-4a8f-bf47-a91ec9909364","","null","<div style=""display: flex; justify-content: center; align-items: center;"">
                <img src=""images/other/blank.jpg"" style=""width: 300px; height: 300px;"" />
              </div>","null",""
"","","","","","html-keyboard-response","101","296952","0.0-101.0","A40D4CF376F440118A2186018694577F","a8f8a8e8-9218-4f96-8515-972d419ee5bf","61e1ec61-13c7-4a8f-bf47-a91ec9909364","","null","<div style=""display: flex; justify-content: center; align-items: center;"">
                <img src=""images/causal/causal_series_11/causal_series_11_a.jpg"" style=""width: 300px; height: 300px;"" />
              </div>","null",""
"","","","","","html-keyboard-response","102","300001","0.0-102.0","A40D4CF376F440118A2186018694577F","a8f8a8e8-9218-4f96-8515-972d419ee5bf","61e1ec61-13c7-4a8f-bf47-a91ec9909364","","null","<div style=""display: flex; justify-content: center; align-items: center;"">
                <img src=""images/causal/causal_series_11/causal_series_11_b.jpg"" style=""width: 300px; height: 300px;"" />
              </div>","null",""
"","","","","","html-keyboard-response","103","303033","0.0-103.0","A40D4CF376F440118A2186018694577F","a8f8a8e8-9218-4f96-8515-972d419ee5bf","61e1ec61-13c7-4a8f-bf47-a91ec9909364","","null","<div style=""display: flex; justify-content: center; align-items: center;"">
                <img src=""images/causal/causal_series_11/causal_series_11_c.jpg"" style=""width: 300px; height: 300px;"" />
              </div>","null",""
"","","","","","html-button-response","104","310072","0.0-104.0","A40D4CF376F440118A2186018694577F","a8f8a8e8-9218-4f96-8515-972d419ee5bf","61e1ec61-13c7-4a8f-bf47-a91ec9909364","","7038","
    <div style=""display: flex; justify-content: center; align-items: center;"">
      <img src=""images/red_deck_2.png"" style=""width: 300px; height: 300px; margin-right: 10px;"" />
      <img src=""images/blue_deck_1.png"" style=""width: 300px; height: 300px;"" />
    </div>","0","0"
"","","","","","html-keyboard-response","105","313079","0.0-105.0-0.0-0.0","A40D4CF376F440118A2186018694577F","a8f8a8e8-9218-4f96-8515-972d419ee5bf","61e1ec61-13c7-4a8f-bf47-a91ec9909364","","null","<div style=""display: flex; justify-content: center; align-items: center;"">
                <img src=""images/causal/causal_series_11/causal_series_11_d.jpg"" style=""width: 300px; height: 300px;"" />
              </div>","null",""
"","","","","","html-keyboard-response","106","316091","0.0-106.0","A40D4CF376F440118A2186018694577F","a8f8a8e8-9218-4f96-8515-972d419ee5bf","61e1ec61-13c7-4a8f-bf47-a91ec9909364","","null","<div style=""display: flex; justify-content: center; align-items: center;"">
                <img src=""images/other/blank.jpg"" style=""width: 300px; height: 300px;"" />
              </div>","null",""
"","","","","","html-keyboard-response","107","319100","0.0-107.0","A40D4CF376F440118A2186018694577F","a8f8a8e8-9218-4f96-8515-972d419ee5bf","61e1ec61-13c7-4a8f-bf47-a91ec9909364","","null","<div style=""display: flex; justify-content: center; align-items: center;"">
                <img src=""images/causal/causal_series_8/causal_series_8_a.jpg"" style=""width: 300px; height: 300px;"" />
              </div>","null",""
"","","","","","html-keyboard-response","108","322101","0.0-108.0","A40D4CF376F440118A2186018694577F","a8f8a8e8-9218-4f96-8515-972d419ee5bf","61e1ec61-13c7-4a8f-bf47-a91ec9909364","","null","<div style=""display: flex; justify-content: center; align-items: center;"">
                <img src=""images/causal/causal_series_8/causal_series_8_b.jpg"" style=""width: 300px; height: 300px;"" />
              </div>","null",""
"","","","","","html-keyboard-response","109","325117","0.0-109.0","A40D4CF376F440118A2186018694577F","a8f8a8e8-9218-4f96-8515-972d419ee5bf","61e1ec61-13c7-4a8f-bf47-a91ec9909364","","null","<div style=""display: flex; justify-content: center; align-items: center;"">
                <img src=""images/causal/causal_series_8/causal_series_8_c.jpg"" style=""width: 300px; height: 300px;"" />
              </div>","null",""
"","","","","","html-button-response","110","326059","0.0-110.0","A40D4CF376F440118A2186018694577F","a8f8a8e8-9218-4f96-8515-972d419ee5bf","61e1ec61-13c7-4a8f-bf47-a91ec9909364","","942","
    <div style=""display: flex; justify-content: center; align-items: center;"">
      <img src=""images/red_deck_2.png"" style=""width: 300px; height: 300px; margin-right: 10px;"" />
      <img src=""images/blue_deck_1.png"" style=""width: 300px; height: 300px;"" />
    </div>","0","0"
"","","","","","html-keyboard-response","111","329071","0.0-111.0-0.0-0.0","A40D4CF376F440118A2186018694577F","a8f8a8e8-9218-4f96-8515-972d419ee5bf","61e1ec61-13c7-4a8f-bf47-a91ec9909364","","null","<div style=""display: flex; justify-content: center; align-items: center;"">
                <img src=""images/causal/causal_series_8/causal_series_8_d.jpg"" style=""width: 300px; height: 300px;"" />
              </div>","null",""
"","","","","","html-keyboard-response","112","332085","0.0-112.0","A40D4CF376F440118A2186018694577F","a8f8a8e8-9218-4f96-8515-972d419ee5bf","61e1ec61-13c7-4a8f-bf47-a91ec9909364","","null","<div style=""display: flex; justify-content: center; align-items: center;"">
                <img src=""images/other/blank.jpg"" style=""width: 300px; height: 300px;"" />
              </div>","null",""
"","","","","","survey-text","113","339417","0.0-113.0","A40D4CF376F440118A2186018694577F","a8f8a8e8-9218-4f96-8515-972d419ee5bf","61e1ec61-13c7-4a8f-bf47-a91ec9909364","","7301","","{""Q0"":""I cannot. I'm so confused.""}",""
"","","","","","survey-text","114","345404","0.0-114.0","A40D4CF376F440118A2186018694577F","a8f8a8e8-9218-4f96-8515-972d419ee5bf","61e1ec61-13c7-4a8f-bf47-a91ec9909364","","5983","","{""Q0"":""Blue I guess""}",""
"","","","","","html-button-response","115","352982","0.0-115.0","A40D4CF376F440118A2186018694577F","a8f8a8e8-9218-4f96-8515-972d419ee5bf","61e1ec61-13c7-4a8f-bf47-a91ec9909364","","7579","Which color deck does the fourth image continue the story from the series?","1",""
"","","","","","html-button-response","116","354026","0.0-116.0","A40D4CF376F440118A2186018694577F","a8f8a8e8-9218-4f96-8515-972d419ee5bf","61e1ec61-13c7-4a8f-bf47-a91ec9909364","","1043","Which color deck does the fourth image not follow the story from the series?","0",""
"","","","","","survey-text","117","357492","0.0-117.0","A40D4CF376F440118A2186018694577F","a8f8a8e8-9218-4f96-8515-972d419ee5bf","61e1ec61-13c7-4a8f-bf47-a91ec9909364","","3456","","{""Q0"":""MALE"",""Q1"":""33""}",""
"","","","","","instructions","118","364103","0.0-118.0","A40D4CF376F440118A2186018694577F","a8f8a8e8-9218-4f96-8515-972d419ee5bf","61e1ec61-13c7-4a8f-bf47-a91ec9909364","[{""page_index"":0,""viewing_time"":6610}]","6610","","",""
