"success","timeout","failed_images","failed_audio","failed_video","trial_type","trial_index","time_elapsed","internal_node_id","subject_id","study_id","session_id","view_history","rt","stimulus","response","choice"
"true","false","[]","[]","[]","preload","0","585","0.0-0.0","0BF93AFE2163417D97A40C36DB20DE03","0199ad16-3fa9-7711-b901-d3be713d40fa","0199ace1-b359-7f5c-9116-f77d3800ea9b","","","","",""
"","","","","","instructions","1","35661","0.0-1.0","0BF93AFE2163417D97A40C36DB20DE03","0199ad16-3fa9-7711-b901-d3be713d40fa","0199ace1-b359-7f5c-9116-f77d3800ea9b","[{""page_index"":0,""viewing_time"":35074}]","35075","","",""
"","","","","","instructions","2","42628","0.0-2.0","0BF93AFE2163417D97A40C36DB20DE03","0199ad16-3fa9-7711-b901-d3be713d40fa","0199ace1-b359-7f5c-9116-f77d3800ea9b","[{""page_index"":0,""viewing_time"":6966}]","6966","","",""
"true","","","","","fullscreen","3","46383","0.0-3.0","0BF93AFE2163417D97A40C36DB20DE03","0199ad16-3fa9-7711-b901-d3be713d40fa","0199ace1-b359-7f5c-9116-f77d3800ea9b","","2750","","",""
"","","","","","instructions","4","56505","0.0-4.0","0BF93AFE2163417D97A40C36DB20DE03","0199ad16-3fa9-7711-b901-d3be713d40fa","0199ace1-b359-7f5c-9116-f77d3800ea9b","[{""page_index"":0,""viewing_time"":10121}]","10122","","",""
"","","","","","html-keyboard-response","5","63515","0.0-5.0","0BF93AFE2163417D97A40C36DB20DE03","0199ad16-3fa9-7711-b901-d3be713d40fa","0199ace1-b359-7f5c-9116-f77d3800ea9b","","null","<div style=""display: flex; justify-content: center; align-items: center;"">
                     <img src=""images/causal/causal_series_7/causal_series_7_a.png"" style=""width: 300px; height: 300px;"" />
                   </div>","null",""
"","","","","","html-keyboard-response","6","70527","0.0-6.0","0BF93AFE2163417D97A40C36DB20DE03","0199ad16-3fa9-7711-b901-d3be713d40fa","0199ace1-b359-7f5c-9116-f77d3800ea9b","","null","<div style=""display: flex; justify-content: center; align-items: center;"">
                     <img src=""images/causal/causal_series_7/causal_series_7_b.png"" style=""width: 300px; height: 300px;"" />
                   </div>","null",""
"","","","","","html-keyboard-response","7","77541","0.0-7.0","0BF93AFE2163417D97A40C36DB20DE03","0199ad16-3fa9-7711-b901-d3be713d40fa","0199ace1-b359-7f5c-9116-f77d3800ea9b","","null","<div style=""display: flex; justify-content: center; align-items: center;"">
                     <img src=""images/causal/causal_series_7/causal_series_7_c.png"" style=""width: 300px; height: 300px;"" />
                   </div>","null",""
"","","","","","html-button-response","8","80119","0.0-8.0","0BF93AFE2163417D97A40C36DB20DE03","0199ad16-3fa9-7711-b901-d3be713d40fa","0199ace1-b359-7f5c-9116-f77d3800ea9b","","2576","
        <div style=""display: flex; justify-content: center; align-items: center;"">
          <img src=""images/red_deck_2.png"" style=""width: 300px; height: 300px; margin-right: 10px;"" />
          <img src=""images/blue_deck_1.png"" style=""width: 300px; height: 300px;"" />
        </div>","0","0"
"","","","","","html-keyboard-response","9","87125","0.0-9.0-0.0-0.0","0BF93AFE2163417D97A40C36DB20DE03","0199ad16-3fa9-7711-b901-d3be713d40fa","0199ace1-b359-7f5c-9116-f77d3800ea9b","","null","<div style=""display: flex; justify-content: center; align-items: center;"">
                     <img src=""images/causal/causal_series_7/causal_series_7_d.png"" style=""width: 300px; height: 300px;"" />
                   </div>","null",""
"","","","","","html-keyboard-response","10","94130","0.0-10.0","0BF93AFE2163417D97A40C36DB20DE03","0199ad16-3fa9-7711-b901-d3be713d40fa","0199ace1-b359-7f5c-9116-f77d3800ea9b","","null","<div style=""display: flex; justify-content: center; align-items: center;"">
                     <img src=""images/other/blank.png"" style=""width: 300px; height: 300px;"" />
                   </div>","null",""
"","","","","","html-keyboard-response","11","101138","0.0-11.0","0BF93AFE2163417D97A40C36DB20DE03","0199ad16-3fa9-7711-b901-d3be713d40fa","0199ace1-b359-7f5c-9116-f77d3800ea9b","","null","<div style=""display: flex; justify-content: center; align-items: center;"">
                     <img src=""images/causal/causal_series_4/causal_series_4_a.png"" style=""width: 300px; height: 300px;"" />
                   </div>","null",""
"","","","","","html-keyboard-response","12","108142","0.0-12.0","0BF93AFE2163417D97A40C36DB20DE03","0199ad16-3fa9-7711-b901-d3be713d40fa","0199ace1-b359-7f5c-9116-f77d3800ea9b","","null","<div style=""display: flex; justify-content: center; align-items: center;"">
                     <img src=""images/causal/causal_series_4/causal_series_4_b.png"" style=""width: 300px; height: 300px;"" />
                   </div>","null",""
"","","","","","html-keyboard-response","13","115144","0.0-13.0","0BF93AFE2163417D97A40C36DB20DE03","0199ad16-3fa9-7711-b901-d3be713d40fa","0199ace1-b359-7f5c-9116-f77d3800ea9b","","null","<div style=""display: flex; justify-content: center; align-items: center;"">
                     <img src=""images/causal/causal_series_4/causal_series_4_c.png"" style=""width: 300px; height: 300px;"" />
                   </div>","null",""
"","","","","","html-button-response","14","116715","0.0-14.0","0BF93AFE2163417D97A40C36DB20DE03","0199ad16-3fa9-7711-b901-d3be713d40fa","0199ace1-b359-7f5c-9116-f77d3800ea9b","","1570","
        <div style=""display: flex; justify-content: center; align-items: center;"">
          <img src=""images/red_deck_2.png"" style=""width: 300px; height: 300px; margin-right: 10px;"" />
          <img src=""images/blue_deck_1.png"" style=""width: 300px; height: 300px;"" />
        </div>","1","1"
"","","","","","html-keyboard-response","15","123715","0.0-15.0-1.0-0.0","0BF93AFE2163417D97A40C36DB20DE03","0199ad16-3fa9-7711-b901-d3be713d40fa","0199ace1-b359-7f5c-9116-f77d3800ea9b","","null","<div style=""display: flex; justify-content: center; align-items: center;"">
                     <img src=""images/semantic/semantic_series_4/semantic_series_4_d.png"" style=""width: 300px; height: 300px;"" />
                   </div>","null",""
"","","","","","html-keyboard-response","16","130717","0.0-16.0","0BF93AFE2163417D97A40C36DB20DE03","0199ad16-3fa9-7711-b901-d3be713d40fa","0199ace1-b359-7f5c-9116-f77d3800ea9b","","null","<div style=""display: flex; justify-content: center; align-items: center;"">
                     <img src=""images/other/blank.png"" style=""width: 300px; height: 300px;"" />
                   </div>","null",""
"","","","","","html-keyboard-response","17","137725","0.0-17.0","0BF93AFE2163417D97A40C36DB20DE03","0199ad16-3fa9-7711-b901-d3be713d40fa","0199ace1-b359-7f5c-9116-f77d3800ea9b","","null","<div style=""display: flex; justify-content: center; align-items: center;"">
                     <img src=""images/causal/causal_series_2/causal_series_2_a.png"" style=""width: 300px; height: 300px;"" />
                   </div>","null",""
"","","","","","html-keyboard-response","18","144734","0.0-18.0","0BF93AFE2163417D97A40C36DB20DE03","0199ad16-3fa9-7711-b901-d3be713d40fa","0199ace1-b359-7f5c-9116-f77d3800ea9b","","null","<div style=""display: flex; justify-content: center; align-items: center;"">
                     <img src=""images/causal/causal_series_2/causal_series_2_b.png"" style=""width: 300px; height: 300px;"" />
                   </div>","null",""
"","","","","","html-keyboard-response","19","151737","0.0-19.0","0BF93AFE2163417D97A40C36DB20DE03","0199ad16-3fa9-7711-b901-d3be713d40fa","0199ace1-b359-7f5c-9116-f77d3800ea9b","","null","<div style=""display: flex; justify-content: center; align-items: center;"">
                     <img src=""images/causal/causal_series_2/causal_series_2_c.png"" style=""width: 300px; height: 300px;"" />
                   </div>","null",""
"","","","","","html-button-response","20","152983","0.0-20.0","0BF93AFE2163417D97A40C36DB20DE03","0199ad16-3fa9-7711-b901-d3be713d40fa","0199ace1-b359-7f5c-9116-f77d3800ea9b","","1245","
        <div style=""display: flex; justify-content: center; align-items: center;"">
          <img src=""images/red_deck_2.png"" style=""width: 300px; height: 300px; margin-right: 10px;"" />
          <img src=""images/blue_deck_1.png"" style=""width: 300px; height: 300px;"" />
        </div>","0","0"
"","","","","","html-keyboard-response","21","159985","0.0-21.0-0.0-0.0","0BF93AFE2163417D97A40C36DB20DE03","0199ad16-3fa9-7711-b901-d3be713d40fa","0199ace1-b359-7f5c-9116-f77d3800ea9b","","null","<div style=""display: flex; justify-content: center; align-items: center;"">
                     <img src=""images/causal/causal_series_2/causal_series_2_d.png"" style=""width: 300px; height: 300px;"" />
                   </div>","null",""
"","","","","","html-keyboard-response","22","166994","0.0-22.0","0BF93AFE2163417D97A40C36DB20DE03","0199ad16-3fa9-7711-b901-d3be713d40fa","0199ace1-b359-7f5c-9116-f77d3800ea9b","","null","<div style=""display: flex; justify-content: center; align-items: center;"">
                     <img src=""images/other/blank.png"" style=""width: 300px; height: 300px;"" />
                   </div>","null",""
"","","","","","html-keyboard-response","23","173995","0.0-23.0","0BF93AFE2163417D97A40C36DB20DE03","0199ad16-3fa9-7711-b901-d3be713d40fa","0199ace1-b359-7f5c-9116-f77d3800ea9b","","null","<div style=""display: flex; justify-content: center; align-items: center;"">
                     <img src=""images/causal/causal_series_3/causal_series_3_a.png"" style=""width: 300px; height: 300px;"" />
                   </div>","null",""
"","","","","","html-keyboard-response","24","180998","0.0-24.0","0BF93AFE2163417D97A40C36DB20DE03","0199ad16-3fa9-7711-b901-d3be713d40fa","0199ace1-b359-7f5c-9116-f77d3800ea9b","","null","<div style=""display: flex; justify-content: center; align-items: center;"">
                     <img src=""images/causal/causal_series_3/causal_series_3_b.png"" style=""width: 300px; height: 300px;"" />
                   </div>","null",""
"","","","","","html-keyboard-response","25","188000","0.0-25.0","0BF93AFE2163417D97A40C36DB20DE03","0199ad16-3fa9-7711-b901-d3be713d40fa","0199ace1-b359-7f5c-9116-f77d3800ea9b","","null","<div style=""display: flex; justify-content: center; align-items: center;"">
                     <img src=""images/causal/causal_series_3/causal_series_3_c.png"" style=""width: 300px; height: 300px;"" />
                   </div>","null",""
"","","","","","html-button-response","26","189464","0.0-26.0","0BF93AFE2163417D97A40C36DB20DE03","0199ad16-3fa9-7711-b901-d3be713d40fa","0199ace1-b359-7f5c-9116-f77d3800ea9b","","1463","
        <div style=""display: flex; justify-content: center; align-items: center;"">
          <img src=""images/red_deck_2.png"" style=""width: 300px; height: 300px; margin-right: 10px;"" />
          <img src=""images/blue_deck_1.png"" style=""width: 300px; height: 300px;"" />
        </div>","0","0"
"","","","","","html-keyboard-response","27","196466","0.0-27.0-0.0-0.0","0BF93AFE2163417D97A40C36DB20DE03","0199ad16-3fa9-7711-b901-d3be713d40fa","0199ace1-b359-7f5c-9116-f77d3800ea9b","","null","<div style=""display: flex; justify-content: center; align-items: center;"">
                     <img src=""images/causal/causal_series_3/causal_series_3_d.png"" style=""width: 300px; height: 300px;"" />
                   </div>","null",""
"","","","","","html-keyboard-response","28","203479","0.0-28.0","0BF93AFE2163417D97A40C36DB20DE03","0199ad16-3fa9-7711-b901-d3be713d40fa","0199ace1-b359-7f5c-9116-f77d3800ea9b","","null","<div style=""display: flex; justify-content: center; align-items: center;"">
                     <img src=""images/other/blank.png"" style=""width: 300px; height: 300px;"" />
                   </div>","null",""
"","","","","","html-keyboard-response","29","210479","0.0-29.0","0BF93AFE2163417D97A40C36DB20DE03","0199ad16-3fa9-7711-b901-d3be713d40fa","0199ace1-b359-7f5c-9116-f77d3800ea9b","","null","<div style=""display: flex; justify-content: center; align-items: center;"">
                     <img src=""images/causal/causal_series_6/causal_series_6_a.png"" style=""width: 300px; height: 300px;"" />
                   </div>","null",""
"","","","","","html-keyboard-response","30","217482","0.0-30.0","0BF93AFE2163417D97A40C36DB20DE03","0199ad16-3fa9-7711-b901-d3be713d40fa","0199ace1-b359-7f5c-9116-f77d3800ea9b","","null","<div style=""display: flex; justify-content: center; align-items: center;"">
                     <img src=""images/causal/causal_series_6/causal_series_6_b.png"" style=""width: 300px; height: 300px;"" />
                   </div>","null",""
"","","","","","html-keyboard-response","31","224484","0.0-31.0","0BF93AFE2163417D97A40C36DB20DE03","0199ad16-3fa9-7711-b901-d3be713d40fa","0199ace1-b359-7f5c-9116-f77d3800ea9b","","null","<div style=""display: flex; justify-content: center; align-items: center;"">
                     <img src=""images/causal/causal_series_6/causal_series_6_c.png"" style=""width: 300px; height: 300px;"" />
                   </div>","null",""
"","","","","","html-button-response","32","226518","0.0-32.0","0BF93AFE2163417D97A40C36DB20DE03","0199ad16-3fa9-7711-b901-d3be713d40fa","0199ace1-b359-7f5c-9116-f77d3800ea9b","","2034","
        <div style=""display: flex; justify-content: center; align-items: center;"">
          <img src=""images/red_deck_2.png"" style=""width: 300px; height: 300px; margin-right: 10px;"" />
          <img src=""images/blue_deck_1.png"" style=""width: 300px; height: 300px;"" />
        </div>","0","0"
"","","","","","html-keyboard-response","33","233519","0.0-33.0-0.0-0.0","0BF93AFE2163417D97A40C36DB20DE03","0199ad16-3fa9-7711-b901-d3be713d40fa","0199ace1-b359-7f5c-9116-f77d3800ea9b","","null","<div style=""display: flex; justify-content: center; align-items: center;"">
                     <img src=""images/causal/causal_series_6/causal_series_6_d.png"" style=""width: 300px; height: 300px;"" />
                   </div>","null",""
"","","","","","html-keyboard-response","34","240521","0.0-34.0","0BF93AFE2163417D97A40C36DB20DE03","0199ad16-3fa9-7711-b901-d3be713d40fa","0199ace1-b359-7f5c-9116-f77d3800ea9b","","null","<div style=""display: flex; justify-content: center; align-items: center;"">
                     <img src=""images/other/blank.png"" style=""width: 300px; height: 300px;"" />
                   </div>","null",""
"","","","","","html-keyboard-response","35","247523","0.0-35.0","0BF93AFE2163417D97A40C36DB20DE03","0199ad16-3fa9-7711-b901-d3be713d40fa","0199ace1-b359-7f5c-9116-f77d3800ea9b","","null","<div style=""display: flex; justify-content: center; align-items: center;"">
                     <img src=""images/causal/causal_series_10/causal_series_10_a.png"" style=""width: 300px; height: 300px;"" />
                   </div>","null",""
"","","","","","html-keyboard-response","36","254533","0.0-36.0","0BF93AFE2163417D97A40C36DB20DE03","0199ad16-3fa9-7711-b901-d3be713d40fa","0199ace1-b359-7f5c-9116-f77d3800ea9b","","null","<div style=""display: flex; justify-content: center; align-items: center;"">
                     <img src=""images/causal/causal_series_10/causal_series_10_b.png"" style=""width: 300px; height: 300px;"" />
                   </div>","null",""
"","","","","","html-keyboard-response","37","261538","0.0-37.0","0BF93AFE2163417D97A40C36DB20DE03","0199ad16-3fa9-7711-b901-d3be713d40fa","0199ace1-b359-7f5c-9116-f77d3800ea9b","","null","<div style=""display: flex; justify-content: center; align-items: center;"">
                     <img src=""images/causal/causal_series_10/causal_series_10_c.png"" style=""width: 300px; height: 300px;"" />
                   </div>","null",""
"","","","","","html-button-response","38","262927","0.0-38.0","0BF93AFE2163417D97A40C36DB20DE03","0199ad16-3fa9-7711-b901-d3be713d40fa","0199ace1-b359-7f5c-9116-f77d3800ea9b","","1388","
        <div style=""display: flex; justify-content: center; align-items: center;"">
          <img src=""images/red_deck_2.png"" style=""width: 300px; height: 300px; margin-right: 10px;"" />
          <img src=""images/blue_deck_1.png"" style=""width: 300px; height: 300px;"" />
        </div>","0","0"
"","","","","","html-keyboard-response","39","269929","0.0-39.0-0.0-0.0","0BF93AFE2163417D97A40C36DB20DE03","0199ad16-3fa9-7711-b901-d3be713d40fa","0199ace1-b359-7f5c-9116-f77d3800ea9b","","null","<div style=""display: flex; justify-content: center; align-items: center;"">
                     <img src=""images/causal/causal_series_10/causal_series_10_d.png"" style=""width: 300px; height: 300px;"" />
                   </div>","null",""
"","","","","","html-keyboard-response","40","276942","0.0-40.0","0BF93AFE2163417D97A40C36DB20DE03","0199ad16-3fa9-7711-b901-d3be713d40fa","0199ace1-b359-7f5c-9116-f77d3800ea9b","","null","<div style=""display: flex; justify-content: center; align-items: center;"">
                     <img src=""images/other/blank.png"" style=""width: 300px; height: 300px;"" />
                   </div>","null",""
"","","","","","html-keyboard-response","41","283955","0.0-41.0","0BF93AFE2163417D97A40C36DB20DE03","0199ad16-3fa9-7711-b901-d3be713d40fa","0199ace1-b359-7f5c-9116-f77d3800ea9b","","null","<div style=""display: flex; justify-content: center; align-items: center;"">
                     <img src=""images/causal/causal_series_5/causal_series_5_a.png"" style=""width: 300px; height: 300px;"" />
                   </div>","null",""
"","","","","","html-keyboard-response","42","290969","0.0-42.0","0BF93AFE2163417D97A40C36DB20DE03","0199ad16-3fa9-7711-b901-d3be713d40fa","0199ace1-b359-7f5c-9116-f77d3800ea9b","","null","<div style=""display: flex; justify-content: center; align-items: center;"">
                     <img src=""images/causal/causal_series_5/causal_series_5_b.png"" style=""width: 300px; height: 300px;"" />
                   </div>","null",""
"","","","","","html-keyboard-response","43","297982","0.0-43.0","0BF93AFE2163417D97A40C36DB20DE03","0199ad16-3fa9-7711-b901-d3be713d40fa","0199ace1-b359-7f5c-9116-f77d3800ea9b","","null","<div style=""display: flex; justify-content: center; align-items: center;"">
                     <img src=""images/causal/causal_series_5/causal_series_5_c.png"" style=""width: 300px; height: 300px;"" />
                   </div>","null",""
"","","","","","html-button-response","44","299991","0.0-44.0","0BF93AFE2163417D97A40C36DB20DE03","0199ad16-3fa9-7711-b901-d3be713d40fa","0199ace1-b359-7f5c-9116-f77d3800ea9b","","2008","
        <div style=""display: flex; justify-content: center; align-items: center;"">
          <img src=""images/red_deck_2.png"" style=""width: 300px; height: 300px; margin-right: 10px;"" />
          <img src=""images/blue_deck_1.png"" style=""width: 300px; height: 300px;"" />
        </div>","1","1"
"","","","","","html-keyboard-response","45","306993","0.0-45.0-1.0-0.0","0BF93AFE2163417D97A40C36DB20DE03","0199ad16-3fa9-7711-b901-d3be713d40fa","0199ace1-b359-7f5c-9116-f77d3800ea9b","","null","<div style=""display: flex; justify-content: center; align-items: center;"">
                     <img src=""images/semantic/semantic_series_5/semantic_series_5_d.png"" style=""width: 300px; height: 300px;"" />
                   </div>","null",""
"","","","","","html-keyboard-response","46","313994","0.0-46.0","0BF93AFE2163417D97A40C36DB20DE03","0199ad16-3fa9-7711-b901-d3be713d40fa","0199ace1-b359-7f5c-9116-f77d3800ea9b","","null","<div style=""display: flex; justify-content: center; align-items: center;"">
                     <img src=""images/other/blank.png"" style=""width: 300px; height: 300px;"" />
                   </div>","null",""
"","","","","","html-keyboard-response","47","321004","0.0-47.0","0BF93AFE2163417D97A40C36DB20DE03","0199ad16-3fa9-7711-b901-d3be713d40fa","0199ace1-b359-7f5c-9116-f77d3800ea9b","","null","<div style=""display: flex; justify-content: center; align-items: center;"">
                     <img src=""images/causal/causal_series_1/causal_series_1_a.png"" style=""width: 300px; height: 300px;"" />
                   </div>","null",""
"","","","","","html-keyboard-response","48","328016","0.0-48.0","0BF93AFE2163417D97A40C36DB20DE03","0199ad16-3fa9-7711-b901-d3be713d40fa","0199ace1-b359-7f5c-9116-f77d3800ea9b","","null","<div style=""display: flex; justify-content: center; align-items: center;"">
                     <img src=""images/causal/causal_series_1/causal_series_1_b.png"" style=""width: 300px; height: 300px;"" />
                   </div>","null",""
"","","","","","html-keyboard-response","49","335018","0.0-49.0","0BF93AFE2163417D97A40C36DB20DE03","0199ad16-3fa9-7711-b901-d3be713d40fa","0199ace1-b359-7f5c-9116-f77d3800ea9b","","null","<div style=""display: flex; justify-content: center; align-items: center;"">
                     <img src=""images/causal/causal_series_1/causal_series_1_c.png"" style=""width: 300px; height: 300px;"" />
                   </div>","null",""
"","","","","","html-button-response","50","336760","0.0-50.0","0BF93AFE2163417D97A40C36DB20DE03","0199ad16-3fa9-7711-b901-d3be713d40fa","0199ace1-b359-7f5c-9116-f77d3800ea9b","","1742","
        <div style=""display: flex; justify-content: center; align-items: center;"">
          <img src=""images/red_deck_2.png"" style=""width: 300px; height: 300px; margin-right: 10px;"" />
          <img src=""images/blue_deck_1.png"" style=""width: 300px; height: 300px;"" />
        </div>","0","0"
"","","","","","html-keyboard-response","51","343764","0.0-51.0-0.0-0.0","0BF93AFE2163417D97A40C36DB20DE03","0199ad16-3fa9-7711-b901-d3be713d40fa","0199ace1-b359-7f5c-9116-f77d3800ea9b","","null","<div style=""display: flex; justify-content: center; align-items: center;"">
                     <img src=""images/causal/causal_series_1/causal_series_1_d.png"" style=""width: 300px; height: 300px;"" />
                   </div>","null",""
"","","","","","html-keyboard-response","52","350767","0.0-52.0","0BF93AFE2163417D97A40C36DB20DE03","0199ad16-3fa9-7711-b901-d3be713d40fa","0199ace1-b359-7f5c-9116-f77d3800ea9b","","null","<div style=""display: flex; justify-content: center; align-items: center;"">
                     <img src=""images/other/blank.png"" style=""width: 300px; height: 300px;"" />
                   </div>","null",""
"","","","","","html-keyboard-response","53","357768","0.0-53.0","0BF93AFE2163417D97A40C36DB20DE03","0199ad16-3fa9-7711-b901-d3be713d40fa","0199ace1-b359-7f5c-9116-f77d3800ea9b","","null","<div style=""display: flex; justify-content: center; align-items: center;"">
                     <img src=""images/causal/causal_series_8/causal_series_8_a.png"" style=""width: 300px; height: 300px;"" />
                   </div>","null",""
"","","","","","html-keyboard-response","54","364781","0.0-54.0","0BF93AFE2163417D97A40C36DB20DE03","0199ad16-3fa9-7711-b901-d3be713d40fa","0199ace1-b359-7f5c-9116-f77d3800ea9b","","null","<div style=""display: flex; justify-content: center; align-items: center;"">
                     <img src=""images/causal/causal_series_8/causal_series_8_b.png"" style=""width: 300px; height: 300px;"" />
                   </div>","null",""
"","","","","","html-keyboard-response","55","371784","0.0-55.0","0BF93AFE2163417D97A40C36DB20DE03","0199ad16-3fa9-7711-b901-d3be713d40fa","0199ace1-b359-7f5c-9116-f77d3800ea9b","","null","<div style=""display: flex; justify-content: center; align-items: center;"">
                     <img src=""images/causal/causal_series_8/causal_series_8_c.png"" style=""width: 300px; height: 300px;"" />
                   </div>","null",""
"","","","","","html-button-response","56","373365","0.0-56.0","0BF93AFE2163417D97A40C36DB20DE03","0199ad16-3fa9-7711-b901-d3be713d40fa","0199ace1-b359-7f5c-9116-f77d3800ea9b","","1579","
        <div style=""display: flex; justify-content: center; align-items: center;"">
          <img src=""images/red_deck_2.png"" style=""width: 300px; height: 300px; margin-right: 10px;"" />
          <img src=""images/blue_deck_1.png"" style=""width: 300px; height: 300px;"" />
        </div>","0","0"
"","","","","","html-keyboard-response","57","380374","0.0-57.0-0.0-0.0","0BF93AFE2163417D97A40C36DB20DE03","0199ad16-3fa9-7711-b901-d3be713d40fa","0199ace1-b359-7f5c-9116-f77d3800ea9b","","null","<div style=""display: flex; justify-content: center; align-items: center;"">
                     <img src=""images/causal/causal_series_8/causal_series_8_d.png"" style=""width: 300px; height: 300px;"" />
                   </div>","null",""
"","","","","","html-keyboard-response","58","387377","0.0-58.0","0BF93AFE2163417D97A40C36DB20DE03","0199ad16-3fa9-7711-b901-d3be713d40fa","0199ace1-b359-7f5c-9116-f77d3800ea9b","","null","<div style=""display: flex; justify-content: center; align-items: center;"">
                     <img src=""images/other/blank.png"" style=""width: 300px; height: 300px;"" />
                   </div>","null",""
"","","","","","html-keyboard-response","59","394382","0.0-59.0","0BF93AFE2163417D97A40C36DB20DE03","0199ad16-3fa9-7711-b901-d3be713d40fa","0199ace1-b359-7f5c-9116-f77d3800ea9b","","null","<div style=""display: flex; justify-content: center; align-items: center;"">
                     <img src=""images/causal/causal_series_9/causal_series_9_a.png"" style=""width: 300px; height: 300px;"" />
                   </div>","null",""
"","","","","","html-keyboard-response","60","401383","0.0-60.0","0BF93AFE2163417D97A40C36DB20DE03","0199ad16-3fa9-7711-b901-d3be713d40fa","0199ace1-b359-7f5c-9116-f77d3800ea9b","","null","<div style=""display: flex; justify-content: center; align-items: center;"">
                     <img src=""images/causal/causal_series_9/causal_series_9_b.png"" style=""width: 300px; height: 300px;"" />
                   </div>","null",""
"","","","","","html-keyboard-response","61","408385","0.0-61.0","0BF93AFE2163417D97A40C36DB20DE03","0199ad16-3fa9-7711-b901-d3be713d40fa","0199ace1-b359-7f5c-9116-f77d3800ea9b","","null","<div style=""display: flex; justify-content: center; align-items: center;"">
                     <img src=""images/causal/causal_series_9/causal_series_9_c.png"" style=""width: 300px; height: 300px;"" />
                   </div>","null",""
"","","","","","html-button-response","62","418893","0.0-62.0","0BF93AFE2163417D97A40C36DB20DE03","0199ad16-3fa9-7711-b901-d3be713d40fa","0199ace1-b359-7f5c-9116-f77d3800ea9b","","10506","
        <div style=""display: flex; justify-content: center; align-items: center;"">
          <img src=""images/red_deck_2.png"" style=""width: 300px; height: 300px; margin-right: 10px;"" />
          <img src=""images/blue_deck_1.png"" style=""width: 300px; height: 300px;"" />
        </div>","0","0"
"","","","","","html-keyboard-response","63","425898","0.0-63.0-0.0-0.0","0BF93AFE2163417D97A40C36DB20DE03","0199ad16-3fa9-7711-b901-d3be713d40fa","0199ace1-b359-7f5c-9116-f77d3800ea9b","","null","<div style=""display: flex; justify-content: center; align-items: center;"">
                     <img src=""images/causal/causal_series_9/causal_series_9_d.png"" style=""width: 300px; height: 300px;"" />
                   </div>","null",""
"","","","","","html-keyboard-response","64","432898","0.0-64.0","0BF93AFE2163417D97A40C36DB20DE03","0199ad16-3fa9-7711-b901-d3be713d40fa","0199ace1-b359-7f5c-9116-f77d3800ea9b","","null","<div style=""display: flex; justify-content: center; align-items: center;"">
                     <img src=""images/other/blank.png"" style=""width: 300px; height: 300px;"" />
                   </div>","null",""
"","","","","","survey-text","65","477737","0.0-65.0","0BF93AFE2163417D97A40C36DB20DE03","0199ad16-3fa9-7711-b901-d3be713d40fa","0199ace1-b359-7f5c-9116-f77d3800ea9b","","44830","","{""Q0"":""Sorry, I did not pick up on the difference""}",""
"","","","","","survey-text","66","493743","0.0-66.0","0BF93AFE2163417D97A40C36DB20DE03","0199ad16-3fa9-7711-b901-d3be713d40fa","0199ace1-b359-7f5c-9116-f77d3800ea9b","","16002","","{""Q0"":""I was not really too interested in either. It was the same for me.""}",""
"","","","","","html-button-response","67","498797","0.0-67.0","0BF93AFE2163417D97A40C36DB20DE03","0199ad16-3fa9-7711-b901-d3be713d40fa","0199ace1-b359-7f5c-9116-f77d3800ea9b","","5053","Which color deck does the fourth image continue the story from?","0",""
"","","","","","html-button-response","68","500590","0.0-68.0","0BF93AFE2163417D97A40C36DB20DE03","0199ad16-3fa9-7711-b901-d3be713d40fa","0199ace1-b359-7f5c-9116-f77d3800ea9b","","1793","Which color deck does the fourth image NOT follow the story from?","1",""
"","","","","","survey-text","69","505583","0.0-69.0","0BF93AFE2163417D97A40C36DB20DE03","0199ad16-3fa9-7711-b901-d3be713d40fa","0199ace1-b359-7f5c-9116-f77d3800ea9b","","4988","","{""Q0"":""male"",""Q1"":""34""}",""
"","","","","","instructions","70","508685","0.0-70.0","0BF93AFE2163417D97A40C36DB20DE03","0199ad16-3fa9-7711-b901-d3be713d40fa","0199ace1-b359-7f5c-9116-f77d3800ea9b","[{""page_index"":0,""viewing_time"":3100}]","3100","","",""
