"success","timeout","failed_images","failed_audio","failed_video","trial_type","trial_index","time_elapsed","internal_node_id","subject_id","study_id","session_id","view_history","rt","stimulus","response","choice"
"true","false","[]","[]","[]","preload","0","1708","0.0-0.0","13ABEE6BA7F94DA6AB2D21080759C642","e5f20988-0a2e-4922-b2b1-e75dae3e78b1","935a6d0c-0ba8-4f12-81d2-6af4ae24cda6","","","","",""
"","","","","","instructions","1","7266","0.0-1.0","13ABEE6BA7F94DA6AB2D21080759C642","e5f20988-0a2e-4922-b2b1-e75dae3e78b1","935a6d0c-0ba8-4f12-81d2-6af4ae24cda6","[{""page_index"":0,""viewing_time"":5556}]","5557","","",""
"","","","","","instructions","2","44823","0.0-2.0","13ABEE6BA7F94DA6AB2D21080759C642","e5f20988-0a2e-4922-b2b1-e75dae3e78b1","935a6d0c-0ba8-4f12-81d2-6af4ae24cda6","[{""page_index"":0,""viewing_time"":37552}]","37559","","",""
"true","","","","","fullscreen","3","48506","0.0-3.0","13ABEE6BA7F94DA6AB2D21080759C642","e5f20988-0a2e-4922-b2b1-e75dae3e78b1","935a6d0c-0ba8-4f12-81d2-6af4ae24cda6","","2676","","",""
"","","","","","instructions","4","63632","0.0-4.0","13ABEE6BA7F94DA6AB2D21080759C642","e5f20988-0a2e-4922-b2b1-e75dae3e78b1","935a6d0c-0ba8-4f12-81d2-6af4ae24cda6","[{""page_index"":0,""viewing_time"":15126}]","15126","","",""
"","","","","","html-keyboard-response","5","66635","0.0-5.0","13ABEE6BA7F94DA6AB2D21080759C642","e5f20988-0a2e-4922-b2b1-e75dae3e78b1","935a6d0c-0ba8-4f12-81d2-6af4ae24cda6","","null","<div style=""display: flex; justify-content: center; align-items: center;"">
                <img src=""images/causal/causal_series_6/causal_series_6_a.jpg"" style=""width: 300px; height: 300px;"" />
              </div>","null",""
"","","","","","html-button-response","6","70816","0.0-6.0","13ABEE6BA7F94DA6AB2D21080759C642","e5f20988-0a2e-4922-b2b1-e75dae3e78b1","935a6d0c-0ba8-4f12-81d2-6af4ae24cda6","","4178","
    <div style=""display: flex; justify-content: center; align-items: center;"">
      <img src=""images/red_deck_2.png"" style=""width: 300px; height: 300px; margin-right: 10px;"" />
      <img src=""images/blue_deck_1.png"" style=""width: 300px; height: 300px;"" />
    </div>","0","0"
"","","","","","html-keyboard-response","7","73818","0.0-7.0-0.0-0.0","13ABEE6BA7F94DA6AB2D21080759C642","e5f20988-0a2e-4922-b2b1-e75dae3e78b1","935a6d0c-0ba8-4f12-81d2-6af4ae24cda6","","null","<div style=""display: flex; justify-content: center; align-items: center;"">
                <img src=""images/causal/causal_series_6/causal_series_6_b.jpg"" style=""width: 300px; height: 300px;"" />
              </div>","null",""
"","","","","","html-keyboard-response","8","76821","0.0-7.0-0.0-1.0","13ABEE6BA7F94DA6AB2D21080759C642","e5f20988-0a2e-4922-b2b1-e75dae3e78b1","935a6d0c-0ba8-4f12-81d2-6af4ae24cda6","","null","<div style=""display: flex; justify-content: center; align-items: center;"">
                <img src=""images/causal/causal_series_6/causal_series_6_c.jpg"" style=""width: 300px; height: 300px;"" />
              </div>","null",""
"","","","","","html-keyboard-response","9","79824","0.0-7.0-0.0-2.0","13ABEE6BA7F94DA6AB2D21080759C642","e5f20988-0a2e-4922-b2b1-e75dae3e78b1","935a6d0c-0ba8-4f12-81d2-6af4ae24cda6","","null","<div style=""display: flex; justify-content: center; align-items: center;"">
                <img src=""images/causal/causal_series_6/causal_series_6_d.jpg"" style=""width: 300px; height: 300px;"" />
              </div>","null",""
"","","","","","html-keyboard-response","10","82828","0.0-8.0","13ABEE6BA7F94DA6AB2D21080759C642","e5f20988-0a2e-4922-b2b1-e75dae3e78b1","935a6d0c-0ba8-4f12-81d2-6af4ae24cda6","","null","<div style=""display: flex; justify-content: center; align-items: center;"">
                <img src=""images/other/blank.jpg"" style=""width: 300px; height: 300px;"" />
              </div>","null",""
"","","","","","html-keyboard-response","11","85831","0.0-9.0","13ABEE6BA7F94DA6AB2D21080759C642","e5f20988-0a2e-4922-b2b1-e75dae3e78b1","935a6d0c-0ba8-4f12-81d2-6af4ae24cda6","","null","<div style=""display: flex; justify-content: center; align-items: center;"">
                <img src=""images/causal/causal_series_12/causal_series_12_a.jpg"" style=""width: 300px; height: 300px;"" />
              </div>","null",""
"","","","","","html-button-response","12","89349","0.0-10.0","13ABEE6BA7F94DA6AB2D21080759C642","e5f20988-0a2e-4922-b2b1-e75dae3e78b1","935a6d0c-0ba8-4f12-81d2-6af4ae24cda6","","3515","
    <div style=""display: flex; justify-content: center; align-items: center;"">
      <img src=""images/red_deck_2.png"" style=""width: 300px; height: 300px; margin-right: 10px;"" />
      <img src=""images/blue_deck_1.png"" style=""width: 300px; height: 300px;"" />
    </div>","0","0"
"","","","","","html-keyboard-response","13","92351","0.0-11.0-0.0-0.0","13ABEE6BA7F94DA6AB2D21080759C642","e5f20988-0a2e-4922-b2b1-e75dae3e78b1","935a6d0c-0ba8-4f12-81d2-6af4ae24cda6","","null","<div style=""display: flex; justify-content: center; align-items: center;"">
                <img src=""images/causal/causal_series_12/causal_series_12_b.jpg"" style=""width: 300px; height: 300px;"" />
              </div>","null",""
"","","","","","html-keyboard-response","14","95354","0.0-11.0-0.0-1.0","13ABEE6BA7F94DA6AB2D21080759C642","e5f20988-0a2e-4922-b2b1-e75dae3e78b1","935a6d0c-0ba8-4f12-81d2-6af4ae24cda6","","null","<div style=""display: flex; justify-content: center; align-items: center;"">
                <img src=""images/causal/causal_series_12/causal_series_12_c.jpg"" style=""width: 300px; height: 300px;"" />
              </div>","null",""
"","","","","","html-keyboard-response","15","98357","0.0-11.0-0.0-2.0","13ABEE6BA7F94DA6AB2D21080759C642","e5f20988-0a2e-4922-b2b1-e75dae3e78b1","935a6d0c-0ba8-4f12-81d2-6af4ae24cda6","","null","<div style=""display: flex; justify-content: center; align-items: center;"">
                <img src=""images/causal/causal_series_12/causal_series_12_d.jpg"" style=""width: 300px; height: 300px;"" />
              </div>","null",""
"","","","","","html-keyboard-response","16","101360","0.0-12.0","13ABEE6BA7F94DA6AB2D21080759C642","e5f20988-0a2e-4922-b2b1-e75dae3e78b1","935a6d0c-0ba8-4f12-81d2-6af4ae24cda6","","null","<div style=""display: flex; justify-content: center; align-items: center;"">
                <img src=""images/other/blank.jpg"" style=""width: 300px; height: 300px;"" />
              </div>","null",""
"","","","","","html-keyboard-response","17","104364","0.0-13.0","13ABEE6BA7F94DA6AB2D21080759C642","e5f20988-0a2e-4922-b2b1-e75dae3e78b1","935a6d0c-0ba8-4f12-81d2-6af4ae24cda6","","null","<div style=""display: flex; justify-content: center; align-items: center;"">
                <img src=""images/causal/causal_series_4/causal_series_4_a.jpg"" style=""width: 300px; height: 300px;"" />
              </div>","null",""
"","","","","","html-button-response","18","106549","0.0-14.0","13ABEE6BA7F94DA6AB2D21080759C642","e5f20988-0a2e-4922-b2b1-e75dae3e78b1","935a6d0c-0ba8-4f12-81d2-6af4ae24cda6","","2183","
    <div style=""display: flex; justify-content: center; align-items: center;"">
      <img src=""images/red_deck_2.png"" style=""width: 300px; height: 300px; margin-right: 10px;"" />
      <img src=""images/blue_deck_1.png"" style=""width: 300px; height: 300px;"" />
    </div>","0","0"
"","","","","","html-keyboard-response","19","109552","0.0-15.0-0.0-0.0","13ABEE6BA7F94DA6AB2D21080759C642","e5f20988-0a2e-4922-b2b1-e75dae3e78b1","935a6d0c-0ba8-4f12-81d2-6af4ae24cda6","","null","<div style=""display: flex; justify-content: center; align-items: center;"">
                <img src=""images/causal/causal_series_4/causal_series_4_b.jpg"" style=""width: 300px; height: 300px;"" />
              </div>","null",""
"","","","","","html-keyboard-response","20","112555","0.0-15.0-0.0-1.0","13ABEE6BA7F94DA6AB2D21080759C642","e5f20988-0a2e-4922-b2b1-e75dae3e78b1","935a6d0c-0ba8-4f12-81d2-6af4ae24cda6","","null","<div style=""display: flex; justify-content: center; align-items: center;"">
                <img src=""images/causal/causal_series_4/causal_series_4_c.jpg"" style=""width: 300px; height: 300px;"" />
              </div>","null",""
"","","","","","html-keyboard-response","21","115557","0.0-15.0-0.0-2.0","13ABEE6BA7F94DA6AB2D21080759C642","e5f20988-0a2e-4922-b2b1-e75dae3e78b1","935a6d0c-0ba8-4f12-81d2-6af4ae24cda6","","null","<div style=""display: flex; justify-content: center; align-items: center;"">
                <img src=""images/causal/causal_series_4/causal_series_4_d.jpg"" style=""width: 300px; height: 300px;"" />
              </div>","null",""
"","","","","","html-keyboard-response","22","118560","0.0-16.0","13ABEE6BA7F94DA6AB2D21080759C642","e5f20988-0a2e-4922-b2b1-e75dae3e78b1","935a6d0c-0ba8-4f12-81d2-6af4ae24cda6","","null","<div style=""display: flex; justify-content: center; align-items: center;"">
                <img src=""images/other/blank.jpg"" style=""width: 300px; height: 300px;"" />
              </div>","null",""
"","","","","","html-keyboard-response","23","121564","0.0-17.0","13ABEE6BA7F94DA6AB2D21080759C642","e5f20988-0a2e-4922-b2b1-e75dae3e78b1","935a6d0c-0ba8-4f12-81d2-6af4ae24cda6","","null","<div style=""display: flex; justify-content: center; align-items: center;"">
                <img src=""images/causal/causal_series_18/causal_series_18_a.jpg"" style=""width: 300px; height: 300px;"" />
              </div>","null",""
"","","","","","html-button-response","24","125032","0.0-18.0","13ABEE6BA7F94DA6AB2D21080759C642","e5f20988-0a2e-4922-b2b1-e75dae3e78b1","935a6d0c-0ba8-4f12-81d2-6af4ae24cda6","","3466","
    <div style=""display: flex; justify-content: center; align-items: center;"">
      <img src=""images/red_deck_2.png"" style=""width: 300px; height: 300px; margin-right: 10px;"" />
      <img src=""images/blue_deck_1.png"" style=""width: 300px; height: 300px;"" />
    </div>","0","0"
"","","","","","html-keyboard-response","25","128035","0.0-19.0-0.0-0.0","13ABEE6BA7F94DA6AB2D21080759C642","e5f20988-0a2e-4922-b2b1-e75dae3e78b1","935a6d0c-0ba8-4f12-81d2-6af4ae24cda6","","null","<div style=""display: flex; justify-content: center; align-items: center;"">
                <img src=""images/causal/causal_series_18/causal_series_18_b.jpg"" style=""width: 300px; height: 300px;"" />
              </div>","null",""
"","","","","","html-keyboard-response","26","131038","0.0-19.0-0.0-1.0","13ABEE6BA7F94DA6AB2D21080759C642","e5f20988-0a2e-4922-b2b1-e75dae3e78b1","935a6d0c-0ba8-4f12-81d2-6af4ae24cda6","","null","<div style=""display: flex; justify-content: center; align-items: center;"">
                <img src=""images/causal/causal_series_18/causal_series_18_c.jpg"" style=""width: 300px; height: 300px;"" />
              </div>","null",""
"","","","","","html-keyboard-response","27","134042","0.0-19.0-0.0-2.0","13ABEE6BA7F94DA6AB2D21080759C642","e5f20988-0a2e-4922-b2b1-e75dae3e78b1","935a6d0c-0ba8-4f12-81d2-6af4ae24cda6","","null","<div style=""display: flex; justify-content: center; align-items: center;"">
                <img src=""images/causal/causal_series_18/causal_series_18_d.jpg"" style=""width: 300px; height: 300px;"" />
              </div>","null",""
"","","","","","html-keyboard-response","28","137045","0.0-20.0","13ABEE6BA7F94DA6AB2D21080759C642","e5f20988-0a2e-4922-b2b1-e75dae3e78b1","935a6d0c-0ba8-4f12-81d2-6af4ae24cda6","","null","<div style=""display: flex; justify-content: center; align-items: center;"">
                <img src=""images/other/blank.jpg"" style=""width: 300px; height: 300px;"" />
              </div>","null",""
"","","","","","html-keyboard-response","29","140048","0.0-21.0","13ABEE6BA7F94DA6AB2D21080759C642","e5f20988-0a2e-4922-b2b1-e75dae3e78b1","935a6d0c-0ba8-4f12-81d2-6af4ae24cda6","","null","<div style=""display: flex; justify-content: center; align-items: center;"">
                <img src=""images/causal/causal_series_5/causal_series_5_a.jpg"" style=""width: 300px; height: 300px;"" />
              </div>","null",""
"","","","","","html-button-response","30","143932","0.0-22.0","13ABEE6BA7F94DA6AB2D21080759C642","e5f20988-0a2e-4922-b2b1-e75dae3e78b1","935a6d0c-0ba8-4f12-81d2-6af4ae24cda6","","3881","
    <div style=""display: flex; justify-content: center; align-items: center;"">
      <img src=""images/red_deck_2.png"" style=""width: 300px; height: 300px; margin-right: 10px;"" />
      <img src=""images/blue_deck_1.png"" style=""width: 300px; height: 300px;"" />
    </div>","0","0"
"","","","","","html-keyboard-response","31","146933","0.0-23.0-0.0-0.0","13ABEE6BA7F94DA6AB2D21080759C642","e5f20988-0a2e-4922-b2b1-e75dae3e78b1","935a6d0c-0ba8-4f12-81d2-6af4ae24cda6","","null","<div style=""display: flex; justify-content: center; align-items: center;"">
                <img src=""images/causal/causal_series_5/causal_series_5_b.jpg"" style=""width: 300px; height: 300px;"" />
              </div>","null",""
"","","","","","html-keyboard-response","32","149936","0.0-23.0-0.0-1.0","13ABEE6BA7F94DA6AB2D21080759C642","e5f20988-0a2e-4922-b2b1-e75dae3e78b1","935a6d0c-0ba8-4f12-81d2-6af4ae24cda6","","null","<div style=""display: flex; justify-content: center; align-items: center;"">
                <img src=""images/causal/causal_series_5/causal_series_5_c.jpg"" style=""width: 300px; height: 300px;"" />
              </div>","null",""
"","","","","","html-keyboard-response","33","152939","0.0-23.0-0.0-2.0","13ABEE6BA7F94DA6AB2D21080759C642","e5f20988-0a2e-4922-b2b1-e75dae3e78b1","935a6d0c-0ba8-4f12-81d2-6af4ae24cda6","","null","<div style=""display: flex; justify-content: center; align-items: center;"">
                <img src=""images/causal/causal_series_5/causal_series_5_d.jpg"" style=""width: 300px; height: 300px;"" />
              </div>","null",""
"","","","","","html-keyboard-response","34","155943","0.0-24.0","13ABEE6BA7F94DA6AB2D21080759C642","e5f20988-0a2e-4922-b2b1-e75dae3e78b1","935a6d0c-0ba8-4f12-81d2-6af4ae24cda6","","null","<div style=""display: flex; justify-content: center; align-items: center;"">
                <img src=""images/other/blank.jpg"" style=""width: 300px; height: 300px;"" />
              </div>","null",""
"","","","","","html-keyboard-response","35","158946","0.0-25.0","13ABEE6BA7F94DA6AB2D21080759C642","e5f20988-0a2e-4922-b2b1-e75dae3e78b1","935a6d0c-0ba8-4f12-81d2-6af4ae24cda6","","null","<div style=""display: flex; justify-content: center; align-items: center;"">
                <img src=""images/causal/causal_series_10/causal_series_10_a.jpg"" style=""width: 300px; height: 300px;"" />
              </div>","null",""
"","","","","","html-button-response","36","160464","0.0-26.0","13ABEE6BA7F94DA6AB2D21080759C642","e5f20988-0a2e-4922-b2b1-e75dae3e78b1","935a6d0c-0ba8-4f12-81d2-6af4ae24cda6","","1516","
    <div style=""display: flex; justify-content: center; align-items: center;"">
      <img src=""images/red_deck_2.png"" style=""width: 300px; height: 300px; margin-right: 10px;"" />
      <img src=""images/blue_deck_1.png"" style=""width: 300px; height: 300px;"" />
    </div>","0","0"
"","","","","","html-keyboard-response","37","163466","0.0-27.0-0.0-0.0","13ABEE6BA7F94DA6AB2D21080759C642","e5f20988-0a2e-4922-b2b1-e75dae3e78b1","935a6d0c-0ba8-4f12-81d2-6af4ae24cda6","","null","<div style=""display: flex; justify-content: center; align-items: center;"">
                <img src=""images/causal/causal_series_10/causal_series_10_b.jpg"" style=""width: 300px; height: 300px;"" />
              </div>","null",""
"","","","","","html-keyboard-response","38","166470","0.0-27.0-0.0-1.0","13ABEE6BA7F94DA6AB2D21080759C642","e5f20988-0a2e-4922-b2b1-e75dae3e78b1","935a6d0c-0ba8-4f12-81d2-6af4ae24cda6","","null","<div style=""display: flex; justify-content: center; align-items: center;"">
                <img src=""images/causal/causal_series_10/causal_series_10_c.jpg"" style=""width: 300px; height: 300px;"" />
              </div>","null",""
"","","","","","html-keyboard-response","39","169473","0.0-27.0-0.0-2.0","13ABEE6BA7F94DA6AB2D21080759C642","e5f20988-0a2e-4922-b2b1-e75dae3e78b1","935a6d0c-0ba8-4f12-81d2-6af4ae24cda6","","null","<div style=""display: flex; justify-content: center; align-items: center;"">
                <img src=""images/causal/causal_series_10/causal_series_10_d.jpg"" style=""width: 300px; height: 300px;"" />
              </div>","null",""
"","","","","","html-keyboard-response","40","172476","0.0-28.0","13ABEE6BA7F94DA6AB2D21080759C642","e5f20988-0a2e-4922-b2b1-e75dae3e78b1","935a6d0c-0ba8-4f12-81d2-6af4ae24cda6","","null","<div style=""display: flex; justify-content: center; align-items: center;"">
                <img src=""images/other/blank.jpg"" style=""width: 300px; height: 300px;"" />
              </div>","null",""
"","","","","","html-keyboard-response","41","175479","0.0-29.0","13ABEE6BA7F94DA6AB2D21080759C642","e5f20988-0a2e-4922-b2b1-e75dae3e78b1","935a6d0c-0ba8-4f12-81d2-6af4ae24cda6","","null","<div style=""display: flex; justify-content: center; align-items: center;"">
                <img src=""images/causal/causal_series_1/causal_series_1_a.jpg"" style=""width: 300px; height: 300px;"" />
              </div>","null",""
"","","","","","html-button-response","42","179115","0.0-30.0","13ABEE6BA7F94DA6AB2D21080759C642","e5f20988-0a2e-4922-b2b1-e75dae3e78b1","935a6d0c-0ba8-4f12-81d2-6af4ae24cda6","","3635","
    <div style=""display: flex; justify-content: center; align-items: center;"">
      <img src=""images/red_deck_2.png"" style=""width: 300px; height: 300px; margin-right: 10px;"" />
      <img src=""images/blue_deck_1.png"" style=""width: 300px; height: 300px;"" />
    </div>","1","1"
"","","","","","html-keyboard-response","43","182117","0.0-31.0-1.0-0.0","13ABEE6BA7F94DA6AB2D21080759C642","e5f20988-0a2e-4922-b2b1-e75dae3e78b1","935a6d0c-0ba8-4f12-81d2-6af4ae24cda6","","null","<div style=""display: flex; justify-content: center; align-items: center;"">
                <img src=""images/semantic/semantic_series_18/semantic_series_18_d.jpg"" style=""width: 300px; height: 300px;"" />
              </div>","null",""
"","","","","","html-keyboard-response","44","185120","0.0-31.0-1.0-1.0","13ABEE6BA7F94DA6AB2D21080759C642","e5f20988-0a2e-4922-b2b1-e75dae3e78b1","935a6d0c-0ba8-4f12-81d2-6af4ae24cda6","","null","<div style=""display: flex; justify-content: center; align-items: center;"">
                <img src=""images/semantic/semantic_series_1/semantic_series_1_d.jpg"" style=""width: 300px; height: 300px;"" />
              </div>","null",""
"","","","","","html-keyboard-response","45","188122","0.0-31.0-1.0-2.0","13ABEE6BA7F94DA6AB2D21080759C642","e5f20988-0a2e-4922-b2b1-e75dae3e78b1","935a6d0c-0ba8-4f12-81d2-6af4ae24cda6","","null","<div style=""display: flex; justify-content: center; align-items: center;"">
                <img src=""images/semantic/semantic_series_2/semantic_series_2_d.jpg"" style=""width: 300px; height: 300px;"" />
              </div>","null",""
"","","","","","html-keyboard-response","46","191125","0.0-32.0","13ABEE6BA7F94DA6AB2D21080759C642","e5f20988-0a2e-4922-b2b1-e75dae3e78b1","935a6d0c-0ba8-4f12-81d2-6af4ae24cda6","","null","<div style=""display: flex; justify-content: center; align-items: center;"">
                <img src=""images/other/blank.jpg"" style=""width: 300px; height: 300px;"" />
              </div>","null",""
"","","","","","html-keyboard-response","47","194128","0.0-33.0","13ABEE6BA7F94DA6AB2D21080759C642","e5f20988-0a2e-4922-b2b1-e75dae3e78b1","935a6d0c-0ba8-4f12-81d2-6af4ae24cda6","","null","<div style=""display: flex; justify-content: center; align-items: center;"">
                <img src=""images/causal/causal_series_16/causal_series_16_a.jpg"" style=""width: 300px; height: 300px;"" />
              </div>","null",""
"","","","","","html-button-response","48","196930","0.0-34.0","13ABEE6BA7F94DA6AB2D21080759C642","e5f20988-0a2e-4922-b2b1-e75dae3e78b1","935a6d0c-0ba8-4f12-81d2-6af4ae24cda6","","2800","
    <div style=""display: flex; justify-content: center; align-items: center;"">
      <img src=""images/red_deck_2.png"" style=""width: 300px; height: 300px; margin-right: 10px;"" />
      <img src=""images/blue_deck_1.png"" style=""width: 300px; height: 300px;"" />
    </div>","0","0"
"","","","","","html-keyboard-response","49","199931","0.0-35.0-0.0-0.0","13ABEE6BA7F94DA6AB2D21080759C642","e5f20988-0a2e-4922-b2b1-e75dae3e78b1","935a6d0c-0ba8-4f12-81d2-6af4ae24cda6","","null","<div style=""display: flex; justify-content: center; align-items: center;"">
                <img src=""images/causal/causal_series_16/causal_series_16_b.jpg"" style=""width: 300px; height: 300px;"" />
              </div>","null",""
"","","","","","html-keyboard-response","50","202934","0.0-35.0-0.0-1.0","13ABEE6BA7F94DA6AB2D21080759C642","e5f20988-0a2e-4922-b2b1-e75dae3e78b1","935a6d0c-0ba8-4f12-81d2-6af4ae24cda6","","null","<div style=""display: flex; justify-content: center; align-items: center;"">
                <img src=""images/causal/causal_series_16/causal_series_16_c.jpg"" style=""width: 300px; height: 300px;"" />
              </div>","null",""
"","","","","","html-keyboard-response","51","205937","0.0-35.0-0.0-2.0","13ABEE6BA7F94DA6AB2D21080759C642","e5f20988-0a2e-4922-b2b1-e75dae3e78b1","935a6d0c-0ba8-4f12-81d2-6af4ae24cda6","","null","<div style=""display: flex; justify-content: center; align-items: center;"">
                <img src=""images/causal/causal_series_16/causal_series_16_d.jpg"" style=""width: 300px; height: 300px;"" />
              </div>","null",""
"","","","","","html-keyboard-response","52","208938","0.0-36.0","13ABEE6BA7F94DA6AB2D21080759C642","e5f20988-0a2e-4922-b2b1-e75dae3e78b1","935a6d0c-0ba8-4f12-81d2-6af4ae24cda6","","null","<div style=""display: flex; justify-content: center; align-items: center;"">
                <img src=""images/other/blank.jpg"" style=""width: 300px; height: 300px;"" />
              </div>","null",""
"","","","","","html-keyboard-response","53","211941","0.0-37.0","13ABEE6BA7F94DA6AB2D21080759C642","e5f20988-0a2e-4922-b2b1-e75dae3e78b1","935a6d0c-0ba8-4f12-81d2-6af4ae24cda6","","null","<div style=""display: flex; justify-content: center; align-items: center;"">
                <img src=""images/causal/causal_series_2/causal_series_2_a.jpg"" style=""width: 300px; height: 300px;"" />
              </div>","null",""
"","","","","","html-button-response","54","213263","0.0-38.0","13ABEE6BA7F94DA6AB2D21080759C642","e5f20988-0a2e-4922-b2b1-e75dae3e78b1","935a6d0c-0ba8-4f12-81d2-6af4ae24cda6","","1320","
    <div style=""display: flex; justify-content: center; align-items: center;"">
      <img src=""images/red_deck_2.png"" style=""width: 300px; height: 300px; margin-right: 10px;"" />
      <img src=""images/blue_deck_1.png"" style=""width: 300px; height: 300px;"" />
    </div>","0","0"
"","","","","","html-keyboard-response","55","216265","0.0-39.0-0.0-0.0","13ABEE6BA7F94DA6AB2D21080759C642","e5f20988-0a2e-4922-b2b1-e75dae3e78b1","935a6d0c-0ba8-4f12-81d2-6af4ae24cda6","","null","<div style=""display: flex; justify-content: center; align-items: center;"">
                <img src=""images/causal/causal_series_2/causal_series_2_b.jpg"" style=""width: 300px; height: 300px;"" />
              </div>","null",""
"","","","","","html-keyboard-response","56","219267","0.0-39.0-0.0-1.0","13ABEE6BA7F94DA6AB2D21080759C642","e5f20988-0a2e-4922-b2b1-e75dae3e78b1","935a6d0c-0ba8-4f12-81d2-6af4ae24cda6","","null","<div style=""display: flex; justify-content: center; align-items: center;"">
                <img src=""images/causal/causal_series_2/causal_series_2_c.jpg"" style=""width: 300px; height: 300px;"" />
              </div>","null",""
"","","","","","html-keyboard-response","57","222270","0.0-39.0-0.0-2.0","13ABEE6BA7F94DA6AB2D21080759C642","e5f20988-0a2e-4922-b2b1-e75dae3e78b1","935a6d0c-0ba8-4f12-81d2-6af4ae24cda6","","null","<div style=""display: flex; justify-content: center; align-items: center;"">
                <img src=""images/causal/causal_series_2/causal_series_2_d.jpg"" style=""width: 300px; height: 300px;"" />
              </div>","null",""
"","","","","","html-keyboard-response","58","225274","0.0-40.0","13ABEE6BA7F94DA6AB2D21080759C642","e5f20988-0a2e-4922-b2b1-e75dae3e78b1","935a6d0c-0ba8-4f12-81d2-6af4ae24cda6","","null","<div style=""display: flex; justify-content: center; align-items: center;"">
                <img src=""images/other/blank.jpg"" style=""width: 300px; height: 300px;"" />
              </div>","null",""
"","","","","","html-keyboard-response","59","228277","0.0-41.0","13ABEE6BA7F94DA6AB2D21080759C642","e5f20988-0a2e-4922-b2b1-e75dae3e78b1","935a6d0c-0ba8-4f12-81d2-6af4ae24cda6","","null","<div style=""display: flex; justify-content: center; align-items: center;"">
                <img src=""images/causal/causal_series_8/causal_series_8_a.jpg"" style=""width: 300px; height: 300px;"" />
              </div>","null",""
"","","","","","html-button-response","60","229597","0.0-42.0","13ABEE6BA7F94DA6AB2D21080759C642","e5f20988-0a2e-4922-b2b1-e75dae3e78b1","935a6d0c-0ba8-4f12-81d2-6af4ae24cda6","","1317","
    <div style=""display: flex; justify-content: center; align-items: center;"">
      <img src=""images/red_deck_2.png"" style=""width: 300px; height: 300px; margin-right: 10px;"" />
      <img src=""images/blue_deck_1.png"" style=""width: 300px; height: 300px;"" />
    </div>","0","0"
"","","","","","html-keyboard-response","61","232599","0.0-43.0-0.0-0.0","13ABEE6BA7F94DA6AB2D21080759C642","e5f20988-0a2e-4922-b2b1-e75dae3e78b1","935a6d0c-0ba8-4f12-81d2-6af4ae24cda6","","null","<div style=""display: flex; justify-content: center; align-items: center;"">
                <img src=""images/causal/causal_series_8/causal_series_8_b.jpg"" style=""width: 300px; height: 300px;"" />
              </div>","null",""
"","","","","","html-keyboard-response","62","235602","0.0-43.0-0.0-1.0","13ABEE6BA7F94DA6AB2D21080759C642","e5f20988-0a2e-4922-b2b1-e75dae3e78b1","935a6d0c-0ba8-4f12-81d2-6af4ae24cda6","","null","<div style=""display: flex; justify-content: center; align-items: center;"">
                <img src=""images/causal/causal_series_8/causal_series_8_c.jpg"" style=""width: 300px; height: 300px;"" />
              </div>","null",""
"","","","","","html-keyboard-response","63","238604","0.0-43.0-0.0-2.0","13ABEE6BA7F94DA6AB2D21080759C642","e5f20988-0a2e-4922-b2b1-e75dae3e78b1","935a6d0c-0ba8-4f12-81d2-6af4ae24cda6","","null","<div style=""display: flex; justify-content: center; align-items: center;"">
                <img src=""images/causal/causal_series_8/causal_series_8_d.jpg"" style=""width: 300px; height: 300px;"" />
              </div>","null",""
"","","","","","html-keyboard-response","64","241607","0.0-44.0","13ABEE6BA7F94DA6AB2D21080759C642","e5f20988-0a2e-4922-b2b1-e75dae3e78b1","935a6d0c-0ba8-4f12-81d2-6af4ae24cda6","","null","<div style=""display: flex; justify-content: center; align-items: center;"">
                <img src=""images/other/blank.jpg"" style=""width: 300px; height: 300px;"" />
              </div>","null",""
"","","","","","html-keyboard-response","65","244610","0.0-45.0","13ABEE6BA7F94DA6AB2D21080759C642","e5f20988-0a2e-4922-b2b1-e75dae3e78b1","935a6d0c-0ba8-4f12-81d2-6af4ae24cda6","","null","<div style=""display: flex; justify-content: center; align-items: center;"">
                <img src=""images/causal/causal_series_14/causal_series_14_a.jpg"" style=""width: 300px; height: 300px;"" />
              </div>","null",""
"","","","","","html-button-response","66","245646","0.0-46.0","13ABEE6BA7F94DA6AB2D21080759C642","e5f20988-0a2e-4922-b2b1-e75dae3e78b1","935a6d0c-0ba8-4f12-81d2-6af4ae24cda6","","1034","
    <div style=""display: flex; justify-content: center; align-items: center;"">
      <img src=""images/red_deck_2.png"" style=""width: 300px; height: 300px; margin-right: 10px;"" />
      <img src=""images/blue_deck_1.png"" style=""width: 300px; height: 300px;"" />
    </div>","0","0"
"","","","","","html-keyboard-response","67","248648","0.0-47.0-0.0-0.0","13ABEE6BA7F94DA6AB2D21080759C642","e5f20988-0a2e-4922-b2b1-e75dae3e78b1","935a6d0c-0ba8-4f12-81d2-6af4ae24cda6","","null","<div style=""display: flex; justify-content: center; align-items: center;"">
                <img src=""images/causal/causal_series_14/causal_series_14_b.jpg"" style=""width: 300px; height: 300px;"" />
              </div>","null",""
"","","","","","html-keyboard-response","68","251650","0.0-47.0-0.0-1.0","13ABEE6BA7F94DA6AB2D21080759C642","e5f20988-0a2e-4922-b2b1-e75dae3e78b1","935a6d0c-0ba8-4f12-81d2-6af4ae24cda6","","null","<div style=""display: flex; justify-content: center; align-items: center;"">
                <img src=""images/causal/causal_series_14/causal_series_14_c.jpg"" style=""width: 300px; height: 300px;"" />
              </div>","null",""
"","","","","","html-keyboard-response","69","254653","0.0-47.0-0.0-2.0","13ABEE6BA7F94DA6AB2D21080759C642","e5f20988-0a2e-4922-b2b1-e75dae3e78b1","935a6d0c-0ba8-4f12-81d2-6af4ae24cda6","","null","<div style=""display: flex; justify-content: center; align-items: center;"">
                <img src=""images/causal/causal_series_14/causal_series_14_d.jpg"" style=""width: 300px; height: 300px;"" />
              </div>","null",""
"","","","","","html-keyboard-response","70","257655","0.0-48.0","13ABEE6BA7F94DA6AB2D21080759C642","e5f20988-0a2e-4922-b2b1-e75dae3e78b1","935a6d0c-0ba8-4f12-81d2-6af4ae24cda6","","null","<div style=""display: flex; justify-content: center; align-items: center;"">
                <img src=""images/other/blank.jpg"" style=""width: 300px; height: 300px;"" />
              </div>","null",""
"","","","","","html-keyboard-response","71","260658","0.0-49.0","13ABEE6BA7F94DA6AB2D21080759C642","e5f20988-0a2e-4922-b2b1-e75dae3e78b1","935a6d0c-0ba8-4f12-81d2-6af4ae24cda6","","null","<div style=""display: flex; justify-content: center; align-items: center;"">
                <img src=""images/causal/causal_series_7/causal_series_7_a.jpg"" style=""width: 300px; height: 300px;"" />
              </div>","null",""
"","","","","","html-button-response","72","262196","0.0-50.0","13ABEE6BA7F94DA6AB2D21080759C642","e5f20988-0a2e-4922-b2b1-e75dae3e78b1","935a6d0c-0ba8-4f12-81d2-6af4ae24cda6","","1537","
    <div style=""display: flex; justify-content: center; align-items: center;"">
      <img src=""images/red_deck_2.png"" style=""width: 300px; height: 300px; margin-right: 10px;"" />
      <img src=""images/blue_deck_1.png"" style=""width: 300px; height: 300px;"" />
    </div>","1","1"
"","","","","","html-keyboard-response","73","265198","0.0-51.0-1.0-0.0","13ABEE6BA7F94DA6AB2D21080759C642","e5f20988-0a2e-4922-b2b1-e75dae3e78b1","935a6d0c-0ba8-4f12-81d2-6af4ae24cda6","","null","<div style=""display: flex; justify-content: center; align-items: center;"">
                <img src=""images/semantic/semantic_series_18/semantic_series_18_d.jpg"" style=""width: 300px; height: 300px;"" />
              </div>","null",""
"","","","","","html-keyboard-response","74","268200","0.0-51.0-1.0-1.0","13ABEE6BA7F94DA6AB2D21080759C642","e5f20988-0a2e-4922-b2b1-e75dae3e78b1","935a6d0c-0ba8-4f12-81d2-6af4ae24cda6","","null","<div style=""display: flex; justify-content: center; align-items: center;"">
                <img src=""images/semantic/semantic_series_1/semantic_series_1_d.jpg"" style=""width: 300px; height: 300px;"" />
              </div>","null",""
"","","","","","html-keyboard-response","75","271202","0.0-51.0-1.0-2.0","13ABEE6BA7F94DA6AB2D21080759C642","e5f20988-0a2e-4922-b2b1-e75dae3e78b1","935a6d0c-0ba8-4f12-81d2-6af4ae24cda6","","null","<div style=""display: flex; justify-content: center; align-items: center;"">
                <img src=""images/semantic/semantic_series_2/semantic_series_2_d.jpg"" style=""width: 300px; height: 300px;"" />
              </div>","null",""
"","","","","","html-keyboard-response","76","274204","0.0-52.0","13ABEE6BA7F94DA6AB2D21080759C642","e5f20988-0a2e-4922-b2b1-e75dae3e78b1","935a6d0c-0ba8-4f12-81d2-6af4ae24cda6","","null","<div style=""display: flex; justify-content: center; align-items: center;"">
                <img src=""images/other/blank.jpg"" style=""width: 300px; height: 300px;"" />
              </div>","null",""
"","","","","","html-keyboard-response","77","277206","0.0-53.0","13ABEE6BA7F94DA6AB2D21080759C642","e5f20988-0a2e-4922-b2b1-e75dae3e78b1","935a6d0c-0ba8-4f12-81d2-6af4ae24cda6","","null","<div style=""display: flex; justify-content: center; align-items: center;"">
                <img src=""images/causal/causal_series_15/causal_series_15_a.jpg"" style=""width: 300px; height: 300px;"" />
              </div>","null",""
"","","","","","html-button-response","78","278848","0.0-54.0","13ABEE6BA7F94DA6AB2D21080759C642","e5f20988-0a2e-4922-b2b1-e75dae3e78b1","935a6d0c-0ba8-4f12-81d2-6af4ae24cda6","","1639","
    <div style=""display: flex; justify-content: center; align-items: center;"">
      <img src=""images/red_deck_2.png"" style=""width: 300px; height: 300px; margin-right: 10px;"" />
      <img src=""images/blue_deck_1.png"" style=""width: 300px; height: 300px;"" />
    </div>","1","1"
"","","","","","html-keyboard-response","79","281850","0.0-55.0-1.0-0.0","13ABEE6BA7F94DA6AB2D21080759C642","e5f20988-0a2e-4922-b2b1-e75dae3e78b1","935a6d0c-0ba8-4f12-81d2-6af4ae24cda6","","null","<div style=""display: flex; justify-content: center; align-items: center;"">
                <img src=""images/semantic/semantic_series_6/semantic_series_6_d.jpg"" style=""width: 300px; height: 300px;"" />
              </div>","null",""
"","","","","","html-keyboard-response","80","284854","0.0-55.0-1.0-1.0","13ABEE6BA7F94DA6AB2D21080759C642","e5f20988-0a2e-4922-b2b1-e75dae3e78b1","935a6d0c-0ba8-4f12-81d2-6af4ae24cda6","","null","<div style=""display: flex; justify-content: center; align-items: center;"">
                <img src=""images/semantic/semantic_series_7/semantic_series_7_d.jpg"" style=""width: 300px; height: 300px;"" />
              </div>","null",""
"","","","","","html-keyboard-response","81","287857","0.0-55.0-1.0-2.0","13ABEE6BA7F94DA6AB2D21080759C642","e5f20988-0a2e-4922-b2b1-e75dae3e78b1","935a6d0c-0ba8-4f12-81d2-6af4ae24cda6","","null","<div style=""display: flex; justify-content: center; align-items: center;"">
                <img src=""images/semantic/semantic_series_8/semantic_series_8_d.jpg"" style=""width: 300px; height: 300px;"" />
              </div>","null",""
"","","","","","html-keyboard-response","82","290860","0.0-56.0","13ABEE6BA7F94DA6AB2D21080759C642","e5f20988-0a2e-4922-b2b1-e75dae3e78b1","935a6d0c-0ba8-4f12-81d2-6af4ae24cda6","","null","<div style=""display: flex; justify-content: center; align-items: center;"">
                <img src=""images/other/blank.jpg"" style=""width: 300px; height: 300px;"" />
              </div>","null",""
"","","","","","html-keyboard-response","83","293862","0.0-57.0","13ABEE6BA7F94DA6AB2D21080759C642","e5f20988-0a2e-4922-b2b1-e75dae3e78b1","935a6d0c-0ba8-4f12-81d2-6af4ae24cda6","","null","<div style=""display: flex; justify-content: center; align-items: center;"">
                <img src=""images/causal/causal_series_17/causal_series_17_a.jpg"" style=""width: 300px; height: 300px;"" />
              </div>","null",""
"","","","","","html-button-response","84","297614","0.0-58.0","13ABEE6BA7F94DA6AB2D21080759C642","e5f20988-0a2e-4922-b2b1-e75dae3e78b1","935a6d0c-0ba8-4f12-81d2-6af4ae24cda6","","3749","
    <div style=""display: flex; justify-content: center; align-items: center;"">
      <img src=""images/red_deck_2.png"" style=""width: 300px; height: 300px; margin-right: 10px;"" />
      <img src=""images/blue_deck_1.png"" style=""width: 300px; height: 300px;"" />
    </div>","1","1"
"","","","","","html-keyboard-response","85","300616","0.0-59.0-1.0-0.0","13ABEE6BA7F94DA6AB2D21080759C642","e5f20988-0a2e-4922-b2b1-e75dae3e78b1","935a6d0c-0ba8-4f12-81d2-6af4ae24cda6","","null","<div style=""display: flex; justify-content: center; align-items: center;"">
                <img src=""images/semantic/semantic_series_12/semantic_series_12_d.jpg"" style=""width: 300px; height: 300px;"" />
              </div>","null",""
"","","","","","html-keyboard-response","86","303619","0.0-59.0-1.0-1.0","13ABEE6BA7F94DA6AB2D21080759C642","e5f20988-0a2e-4922-b2b1-e75dae3e78b1","935a6d0c-0ba8-4f12-81d2-6af4ae24cda6","","null","<div style=""display: flex; justify-content: center; align-items: center;"">
                <img src=""images/semantic/semantic_series_13/semantic_series_13_d.jpg"" style=""width: 300px; height: 300px;"" />
              </div>","null",""
"","","","","","html-keyboard-response","87","306622","0.0-59.0-1.0-2.0","13ABEE6BA7F94DA6AB2D21080759C642","e5f20988-0a2e-4922-b2b1-e75dae3e78b1","935a6d0c-0ba8-4f12-81d2-6af4ae24cda6","","null","<div style=""display: flex; justify-content: center; align-items: center;"">
                <img src=""images/semantic/semantic_series_14/semantic_series_14_d.jpg"" style=""width: 300px; height: 300px;"" />
              </div>","null",""
"","","","","","html-keyboard-response","88","309625","0.0-60.0","13ABEE6BA7F94DA6AB2D21080759C642","e5f20988-0a2e-4922-b2b1-e75dae3e78b1","935a6d0c-0ba8-4f12-81d2-6af4ae24cda6","","null","<div style=""display: flex; justify-content: center; align-items: center;"">
                <img src=""images/other/blank.jpg"" style=""width: 300px; height: 300px;"" />
              </div>","null",""
"","","","","","html-keyboard-response","89","312627","0.0-61.0","13ABEE6BA7F94DA6AB2D21080759C642","e5f20988-0a2e-4922-b2b1-e75dae3e78b1","935a6d0c-0ba8-4f12-81d2-6af4ae24cda6","","null","<div style=""display: flex; justify-content: center; align-items: center;"">
                <img src=""images/causal/causal_series_11/causal_series_11_a.jpg"" style=""width: 300px; height: 300px;"" />
              </div>","null",""
"","","","","","html-button-response","90","313496","0.0-62.0","13ABEE6BA7F94DA6AB2D21080759C642","e5f20988-0a2e-4922-b2b1-e75dae3e78b1","935a6d0c-0ba8-4f12-81d2-6af4ae24cda6","","866","
    <div style=""display: flex; justify-content: center; align-items: center;"">
      <img src=""images/red_deck_2.png"" style=""width: 300px; height: 300px; margin-right: 10px;"" />
      <img src=""images/blue_deck_1.png"" style=""width: 300px; height: 300px;"" />
    </div>","0","0"
"","","","","","html-keyboard-response","91","316498","0.0-63.0-0.0-0.0","13ABEE6BA7F94DA6AB2D21080759C642","e5f20988-0a2e-4922-b2b1-e75dae3e78b1","935a6d0c-0ba8-4f12-81d2-6af4ae24cda6","","null","<div style=""display: flex; justify-content: center; align-items: center;"">
                <img src=""images/causal/causal_series_11/causal_series_11_b.jpg"" style=""width: 300px; height: 300px;"" />
              </div>","null",""
"","","","","","html-keyboard-response","92","319501","0.0-63.0-0.0-1.0","13ABEE6BA7F94DA6AB2D21080759C642","e5f20988-0a2e-4922-b2b1-e75dae3e78b1","935a6d0c-0ba8-4f12-81d2-6af4ae24cda6","","null","<div style=""display: flex; justify-content: center; align-items: center;"">
                <img src=""images/causal/causal_series_11/causal_series_11_c.jpg"" style=""width: 300px; height: 300px;"" />
              </div>","null",""
"","","","","","html-keyboard-response","93","322504","0.0-63.0-0.0-2.0","13ABEE6BA7F94DA6AB2D21080759C642","e5f20988-0a2e-4922-b2b1-e75dae3e78b1","935a6d0c-0ba8-4f12-81d2-6af4ae24cda6","","null","<div style=""display: flex; justify-content: center; align-items: center;"">
                <img src=""images/causal/causal_series_11/causal_series_11_d.jpg"" style=""width: 300px; height: 300px;"" />
              </div>","null",""
"","","","","","html-keyboard-response","94","325506","0.0-64.0","13ABEE6BA7F94DA6AB2D21080759C642","e5f20988-0a2e-4922-b2b1-e75dae3e78b1","935a6d0c-0ba8-4f12-81d2-6af4ae24cda6","","null","<div style=""display: flex; justify-content: center; align-items: center;"">
                <img src=""images/other/blank.jpg"" style=""width: 300px; height: 300px;"" />
              </div>","null",""
"","","","","","html-keyboard-response","95","328509","0.0-65.0","13ABEE6BA7F94DA6AB2D21080759C642","e5f20988-0a2e-4922-b2b1-e75dae3e78b1","935a6d0c-0ba8-4f12-81d2-6af4ae24cda6","","null","<div style=""display: flex; justify-content: center; align-items: center;"">
                <img src=""images/causal/causal_series_13/causal_series_13_a.jpg"" style=""width: 300px; height: 300px;"" />
              </div>","null",""
"","","","","","html-button-response","96","330429","0.0-66.0","13ABEE6BA7F94DA6AB2D21080759C642","e5f20988-0a2e-4922-b2b1-e75dae3e78b1","935a6d0c-0ba8-4f12-81d2-6af4ae24cda6","","1918","
    <div style=""display: flex; justify-content: center; align-items: center;"">
      <img src=""images/red_deck_2.png"" style=""width: 300px; height: 300px; margin-right: 10px;"" />
      <img src=""images/blue_deck_1.png"" style=""width: 300px; height: 300px;"" />
    </div>","1","1"
"","","","","","html-keyboard-response","97","333431","0.0-67.0-1.0-0.0","13ABEE6BA7F94DA6AB2D21080759C642","e5f20988-0a2e-4922-b2b1-e75dae3e78b1","935a6d0c-0ba8-4f12-81d2-6af4ae24cda6","","null","<div style=""display: flex; justify-content: center; align-items: center;"">
                <img src=""images/semantic/semantic_series_18/semantic_series_18_d.jpg"" style=""width: 300px; height: 300px;"" />
              </div>","null",""
"","","","","","html-keyboard-response","98","336433","0.0-67.0-1.0-1.0","13ABEE6BA7F94DA6AB2D21080759C642","e5f20988-0a2e-4922-b2b1-e75dae3e78b1","935a6d0c-0ba8-4f12-81d2-6af4ae24cda6","","null","<div style=""display: flex; justify-content: center; align-items: center;"">
                <img src=""images/semantic/semantic_series_1/semantic_series_1_d.jpg"" style=""width: 300px; height: 300px;"" />
              </div>","null",""
"","","","","","html-keyboard-response","99","339435","0.0-67.0-1.0-2.0","13ABEE6BA7F94DA6AB2D21080759C642","e5f20988-0a2e-4922-b2b1-e75dae3e78b1","935a6d0c-0ba8-4f12-81d2-6af4ae24cda6","","null","<div style=""display: flex; justify-content: center; align-items: center;"">
                <img src=""images/semantic/semantic_series_2/semantic_series_2_d.jpg"" style=""width: 300px; height: 300px;"" />
              </div>","null",""
"","","","","","html-keyboard-response","100","342437","0.0-68.0","13ABEE6BA7F94DA6AB2D21080759C642","e5f20988-0a2e-4922-b2b1-e75dae3e78b1","935a6d0c-0ba8-4f12-81d2-6af4ae24cda6","","null","<div style=""display: flex; justify-content: center; align-items: center;"">
                <img src=""images/other/blank.jpg"" style=""width: 300px; height: 300px;"" />
              </div>","null",""
"","","","","","html-keyboard-response","101","345439","0.0-69.0","13ABEE6BA7F94DA6AB2D21080759C642","e5f20988-0a2e-4922-b2b1-e75dae3e78b1","935a6d0c-0ba8-4f12-81d2-6af4ae24cda6","","null","<div style=""display: flex; justify-content: center; align-items: center;"">
                <img src=""images/causal/causal_series_9/causal_series_9_a.jpg"" style=""width: 300px; height: 300px;"" />
              </div>","null",""
"","","","","","html-button-response","102","346329","0.0-70.0","13ABEE6BA7F94DA6AB2D21080759C642","e5f20988-0a2e-4922-b2b1-e75dae3e78b1","935a6d0c-0ba8-4f12-81d2-6af4ae24cda6","","888","
    <div style=""display: flex; justify-content: center; align-items: center;"">
      <img src=""images/red_deck_2.png"" style=""width: 300px; height: 300px; margin-right: 10px;"" />
      <img src=""images/blue_deck_1.png"" style=""width: 300px; height: 300px;"" />
    </div>","1","1"
"","","","","","html-keyboard-response","103","349331","0.0-71.0-1.0-0.0","13ABEE6BA7F94DA6AB2D21080759C642","e5f20988-0a2e-4922-b2b1-e75dae3e78b1","935a6d0c-0ba8-4f12-81d2-6af4ae24cda6","","null","<div style=""display: flex; justify-content: center; align-items: center;"">
                <img src=""images/semantic/semantic_series_6/semantic_series_6_d.jpg"" style=""width: 300px; height: 300px;"" />
              </div>","null",""
"","","","","","html-keyboard-response","104","352333","0.0-71.0-1.0-1.0","13ABEE6BA7F94DA6AB2D21080759C642","e5f20988-0a2e-4922-b2b1-e75dae3e78b1","935a6d0c-0ba8-4f12-81d2-6af4ae24cda6","","null","<div style=""display: flex; justify-content: center; align-items: center;"">
                <img src=""images/semantic/semantic_series_7/semantic_series_7_d.jpg"" style=""width: 300px; height: 300px;"" />
              </div>","null",""
"","","","","","html-keyboard-response","105","355336","0.0-71.0-1.0-2.0","13ABEE6BA7F94DA6AB2D21080759C642","e5f20988-0a2e-4922-b2b1-e75dae3e78b1","935a6d0c-0ba8-4f12-81d2-6af4ae24cda6","","null","<div style=""display: flex; justify-content: center; align-items: center;"">
                <img src=""images/semantic/semantic_series_8/semantic_series_8_d.jpg"" style=""width: 300px; height: 300px;"" />
              </div>","null",""
"","","","","","html-keyboard-response","106","358338","0.0-72.0","13ABEE6BA7F94DA6AB2D21080759C642","e5f20988-0a2e-4922-b2b1-e75dae3e78b1","935a6d0c-0ba8-4f12-81d2-6af4ae24cda6","","null","<div style=""display: flex; justify-content: center; align-items: center;"">
                <img src=""images/other/blank.jpg"" style=""width: 300px; height: 300px;"" />
              </div>","null",""
"","","","","","html-keyboard-response","107","361341","0.0-73.0","13ABEE6BA7F94DA6AB2D21080759C642","e5f20988-0a2e-4922-b2b1-e75dae3e78b1","935a6d0c-0ba8-4f12-81d2-6af4ae24cda6","","null","<div style=""display: flex; justify-content: center; align-items: center;"">
                <img src=""images/causal/causal_series_3/causal_series_3_a.jpg"" style=""width: 300px; height: 300px;"" />
              </div>","null",""
"","","","","","html-button-response","108","362081","0.0-74.0","13ABEE6BA7F94DA6AB2D21080759C642","e5f20988-0a2e-4922-b2b1-e75dae3e78b1","935a6d0c-0ba8-4f12-81d2-6af4ae24cda6","","738","
    <div style=""display: flex; justify-content: center; align-items: center;"">
      <img src=""images/red_deck_2.png"" style=""width: 300px; height: 300px; margin-right: 10px;"" />
      <img src=""images/blue_deck_1.png"" style=""width: 300px; height: 300px;"" />
    </div>","1","1"
"","","","","","html-keyboard-response","109","365083","0.0-75.0-1.0-0.0","13ABEE6BA7F94DA6AB2D21080759C642","e5f20988-0a2e-4922-b2b1-e75dae3e78b1","935a6d0c-0ba8-4f12-81d2-6af4ae24cda6","","null","<div style=""display: flex; justify-content: center; align-items: center;"">
                <img src=""images/semantic/semantic_series_6/semantic_series_6_d.jpg"" style=""width: 300px; height: 300px;"" />
              </div>","null",""
"","","","","","html-keyboard-response","110","368085","0.0-75.0-1.0-1.0","13ABEE6BA7F94DA6AB2D21080759C642","e5f20988-0a2e-4922-b2b1-e75dae3e78b1","935a6d0c-0ba8-4f12-81d2-6af4ae24cda6","","null","<div style=""display: flex; justify-content: center; align-items: center;"">
                <img src=""images/semantic/semantic_series_7/semantic_series_7_d.jpg"" style=""width: 300px; height: 300px;"" />
              </div>","null",""
"","","","","","html-keyboard-response","111","371087","0.0-75.0-1.0-2.0","13ABEE6BA7F94DA6AB2D21080759C642","e5f20988-0a2e-4922-b2b1-e75dae3e78b1","935a6d0c-0ba8-4f12-81d2-6af4ae24cda6","","null","<div style=""display: flex; justify-content: center; align-items: center;"">
                <img src=""images/semantic/semantic_series_8/semantic_series_8_d.jpg"" style=""width: 300px; height: 300px;"" />
              </div>","null",""
"","","","","","html-keyboard-response","112","374090","0.0-76.0","13ABEE6BA7F94DA6AB2D21080759C642","e5f20988-0a2e-4922-b2b1-e75dae3e78b1","935a6d0c-0ba8-4f12-81d2-6af4ae24cda6","","null","<div style=""display: flex; justify-content: center; align-items: center;"">
                <img src=""images/other/blank.jpg"" style=""width: 300px; height: 300px;"" />
              </div>","null",""
"","","","","","survey-text","113","443081","0.0-77.0","13ABEE6BA7F94DA6AB2D21080759C642","e5f20988-0a2e-4922-b2b1-e75dae3e78b1","935a6d0c-0ba8-4f12-81d2-6af4ae24cda6","","68965","","{""Q0"":""The red cards seemed to be overall more positive and story based while the blue was a little more random and describing an action or one moment type of activity. Also just random photos in the blue deck.""}",""
"","","","","","survey-text","114","448346","0.0-78.0","13ABEE6BA7F94DA6AB2D21080759C642","e5f20988-0a2e-4922-b2b1-e75dae3e78b1","935a6d0c-0ba8-4f12-81d2-6af4ae24cda6","","5262","","{""Q0"":""Both""}",""
"","","","","","html-button-response","115","468784","0.0-79.0","13ABEE6BA7F94DA6AB2D21080759C642","e5f20988-0a2e-4922-b2b1-e75dae3e78b1","935a6d0c-0ba8-4f12-81d2-6af4ae24cda6","","20438","Which color deck does the fourth image continue the story from the series?","0",""
"","","","","","html-button-response","116","472551","0.0-80.0","13ABEE6BA7F94DA6AB2D21080759C642","e5f20988-0a2e-4922-b2b1-e75dae3e78b1","935a6d0c-0ba8-4f12-81d2-6af4ae24cda6","","3766","Which color deck does the fourth image not follow the story from the series?","1",""
"","","","","","survey-text","117","479879","0.0-81.0","13ABEE6BA7F94DA6AB2D21080759C642","e5f20988-0a2e-4922-b2b1-e75dae3e78b1","935a6d0c-0ba8-4f12-81d2-6af4ae24cda6","","7322","","{""Q0"":""FEMALE"",""Q1"":""26""}",""
"","","","","","instructions","118","484695","0.0-82.0","13ABEE6BA7F94DA6AB2D21080759C642","e5f20988-0a2e-4922-b2b1-e75dae3e78b1","935a6d0c-0ba8-4f12-81d2-6af4ae24cda6","[{""page_index"":0,""viewing_time"":4816}]","4816","","",""
