"success","timeout","failed_images","failed_audio","failed_video","trial_type","trial_index","time_elapsed","internal_node_id","subject_id","study_id","session_id","view_history","rt","stimulus","response","series","repetition","phase","choice","question_order"
"true","false","[]","[]","[]","preload","0","886","0.0-0.0","356161C898E34DD7B304A3F33649C63F","0199d606-0c38-764e-bba7-49d0f395cf1a","0199d5ef-c7d4-7cab-a194-b2c3afbaf8e8","","","","","","","","",""
"","","","","","instructions","1","5792","0.0-1.0","356161C898E34DD7B304A3F33649C63F","0199d606-0c38-764e-bba7-49d0f395cf1a","0199d5ef-c7d4-7cab-a194-b2c3afbaf8e8","[{""page_index"":0,""viewing_time"":4905}]","4905","","","","","","",""
"","","","","","instructions","2","16831","0.0-2.0","356161C898E34DD7B304A3F33649C63F","0199d606-0c38-764e-bba7-49d0f395cf1a","0199d5ef-c7d4-7cab-a194-b2c3afbaf8e8","[{""page_index"":0,""viewing_time"":11038}]","11038","","","","","","",""
"true","","","","","fullscreen","3","20018","0.0-3.0","356161C898E34DD7B304A3F33649C63F","0199d606-0c38-764e-bba7-49d0f395cf1a","0199d5ef-c7d4-7cab-a194-b2c3afbaf8e8","","2174","","","","","","",""
"","","","","","instructions","4","35113","0.0-4.0","356161C898E34DD7B304A3F33649C63F","0199d606-0c38-764e-bba7-49d0f395cf1a","0199d5ef-c7d4-7cab-a194-b2c3afbaf8e8","[{""page_index"":0,""viewing_time"":15094}]","15094","","","","","","",""
"","","","","","html-keyboard-response","5","41116","0.0-5.0","356161C898E34DD7B304A3F33649C63F","0199d606-0c38-764e-bba7-49d0f395cf1a","0199d5ef-c7d4-7cab-a194-b2c3afbaf8e8","","null","<div style=""display: flex; justify-content: center; align-items: center;"">
                     <img src=""images/causal/causal_series_8/causal_series_8_a.png"" style=""width: 300px; height: 300px;"" />
                   </div>","null","8","1","A","",""
"","","","","","html-keyboard-response","6","47118","0.0-6.0","356161C898E34DD7B304A3F33649C63F","0199d606-0c38-764e-bba7-49d0f395cf1a","0199d5ef-c7d4-7cab-a194-b2c3afbaf8e8","","null","<div style=""display: flex; justify-content: center; align-items: center;"">
                     <img src=""images/causal/causal_series_8/causal_series_8_b.png"" style=""width: 300px; height: 300px;"" />
                   </div>","null","8","1","B","",""
"","","","","","html-keyboard-response","7","53121","0.0-7.0","356161C898E34DD7B304A3F33649C63F","0199d606-0c38-764e-bba7-49d0f395cf1a","0199d5ef-c7d4-7cab-a194-b2c3afbaf8e8","","null","<div style=""display: flex; justify-content: center; align-items: center;"">
                     <img src=""images/causal/causal_series_8/causal_series_8_c.png"" style=""width: 300px; height: 300px;"" />
                   </div>","null","8","1","C","",""
"","","","","","html-button-response","8","55404","0.0-8.0","356161C898E34DD7B304A3F33649C63F","0199d606-0c38-764e-bba7-49d0f395cf1a","0199d5ef-c7d4-7cab-a194-b2c3afbaf8e8","","2282","
        <div style=""display: flex; justify-content: center; align-items: center;"">
          <img src=""images/red_deck_2.png"" style=""width: 300px; height: 300px; margin-right: 10px;"" />
          <img src=""images/blue_deck_1.png"" style=""width: 300px; height: 300px;"" />
        </div>","0","8","1","choice","0",""
"","","","","","html-keyboard-response","9","61407","0.0-9.0-0.0-0.0","356161C898E34DD7B304A3F33649C63F","0199d606-0c38-764e-bba7-49d0f395cf1a","0199d5ef-c7d4-7cab-a194-b2c3afbaf8e8","","null","<div style=""display: flex; justify-content: center; align-items: center;"">
                     <img src=""images/causal/causal_series_8/causal_series_8_d.png"" style=""width: 300px; height: 300px;"" />
                   </div>","null","8","1","D","",""
"","","","","","html-keyboard-response","10","67410","0.0-9.0-0.0-1.0","356161C898E34DD7B304A3F33649C63F","0199d606-0c38-764e-bba7-49d0f395cf1a","0199d5ef-c7d4-7cab-a194-b2c3afbaf8e8","","null","<div style=""display: flex; justify-content: center; align-items: center;"">
                     <img src=""images/causal/causal_series_8/causal_series_8_e.png"" style=""width: 300px; height: 300px;"" />
                   </div>","null","8","1","E","",""
"","","","","","html-keyboard-response","11","73411","0.0-9.0-0.0-2.0","356161C898E34DD7B304A3F33649C63F","0199d606-0c38-764e-bba7-49d0f395cf1a","0199d5ef-c7d4-7cab-a194-b2c3afbaf8e8","","null","<div style=""display: flex; justify-content: center; align-items: center;"">
                     <img src=""images/causal/causal_series_8/causal_series_8_f.png"" style=""width: 300px; height: 300px;"" />
                   </div>","null","8","1","F","",""
"","","","","","survey-likert","12","78485","0.0-10.0","356161C898E34DD7B304A3F33649C63F","0199d606-0c38-764e-bba7-49d0f395cf1a","0199d5ef-c7d4-7cab-a194-b2c3afbaf8e8","","5072","","{""Q0"":2}","8","1","surprise_rating","","[0]"
"","","","","","survey-likert","13","81319","0.0-11.0","356161C898E34DD7B304A3F33649C63F","0199d606-0c38-764e-bba7-49d0f395cf1a","0199d5ef-c7d4-7cab-a194-b2c3afbaf8e8","","2829","","{""Q0"":4}","8","1","enjoyment_rating","","[0]"
"","","","","","html-keyboard-response","14","87320","0.0-12.0","356161C898E34DD7B304A3F33649C63F","0199d606-0c38-764e-bba7-49d0f395cf1a","0199d5ef-c7d4-7cab-a194-b2c3afbaf8e8","","null","<div style=""display: flex; justify-content: center; align-items: center;"">
                     <img src=""images/other/blank.png"" style=""width: 300px; height: 300px;"" />
                   </div>","null","0","0","blank","",""
"","","","","","html-keyboard-response","15","93323","0.0-13.0","356161C898E34DD7B304A3F33649C63F","0199d606-0c38-764e-bba7-49d0f395cf1a","0199d5ef-c7d4-7cab-a194-b2c3afbaf8e8","","null","<div style=""display: flex; justify-content: center; align-items: center;"">
                     <img src=""images/causal/causal_series_1/causal_series_1_a.png"" style=""width: 300px; height: 300px;"" />
                   </div>","null","1","1","A","",""
"","","","","","html-keyboard-response","16","99326","0.0-14.0","356161C898E34DD7B304A3F33649C63F","0199d606-0c38-764e-bba7-49d0f395cf1a","0199d5ef-c7d4-7cab-a194-b2c3afbaf8e8","","null","<div style=""display: flex; justify-content: center; align-items: center;"">
                     <img src=""images/causal/causal_series_1/causal_series_1_b.png"" style=""width: 300px; height: 300px;"" />
                   </div>","null","1","1","B","",""
"","","","","","html-keyboard-response","17","105327","0.0-15.0","356161C898E34DD7B304A3F33649C63F","0199d606-0c38-764e-bba7-49d0f395cf1a","0199d5ef-c7d4-7cab-a194-b2c3afbaf8e8","","null","<div style=""display: flex; justify-content: center; align-items: center;"">
                     <img src=""images/causal/causal_series_1/causal_series_1_c.png"" style=""width: 300px; height: 300px;"" />
                   </div>","null","1","1","C","",""
"","","","","","html-button-response","18","107499","0.0-16.0","356161C898E34DD7B304A3F33649C63F","0199d606-0c38-764e-bba7-49d0f395cf1a","0199d5ef-c7d4-7cab-a194-b2c3afbaf8e8","","2170","
        <div style=""display: flex; justify-content: center; align-items: center;"">
          <img src=""images/red_deck_2.png"" style=""width: 300px; height: 300px; margin-right: 10px;"" />
          <img src=""images/blue_deck_1.png"" style=""width: 300px; height: 300px;"" />
        </div>","1","1","1","choice","1",""
"","","","","","html-keyboard-response","19","113501","0.0-17.0-1.0-0.0","356161C898E34DD7B304A3F33649C63F","0199d606-0c38-764e-bba7-49d0f395cf1a","0199d5ef-c7d4-7cab-a194-b2c3afbaf8e8","","null","<div style=""display: flex; justify-content: center; align-items: center;"">
                     <img src=""images/semantic/semantic_series_1/semantic_series_1_d.png"" style=""width: 300px; height: 300px;"" />
                   </div>","null","1","1","D","",""
"","","","","","html-keyboard-response","20","119504","0.0-17.0-1.0-1.0","356161C898E34DD7B304A3F33649C63F","0199d606-0c38-764e-bba7-49d0f395cf1a","0199d5ef-c7d4-7cab-a194-b2c3afbaf8e8","","null","<div style=""display: flex; justify-content: center; align-items: center;"">
                     <img src=""images/semantic/semantic_series_1/semantic_series_1_e.png"" style=""width: 300px; height: 300px;"" />
                   </div>","null","1","1","E","",""
"","","","","","html-keyboard-response","21","125506","0.0-17.0-1.0-2.0","356161C898E34DD7B304A3F33649C63F","0199d606-0c38-764e-bba7-49d0f395cf1a","0199d5ef-c7d4-7cab-a194-b2c3afbaf8e8","","null","<div style=""display: flex; justify-content: center; align-items: center;"">
                     <img src=""images/semantic/semantic_series_1/semantic_series_1_f.png"" style=""width: 300px; height: 300px;"" />
                   </div>","null","1","1","F","",""
"","","","","","survey-likert","22","131236","0.0-18.0","356161C898E34DD7B304A3F33649C63F","0199d606-0c38-764e-bba7-49d0f395cf1a","0199d5ef-c7d4-7cab-a194-b2c3afbaf8e8","","5728","","{""Q0"":4}","1","1","surprise_rating","","[0]"
"","","","","","survey-likert","23","133933","0.0-19.0","356161C898E34DD7B304A3F33649C63F","0199d606-0c38-764e-bba7-49d0f395cf1a","0199d5ef-c7d4-7cab-a194-b2c3afbaf8e8","","2696","","{""Q0"":4}","1","1","enjoyment_rating","","[0]"
"","","","","","html-keyboard-response","24","139935","0.0-20.0","356161C898E34DD7B304A3F33649C63F","0199d606-0c38-764e-bba7-49d0f395cf1a","0199d5ef-c7d4-7cab-a194-b2c3afbaf8e8","","null","<div style=""display: flex; justify-content: center; align-items: center;"">
                     <img src=""images/other/blank.png"" style=""width: 300px; height: 300px;"" />
                   </div>","null","0","0","blank","",""
"","","","","","html-keyboard-response","25","145937","0.0-21.0","356161C898E34DD7B304A3F33649C63F","0199d606-0c38-764e-bba7-49d0f395cf1a","0199d5ef-c7d4-7cab-a194-b2c3afbaf8e8","","null","<div style=""display: flex; justify-content: center; align-items: center;"">
                     <img src=""images/causal/causal_series_5/causal_series_5_a.png"" style=""width: 300px; height: 300px;"" />
                   </div>","null","5","2","A","",""
"","","","","","html-keyboard-response","26","151939","0.0-22.0","356161C898E34DD7B304A3F33649C63F","0199d606-0c38-764e-bba7-49d0f395cf1a","0199d5ef-c7d4-7cab-a194-b2c3afbaf8e8","","null","<div style=""display: flex; justify-content: center; align-items: center;"">
                     <img src=""images/causal/causal_series_5/causal_series_5_b.png"" style=""width: 300px; height: 300px;"" />
                   </div>","null","5","2","B","",""
"","","","","","html-keyboard-response","27","157942","0.0-23.0","356161C898E34DD7B304A3F33649C63F","0199d606-0c38-764e-bba7-49d0f395cf1a","0199d5ef-c7d4-7cab-a194-b2c3afbaf8e8","","null","<div style=""display: flex; justify-content: center; align-items: center;"">
                     <img src=""images/causal/causal_series_5/causal_series_5_c.png"" style=""width: 300px; height: 300px;"" />
                   </div>","null","5","2","C","",""
"","","","","","html-button-response","28","160325","0.0-24.0","356161C898E34DD7B304A3F33649C63F","0199d606-0c38-764e-bba7-49d0f395cf1a","0199d5ef-c7d4-7cab-a194-b2c3afbaf8e8","","2381","
        <div style=""display: flex; justify-content: center; align-items: center;"">
          <img src=""images/red_deck_2.png"" style=""width: 300px; height: 300px; margin-right: 10px;"" />
          <img src=""images/blue_deck_1.png"" style=""width: 300px; height: 300px;"" />
        </div>","1","5","2","choice","1",""
"","","","","","html-keyboard-response","29","166328","0.0-25.0-1.0-0.0","356161C898E34DD7B304A3F33649C63F","0199d606-0c38-764e-bba7-49d0f395cf1a","0199d5ef-c7d4-7cab-a194-b2c3afbaf8e8","","null","<div style=""display: flex; justify-content: center; align-items: center;"">
                     <img src=""images/semantic/semantic_series_5/semantic_series_5_d.png"" style=""width: 300px; height: 300px;"" />
                   </div>","null","5","2","D","",""
"","","","","","html-keyboard-response","30","172331","0.0-25.0-1.0-1.0","356161C898E34DD7B304A3F33649C63F","0199d606-0c38-764e-bba7-49d0f395cf1a","0199d5ef-c7d4-7cab-a194-b2c3afbaf8e8","","null","<div style=""display: flex; justify-content: center; align-items: center;"">
                     <img src=""images/semantic/semantic_series_5/semantic_series_5_e.png"" style=""width: 300px; height: 300px;"" />
                   </div>","null","5","2","E","",""
"","","","","","html-keyboard-response","31","178333","0.0-25.0-1.0-2.0","356161C898E34DD7B304A3F33649C63F","0199d606-0c38-764e-bba7-49d0f395cf1a","0199d5ef-c7d4-7cab-a194-b2c3afbaf8e8","","null","<div style=""display: flex; justify-content: center; align-items: center;"">
                     <img src=""images/semantic/semantic_series_5/semantic_series_5_f.png"" style=""width: 300px; height: 300px;"" />
                   </div>","null","5","2","F","",""
"","","","","","survey-likert","32","184447","0.0-26.0","356161C898E34DD7B304A3F33649C63F","0199d606-0c38-764e-bba7-49d0f395cf1a","0199d5ef-c7d4-7cab-a194-b2c3afbaf8e8","","6113","","{""Q0"":4}","5","2","surprise_rating","","[0]"
"","","","","","survey-likert","33","187103","0.0-27.0","356161C898E34DD7B304A3F33649C63F","0199d606-0c38-764e-bba7-49d0f395cf1a","0199d5ef-c7d4-7cab-a194-b2c3afbaf8e8","","2655","","{""Q0"":2}","5","2","enjoyment_rating","","[0]"
"","","","","","html-keyboard-response","34","193106","0.0-28.0","356161C898E34DD7B304A3F33649C63F","0199d606-0c38-764e-bba7-49d0f395cf1a","0199d5ef-c7d4-7cab-a194-b2c3afbaf8e8","","null","<div style=""display: flex; justify-content: center; align-items: center;"">
                     <img src=""images/other/blank.png"" style=""width: 300px; height: 300px;"" />
                   </div>","null","0","0","blank","",""
"","","","","","html-keyboard-response","35","199108","0.0-29.0","356161C898E34DD7B304A3F33649C63F","0199d606-0c38-764e-bba7-49d0f395cf1a","0199d5ef-c7d4-7cab-a194-b2c3afbaf8e8","","null","<div style=""display: flex; justify-content: center; align-items: center;"">
                     <img src=""images/causal/causal_series_4/causal_series_4_a.png"" style=""width: 300px; height: 300px;"" />
                   </div>","null","4","2","A","",""
"","","","","","html-keyboard-response","36","205110","0.0-30.0","356161C898E34DD7B304A3F33649C63F","0199d606-0c38-764e-bba7-49d0f395cf1a","0199d5ef-c7d4-7cab-a194-b2c3afbaf8e8","","null","<div style=""display: flex; justify-content: center; align-items: center;"">
                     <img src=""images/causal/causal_series_4/causal_series_4_b.png"" style=""width: 300px; height: 300px;"" />
                   </div>","null","4","2","B","",""
"","","","","","html-keyboard-response","37","211113","0.0-31.0","356161C898E34DD7B304A3F33649C63F","0199d606-0c38-764e-bba7-49d0f395cf1a","0199d5ef-c7d4-7cab-a194-b2c3afbaf8e8","","null","<div style=""display: flex; justify-content: center; align-items: center;"">
                     <img src=""images/causal/causal_series_4/causal_series_4_c.png"" style=""width: 300px; height: 300px;"" />
                   </div>","null","4","2","C","",""
"","","","","","html-button-response","38","213607","0.0-32.0","356161C898E34DD7B304A3F33649C63F","0199d606-0c38-764e-bba7-49d0f395cf1a","0199d5ef-c7d4-7cab-a194-b2c3afbaf8e8","","2493","
        <div style=""display: flex; justify-content: center; align-items: center;"">
          <img src=""images/red_deck_2.png"" style=""width: 300px; height: 300px; margin-right: 10px;"" />
          <img src=""images/blue_deck_1.png"" style=""width: 300px; height: 300px;"" />
        </div>","0","4","2","choice","0",""
"","","","","","html-keyboard-response","39","219609","0.0-33.0-0.0-0.0","356161C898E34DD7B304A3F33649C63F","0199d606-0c38-764e-bba7-49d0f395cf1a","0199d5ef-c7d4-7cab-a194-b2c3afbaf8e8","","null","<div style=""display: flex; justify-content: center; align-items: center;"">
                     <img src=""images/causal/causal_series_4/causal_series_4_d.png"" style=""width: 300px; height: 300px;"" />
                   </div>","null","4","2","D","",""
"","","","","","html-keyboard-response","40","225612","0.0-33.0-0.0-1.0","356161C898E34DD7B304A3F33649C63F","0199d606-0c38-764e-bba7-49d0f395cf1a","0199d5ef-c7d4-7cab-a194-b2c3afbaf8e8","","null","<div style=""display: flex; justify-content: center; align-items: center;"">
                     <img src=""images/causal/causal_series_4/causal_series_4_e.png"" style=""width: 300px; height: 300px;"" />
                   </div>","null","4","2","E","",""
"","","","","","html-keyboard-response","41","231614","0.0-33.0-0.0-2.0","356161C898E34DD7B304A3F33649C63F","0199d606-0c38-764e-bba7-49d0f395cf1a","0199d5ef-c7d4-7cab-a194-b2c3afbaf8e8","","null","<div style=""display: flex; justify-content: center; align-items: center;"">
                     <img src=""images/causal/causal_series_4/causal_series_4_f.png"" style=""width: 300px; height: 300px;"" />
                   </div>","null","4","2","F","",""
"","","","","","survey-likert","42","237200","0.0-34.0","356161C898E34DD7B304A3F33649C63F","0199d606-0c38-764e-bba7-49d0f395cf1a","0199d5ef-c7d4-7cab-a194-b2c3afbaf8e8","","5585","","{""Q0"":4}","4","2","surprise_rating","","[0]"
"","","","","","survey-likert","43","240227","0.0-35.0","356161C898E34DD7B304A3F33649C63F","0199d606-0c38-764e-bba7-49d0f395cf1a","0199d5ef-c7d4-7cab-a194-b2c3afbaf8e8","","3026","","{""Q0"":4}","4","2","enjoyment_rating","","[0]"
"","","","","","html-keyboard-response","44","246229","0.0-36.0","356161C898E34DD7B304A3F33649C63F","0199d606-0c38-764e-bba7-49d0f395cf1a","0199d5ef-c7d4-7cab-a194-b2c3afbaf8e8","","null","<div style=""display: flex; justify-content: center; align-items: center;"">
                     <img src=""images/other/blank.png"" style=""width: 300px; height: 300px;"" />
                   </div>","null","0","0","blank","",""
"","","","","","html-keyboard-response","45","252230","0.0-37.0","356161C898E34DD7B304A3F33649C63F","0199d606-0c38-764e-bba7-49d0f395cf1a","0199d5ef-c7d4-7cab-a194-b2c3afbaf8e8","","null","<div style=""display: flex; justify-content: center; align-items: center;"">
                     <img src=""images/causal/causal_series_7/causal_series_7_a.png"" style=""width: 300px; height: 300px;"" />
                   </div>","null","7","2","A","",""
"","","","","","html-keyboard-response","46","258232","0.0-38.0","356161C898E34DD7B304A3F33649C63F","0199d606-0c38-764e-bba7-49d0f395cf1a","0199d5ef-c7d4-7cab-a194-b2c3afbaf8e8","","null","<div style=""display: flex; justify-content: center; align-items: center;"">
                     <img src=""images/causal/causal_series_7/causal_series_7_b.png"" style=""width: 300px; height: 300px;"" />
                   </div>","null","7","2","B","",""
"","","","","","html-keyboard-response","47","264234","0.0-39.0","356161C898E34DD7B304A3F33649C63F","0199d606-0c38-764e-bba7-49d0f395cf1a","0199d5ef-c7d4-7cab-a194-b2c3afbaf8e8","","null","<div style=""display: flex; justify-content: center; align-items: center;"">
                     <img src=""images/causal/causal_series_7/causal_series_7_c.png"" style=""width: 300px; height: 300px;"" />
                   </div>","null","7","2","C","",""
"","","","","","html-button-response","48","267087","0.0-40.0","356161C898E34DD7B304A3F33649C63F","0199d606-0c38-764e-bba7-49d0f395cf1a","0199d5ef-c7d4-7cab-a194-b2c3afbaf8e8","","2851","
        <div style=""display: flex; justify-content: center; align-items: center;"">
          <img src=""images/red_deck_2.png"" style=""width: 300px; height: 300px; margin-right: 10px;"" />
          <img src=""images/blue_deck_1.png"" style=""width: 300px; height: 300px;"" />
        </div>","1","7","2","choice","1",""
"","","","","","html-keyboard-response","49","273090","0.0-41.0-1.0-0.0","356161C898E34DD7B304A3F33649C63F","0199d606-0c38-764e-bba7-49d0f395cf1a","0199d5ef-c7d4-7cab-a194-b2c3afbaf8e8","","null","<div style=""display: flex; justify-content: center; align-items: center;"">
                     <img src=""images/semantic/semantic_series_7/semantic_series_7_d.png"" style=""width: 300px; height: 300px;"" />
                   </div>","null","7","2","D","",""
"","","","","","html-keyboard-response","50","279092","0.0-41.0-1.0-1.0","356161C898E34DD7B304A3F33649C63F","0199d606-0c38-764e-bba7-49d0f395cf1a","0199d5ef-c7d4-7cab-a194-b2c3afbaf8e8","","null","<div style=""display: flex; justify-content: center; align-items: center;"">
                     <img src=""images/semantic/semantic_series_7/semantic_series_7_e.png"" style=""width: 300px; height: 300px;"" />
                   </div>","null","7","2","E","",""
"","","","","","html-keyboard-response","51","285095","0.0-41.0-1.0-2.0","356161C898E34DD7B304A3F33649C63F","0199d606-0c38-764e-bba7-49d0f395cf1a","0199d5ef-c7d4-7cab-a194-b2c3afbaf8e8","","null","<div style=""display: flex; justify-content: center; align-items: center;"">
                     <img src=""images/semantic/semantic_series_7/semantic_series_7_f.png"" style=""width: 300px; height: 300px;"" />
                   </div>","null","7","2","F","",""
"","","","","","survey-likert","52","288208","0.0-42.0","356161C898E34DD7B304A3F33649C63F","0199d606-0c38-764e-bba7-49d0f395cf1a","0199d5ef-c7d4-7cab-a194-b2c3afbaf8e8","","3112","","{""Q0"":0}","7","2","surprise_rating","","[0]"
"","","","","","survey-likert","53","291329","0.0-43.0","356161C898E34DD7B304A3F33649C63F","0199d606-0c38-764e-bba7-49d0f395cf1a","0199d5ef-c7d4-7cab-a194-b2c3afbaf8e8","","3120","","{""Q0"":1}","7","2","enjoyment_rating","","[0]"
"","","","","","html-keyboard-response","54","297332","0.0-44.0","356161C898E34DD7B304A3F33649C63F","0199d606-0c38-764e-bba7-49d0f395cf1a","0199d5ef-c7d4-7cab-a194-b2c3afbaf8e8","","null","<div style=""display: flex; justify-content: center; align-items: center;"">
                     <img src=""images/other/blank.png"" style=""width: 300px; height: 300px;"" />
                   </div>","null","0","0","blank","",""
"","","","","","html-keyboard-response","55","303333","0.0-45.0","356161C898E34DD7B304A3F33649C63F","0199d606-0c38-764e-bba7-49d0f395cf1a","0199d5ef-c7d4-7cab-a194-b2c3afbaf8e8","","null","<div style=""display: flex; justify-content: center; align-items: center;"">
                     <img src=""images/causal/causal_series_9/causal_series_9_a.png"" style=""width: 300px; height: 300px;"" />
                   </div>","null","9","2","A","",""
"","","","","","html-keyboard-response","56","309335","0.0-46.0","356161C898E34DD7B304A3F33649C63F","0199d606-0c38-764e-bba7-49d0f395cf1a","0199d5ef-c7d4-7cab-a194-b2c3afbaf8e8","","null","<div style=""display: flex; justify-content: center; align-items: center;"">
                     <img src=""images/causal/causal_series_9/causal_series_9_b.png"" style=""width: 300px; height: 300px;"" />
                   </div>","null","9","2","B","",""
"","","","","","html-keyboard-response","57","315338","0.0-47.0","356161C898E34DD7B304A3F33649C63F","0199d606-0c38-764e-bba7-49d0f395cf1a","0199d5ef-c7d4-7cab-a194-b2c3afbaf8e8","","null","<div style=""display: flex; justify-content: center; align-items: center;"">
                     <img src=""images/causal/causal_series_9/causal_series_9_c.png"" style=""width: 300px; height: 300px;"" />
                   </div>","null","9","2","C","",""
"","","","","","html-button-response","58","317058","0.0-48.0","356161C898E34DD7B304A3F33649C63F","0199d606-0c38-764e-bba7-49d0f395cf1a","0199d5ef-c7d4-7cab-a194-b2c3afbaf8e8","","1719","
        <div style=""display: flex; justify-content: center; align-items: center;"">
          <img src=""images/red_deck_2.png"" style=""width: 300px; height: 300px; margin-right: 10px;"" />
          <img src=""images/blue_deck_1.png"" style=""width: 300px; height: 300px;"" />
        </div>","1","9","2","choice","1",""
"","","","","","html-keyboard-response","59","323060","0.0-49.0-1.0-0.0","356161C898E34DD7B304A3F33649C63F","0199d606-0c38-764e-bba7-49d0f395cf1a","0199d5ef-c7d4-7cab-a194-b2c3afbaf8e8","","null","<div style=""display: flex; justify-content: center; align-items: center;"">
                     <img src=""images/semantic/semantic_series_9/semantic_series_9_d.png"" style=""width: 300px; height: 300px;"" />
                   </div>","null","9","2","D","",""
"","","","","","html-keyboard-response","60","329062","0.0-49.0-1.0-1.0","356161C898E34DD7B304A3F33649C63F","0199d606-0c38-764e-bba7-49d0f395cf1a","0199d5ef-c7d4-7cab-a194-b2c3afbaf8e8","","null","<div style=""display: flex; justify-content: center; align-items: center;"">
                     <img src=""images/semantic/semantic_series_9/semantic_series_9_e.png"" style=""width: 300px; height: 300px;"" />
                   </div>","null","9","2","E","",""
"","","","","","html-keyboard-response","61","335064","0.0-49.0-1.0-2.0","356161C898E34DD7B304A3F33649C63F","0199d606-0c38-764e-bba7-49d0f395cf1a","0199d5ef-c7d4-7cab-a194-b2c3afbaf8e8","","null","<div style=""display: flex; justify-content: center; align-items: center;"">
                     <img src=""images/semantic/semantic_series_9/semantic_series_9_f.png"" style=""width: 300px; height: 300px;"" />
                   </div>","null","9","2","F","",""
"","","","","","survey-likert","62","337445","0.0-50.0","356161C898E34DD7B304A3F33649C63F","0199d606-0c38-764e-bba7-49d0f395cf1a","0199d5ef-c7d4-7cab-a194-b2c3afbaf8e8","","2380","","{""Q0"":0}","9","2","surprise_rating","","[0]"
"","","","","","survey-likert","63","340246","0.0-51.0","356161C898E34DD7B304A3F33649C63F","0199d606-0c38-764e-bba7-49d0f395cf1a","0199d5ef-c7d4-7cab-a194-b2c3afbaf8e8","","2800","","{""Q0"":4}","9","2","enjoyment_rating","","[0]"
"","","","","","html-keyboard-response","64","346249","0.0-52.0","356161C898E34DD7B304A3F33649C63F","0199d606-0c38-764e-bba7-49d0f395cf1a","0199d5ef-c7d4-7cab-a194-b2c3afbaf8e8","","null","<div style=""display: flex; justify-content: center; align-items: center;"">
                     <img src=""images/other/blank.png"" style=""width: 300px; height: 300px;"" />
                   </div>","null","0","0","blank","",""
"","","","","","html-keyboard-response","65","352252","0.0-53.0","356161C898E34DD7B304A3F33649C63F","0199d606-0c38-764e-bba7-49d0f395cf1a","0199d5ef-c7d4-7cab-a194-b2c3afbaf8e8","","null","<div style=""display: flex; justify-content: center; align-items: center;"">
                     <img src=""images/causal/causal_series_6/causal_series_6_a.png"" style=""width: 300px; height: 300px;"" />
                   </div>","null","6","2","A","",""
"","","","","","html-keyboard-response","66","358254","0.0-54.0","356161C898E34DD7B304A3F33649C63F","0199d606-0c38-764e-bba7-49d0f395cf1a","0199d5ef-c7d4-7cab-a194-b2c3afbaf8e8","","null","<div style=""display: flex; justify-content: center; align-items: center;"">
                     <img src=""images/causal/causal_series_6/causal_series_6_b.png"" style=""width: 300px; height: 300px;"" />
                   </div>","null","6","2","B","",""
"","","","","","html-keyboard-response","67","364255","0.0-55.0","356161C898E34DD7B304A3F33649C63F","0199d606-0c38-764e-bba7-49d0f395cf1a","0199d5ef-c7d4-7cab-a194-b2c3afbaf8e8","","null","<div style=""display: flex; justify-content: center; align-items: center;"">
                     <img src=""images/causal/causal_series_6/causal_series_6_c.png"" style=""width: 300px; height: 300px;"" />
                   </div>","null","6","2","C","",""
"","","","","","html-button-response","68","365473","0.0-56.0","356161C898E34DD7B304A3F33649C63F","0199d606-0c38-764e-bba7-49d0f395cf1a","0199d5ef-c7d4-7cab-a194-b2c3afbaf8e8","","1216","
        <div style=""display: flex; justify-content: center; align-items: center;"">
          <img src=""images/red_deck_2.png"" style=""width: 300px; height: 300px; margin-right: 10px;"" />
          <img src=""images/blue_deck_1.png"" style=""width: 300px; height: 300px;"" />
        </div>","1","6","2","choice","1",""
"","","","","","html-keyboard-response","69","371475","0.0-57.0-1.0-0.0","356161C898E34DD7B304A3F33649C63F","0199d606-0c38-764e-bba7-49d0f395cf1a","0199d5ef-c7d4-7cab-a194-b2c3afbaf8e8","","null","<div style=""display: flex; justify-content: center; align-items: center;"">
                     <img src=""images/semantic/semantic_series_6/semantic_series_6_d.png"" style=""width: 300px; height: 300px;"" />
                   </div>","null","6","2","D","",""
"","","","","","html-keyboard-response","70","377478","0.0-57.0-1.0-1.0","356161C898E34DD7B304A3F33649C63F","0199d606-0c38-764e-bba7-49d0f395cf1a","0199d5ef-c7d4-7cab-a194-b2c3afbaf8e8","","null","<div style=""display: flex; justify-content: center; align-items: center;"">
                     <img src=""images/semantic/semantic_series_6/semantic_series_6_e.png"" style=""width: 300px; height: 300px;"" />
                   </div>","null","6","2","E","",""
"","","","","","html-keyboard-response","71","383480","0.0-57.0-1.0-2.0","356161C898E34DD7B304A3F33649C63F","0199d606-0c38-764e-bba7-49d0f395cf1a","0199d5ef-c7d4-7cab-a194-b2c3afbaf8e8","","null","<div style=""display: flex; justify-content: center; align-items: center;"">
                     <img src=""images/semantic/semantic_series_6/semantic_series_6_f.png"" style=""width: 300px; height: 300px;"" />
                   </div>","null","6","2","F","",""
"","","","","","survey-likert","72","392819","0.0-58.0","356161C898E34DD7B304A3F33649C63F","0199d606-0c38-764e-bba7-49d0f395cf1a","0199d5ef-c7d4-7cab-a194-b2c3afbaf8e8","","9338","","{""Q0"":2}","6","2","surprise_rating","","[0]"
"","","","","","survey-likert","73","394582","0.0-59.0","356161C898E34DD7B304A3F33649C63F","0199d606-0c38-764e-bba7-49d0f395cf1a","0199d5ef-c7d4-7cab-a194-b2c3afbaf8e8","","1763","","{""Q0"":2}","6","2","enjoyment_rating","","[0]"
"","","","","","html-keyboard-response","74","400585","0.0-60.0","356161C898E34DD7B304A3F33649C63F","0199d606-0c38-764e-bba7-49d0f395cf1a","0199d5ef-c7d4-7cab-a194-b2c3afbaf8e8","","null","<div style=""display: flex; justify-content: center; align-items: center;"">
                     <img src=""images/other/blank.png"" style=""width: 300px; height: 300px;"" />
                   </div>","null","0","0","blank","",""
"","","","","","html-keyboard-response","75","406586","0.0-61.0","356161C898E34DD7B304A3F33649C63F","0199d606-0c38-764e-bba7-49d0f395cf1a","0199d5ef-c7d4-7cab-a194-b2c3afbaf8e8","","null","<div style=""display: flex; justify-content: center; align-items: center;"">
                     <img src=""images/causal/causal_series_7/causal_series_7_a.png"" style=""width: 300px; height: 300px;"" />
                   </div>","null","7","1","A","",""
"","","","","","html-keyboard-response","76","412589","0.0-62.0","356161C898E34DD7B304A3F33649C63F","0199d606-0c38-764e-bba7-49d0f395cf1a","0199d5ef-c7d4-7cab-a194-b2c3afbaf8e8","","null","<div style=""display: flex; justify-content: center; align-items: center;"">
                     <img src=""images/causal/causal_series_7/causal_series_7_b.png"" style=""width: 300px; height: 300px;"" />
                   </div>","null","7","1","B","",""
"","","","","","html-keyboard-response","77","418590","0.0-63.0","356161C898E34DD7B304A3F33649C63F","0199d606-0c38-764e-bba7-49d0f395cf1a","0199d5ef-c7d4-7cab-a194-b2c3afbaf8e8","","null","<div style=""display: flex; justify-content: center; align-items: center;"">
                     <img src=""images/causal/causal_series_7/causal_series_7_c.png"" style=""width: 300px; height: 300px;"" />
                   </div>","null","7","1","C","",""
"","","","","","html-button-response","78","421666","0.0-64.0","356161C898E34DD7B304A3F33649C63F","0199d606-0c38-764e-bba7-49d0f395cf1a","0199d5ef-c7d4-7cab-a194-b2c3afbaf8e8","","3074","
        <div style=""display: flex; justify-content: center; align-items: center;"">
          <img src=""images/red_deck_2.png"" style=""width: 300px; height: 300px; margin-right: 10px;"" />
          <img src=""images/blue_deck_1.png"" style=""width: 300px; height: 300px;"" />
        </div>","1","7","1","choice","1",""
"","","","","","html-keyboard-response","79","427668","0.0-65.0-1.0-0.0","356161C898E34DD7B304A3F33649C63F","0199d606-0c38-764e-bba7-49d0f395cf1a","0199d5ef-c7d4-7cab-a194-b2c3afbaf8e8","","null","<div style=""display: flex; justify-content: center; align-items: center;"">
                     <img src=""images/semantic/semantic_series_7/semantic_series_7_d.png"" style=""width: 300px; height: 300px;"" />
                   </div>","null","7","1","D","",""
"","","","","","html-keyboard-response","80","433671","0.0-65.0-1.0-1.0","356161C898E34DD7B304A3F33649C63F","0199d606-0c38-764e-bba7-49d0f395cf1a","0199d5ef-c7d4-7cab-a194-b2c3afbaf8e8","","null","<div style=""display: flex; justify-content: center; align-items: center;"">
                     <img src=""images/semantic/semantic_series_7/semantic_series_7_e.png"" style=""width: 300px; height: 300px;"" />
                   </div>","null","7","1","E","",""
"","","","","","html-keyboard-response","81","439672","0.0-65.0-1.0-2.0","356161C898E34DD7B304A3F33649C63F","0199d606-0c38-764e-bba7-49d0f395cf1a","0199d5ef-c7d4-7cab-a194-b2c3afbaf8e8","","null","<div style=""display: flex; justify-content: center; align-items: center;"">
                     <img src=""images/semantic/semantic_series_7/semantic_series_7_f.png"" style=""width: 300px; height: 300px;"" />
                   </div>","null","7","1","F","",""
"","","","","","survey-likert","82","443515","0.0-66.0","356161C898E34DD7B304A3F33649C63F","0199d606-0c38-764e-bba7-49d0f395cf1a","0199d5ef-c7d4-7cab-a194-b2c3afbaf8e8","","3842","","{""Q0"":4}","7","1","surprise_rating","","[0]"
"","","","","","survey-likert","83","446183","0.0-67.0","356161C898E34DD7B304A3F33649C63F","0199d606-0c38-764e-bba7-49d0f395cf1a","0199d5ef-c7d4-7cab-a194-b2c3afbaf8e8","","2666","","{""Q0"":3}","7","1","enjoyment_rating","","[0]"
"","","","","","html-keyboard-response","84","452185","0.0-68.0","356161C898E34DD7B304A3F33649C63F","0199d606-0c38-764e-bba7-49d0f395cf1a","0199d5ef-c7d4-7cab-a194-b2c3afbaf8e8","","null","<div style=""display: flex; justify-content: center; align-items: center;"">
                     <img src=""images/other/blank.png"" style=""width: 300px; height: 300px;"" />
                   </div>","null","0","0","blank","",""
"","","","","","html-keyboard-response","85","458187","0.0-69.0","356161C898E34DD7B304A3F33649C63F","0199d606-0c38-764e-bba7-49d0f395cf1a","0199d5ef-c7d4-7cab-a194-b2c3afbaf8e8","","null","<div style=""display: flex; justify-content: center; align-items: center;"">
                     <img src=""images/causal/causal_series_1/causal_series_1_a.png"" style=""width: 300px; height: 300px;"" />
                   </div>","null","1","2","A","",""
"","","","","","html-keyboard-response","86","464189","0.0-70.0","356161C898E34DD7B304A3F33649C63F","0199d606-0c38-764e-bba7-49d0f395cf1a","0199d5ef-c7d4-7cab-a194-b2c3afbaf8e8","","null","<div style=""display: flex; justify-content: center; align-items: center;"">
                     <img src=""images/causal/causal_series_1/causal_series_1_b.png"" style=""width: 300px; height: 300px;"" />
                   </div>","null","1","2","B","",""
"","","","","","html-keyboard-response","87","470192","0.0-71.0","356161C898E34DD7B304A3F33649C63F","0199d606-0c38-764e-bba7-49d0f395cf1a","0199d5ef-c7d4-7cab-a194-b2c3afbaf8e8","","null","<div style=""display: flex; justify-content: center; align-items: center;"">
                     <img src=""images/causal/causal_series_1/causal_series_1_c.png"" style=""width: 300px; height: 300px;"" />
                   </div>","null","1","2","C","",""
"","","","","","html-button-response","88","472812","0.0-72.0","356161C898E34DD7B304A3F33649C63F","0199d606-0c38-764e-bba7-49d0f395cf1a","0199d5ef-c7d4-7cab-a194-b2c3afbaf8e8","","2619","
        <div style=""display: flex; justify-content: center; align-items: center;"">
          <img src=""images/red_deck_2.png"" style=""width: 300px; height: 300px; margin-right: 10px;"" />
          <img src=""images/blue_deck_1.png"" style=""width: 300px; height: 300px;"" />
        </div>","0","1","2","choice","0",""
"","","","","","html-keyboard-response","89","478813","0.0-73.0-0.0-0.0","356161C898E34DD7B304A3F33649C63F","0199d606-0c38-764e-bba7-49d0f395cf1a","0199d5ef-c7d4-7cab-a194-b2c3afbaf8e8","","null","<div style=""display: flex; justify-content: center; align-items: center;"">
                     <img src=""images/causal/causal_series_1/causal_series_1_d.png"" style=""width: 300px; height: 300px;"" />
                   </div>","null","1","2","D","",""
"","","","","","html-keyboard-response","90","484816","0.0-73.0-0.0-1.0","356161C898E34DD7B304A3F33649C63F","0199d606-0c38-764e-bba7-49d0f395cf1a","0199d5ef-c7d4-7cab-a194-b2c3afbaf8e8","","null","<div style=""display: flex; justify-content: center; align-items: center;"">
                     <img src=""images/causal/causal_series_1/causal_series_1_e.png"" style=""width: 300px; height: 300px;"" />
                   </div>","null","1","2","E","",""
"","","","","","html-keyboard-response","91","490819","0.0-73.0-0.0-2.0","356161C898E34DD7B304A3F33649C63F","0199d606-0c38-764e-bba7-49d0f395cf1a","0199d5ef-c7d4-7cab-a194-b2c3afbaf8e8","","null","<div style=""display: flex; justify-content: center; align-items: center;"">
                     <img src=""images/causal/causal_series_1/causal_series_1_f.png"" style=""width: 300px; height: 300px;"" />
                   </div>","null","1","2","F","",""
"","","","","","survey-likert","92","494260","0.0-74.0","356161C898E34DD7B304A3F33649C63F","0199d606-0c38-764e-bba7-49d0f395cf1a","0199d5ef-c7d4-7cab-a194-b2c3afbaf8e8","","3441","","{""Q0"":4}","1","2","surprise_rating","","[0]"
"","","","","","survey-likert","93","497915","0.0-75.0","356161C898E34DD7B304A3F33649C63F","0199d606-0c38-764e-bba7-49d0f395cf1a","0199d5ef-c7d4-7cab-a194-b2c3afbaf8e8","","3654","","{""Q0"":2}","1","2","enjoyment_rating","","[0]"
"","","","","","html-keyboard-response","94","503917","0.0-76.0","356161C898E34DD7B304A3F33649C63F","0199d606-0c38-764e-bba7-49d0f395cf1a","0199d5ef-c7d4-7cab-a194-b2c3afbaf8e8","","null","<div style=""display: flex; justify-content: center; align-items: center;"">
                     <img src=""images/other/blank.png"" style=""width: 300px; height: 300px;"" />
                   </div>","null","0","0","blank","",""
"","","","","","html-keyboard-response","95","509919","0.0-77.0","356161C898E34DD7B304A3F33649C63F","0199d606-0c38-764e-bba7-49d0f395cf1a","0199d5ef-c7d4-7cab-a194-b2c3afbaf8e8","","null","<div style=""display: flex; justify-content: center; align-items: center;"">
                     <img src=""images/causal/causal_series_10/causal_series_10_a.png"" style=""width: 300px; height: 300px;"" />
                   </div>","null","10","1","A","",""
"","","","","","html-keyboard-response","96","515922","0.0-78.0","356161C898E34DD7B304A3F33649C63F","0199d606-0c38-764e-bba7-49d0f395cf1a","0199d5ef-c7d4-7cab-a194-b2c3afbaf8e8","","null","<div style=""display: flex; justify-content: center; align-items: center;"">
                     <img src=""images/causal/causal_series_10/causal_series_10_b.png"" style=""width: 300px; height: 300px;"" />
                   </div>","null","10","1","B","",""
"","","","","","html-keyboard-response","97","521925","0.0-79.0","356161C898E34DD7B304A3F33649C63F","0199d606-0c38-764e-bba7-49d0f395cf1a","0199d5ef-c7d4-7cab-a194-b2c3afbaf8e8","","null","<div style=""display: flex; justify-content: center; align-items: center;"">
                     <img src=""images/causal/causal_series_10/causal_series_10_c.png"" style=""width: 300px; height: 300px;"" />
                   </div>","null","10","1","C","",""
"","","","","","html-button-response","98","523890","0.0-80.0","356161C898E34DD7B304A3F33649C63F","0199d606-0c38-764e-bba7-49d0f395cf1a","0199d5ef-c7d4-7cab-a194-b2c3afbaf8e8","","1964","
        <div style=""display: flex; justify-content: center; align-items: center;"">
          <img src=""images/red_deck_2.png"" style=""width: 300px; height: 300px; margin-right: 10px;"" />
          <img src=""images/blue_deck_1.png"" style=""width: 300px; height: 300px;"" />
        </div>","1","10","1","choice","1",""
"","","","","","html-keyboard-response","99","529892","0.0-81.0-1.0-0.0","356161C898E34DD7B304A3F33649C63F","0199d606-0c38-764e-bba7-49d0f395cf1a","0199d5ef-c7d4-7cab-a194-b2c3afbaf8e8","","null","<div style=""display: flex; justify-content: center; align-items: center;"">
                     <img src=""images/semantic/semantic_series_10/semantic_series_10_d.png"" style=""width: 300px; height: 300px;"" />
                   </div>","null","10","1","D","",""
"","","","","","html-keyboard-response","100","535894","0.0-81.0-1.0-1.0","356161C898E34DD7B304A3F33649C63F","0199d606-0c38-764e-bba7-49d0f395cf1a","0199d5ef-c7d4-7cab-a194-b2c3afbaf8e8","","null","<div style=""display: flex; justify-content: center; align-items: center;"">
                     <img src=""images/semantic/semantic_series_10/semantic_series_10_e.png"" style=""width: 300px; height: 300px;"" />
                   </div>","null","10","1","E","",""
"","","","","","html-keyboard-response","101","541896","0.0-81.0-1.0-2.0","356161C898E34DD7B304A3F33649C63F","0199d606-0c38-764e-bba7-49d0f395cf1a","0199d5ef-c7d4-7cab-a194-b2c3afbaf8e8","","null","<div style=""display: flex; justify-content: center; align-items: center;"">
                     <img src=""images/semantic/semantic_series_10/semantic_series_10_f.png"" style=""width: 300px; height: 300px;"" />
                   </div>","null","10","1","F","",""
"","","","","","survey-likert","102","546004","0.0-82.0","356161C898E34DD7B304A3F33649C63F","0199d606-0c38-764e-bba7-49d0f395cf1a","0199d5ef-c7d4-7cab-a194-b2c3afbaf8e8","","4108","","{""Q0"":4}","10","1","surprise_rating","","[0]"
"","","","","","survey-likert","103","547986","0.0-83.0","356161C898E34DD7B304A3F33649C63F","0199d606-0c38-764e-bba7-49d0f395cf1a","0199d5ef-c7d4-7cab-a194-b2c3afbaf8e8","","1982","","{""Q0"":4}","10","1","enjoyment_rating","","[0]"
"","","","","","html-keyboard-response","104","553988","0.0-84.0","356161C898E34DD7B304A3F33649C63F","0199d606-0c38-764e-bba7-49d0f395cf1a","0199d5ef-c7d4-7cab-a194-b2c3afbaf8e8","","null","<div style=""display: flex; justify-content: center; align-items: center;"">
                     <img src=""images/other/blank.png"" style=""width: 300px; height: 300px;"" />
                   </div>","null","0","0","blank","",""
"","","","","","html-keyboard-response","105","559991","0.0-85.0","356161C898E34DD7B304A3F33649C63F","0199d606-0c38-764e-bba7-49d0f395cf1a","0199d5ef-c7d4-7cab-a194-b2c3afbaf8e8","","null","<div style=""display: flex; justify-content: center; align-items: center;"">
                     <img src=""images/causal/causal_series_4/causal_series_4_a.png"" style=""width: 300px; height: 300px;"" />
                   </div>","null","4","1","A","",""
"","","","","","html-keyboard-response","106","565993","0.0-86.0","356161C898E34DD7B304A3F33649C63F","0199d606-0c38-764e-bba7-49d0f395cf1a","0199d5ef-c7d4-7cab-a194-b2c3afbaf8e8","","null","<div style=""display: flex; justify-content: center; align-items: center;"">
                     <img src=""images/causal/causal_series_4/causal_series_4_b.png"" style=""width: 300px; height: 300px;"" />
                   </div>","null","4","1","B","",""
"","","","","","html-keyboard-response","107","571997","0.0-87.0","356161C898E34DD7B304A3F33649C63F","0199d606-0c38-764e-bba7-49d0f395cf1a","0199d5ef-c7d4-7cab-a194-b2c3afbaf8e8","","null","<div style=""display: flex; justify-content: center; align-items: center;"">
                     <img src=""images/causal/causal_series_4/causal_series_4_c.png"" style=""width: 300px; height: 300px;"" />
                   </div>","null","4","1","C","",""
"","","","","","html-button-response","108","575042","0.0-88.0","356161C898E34DD7B304A3F33649C63F","0199d606-0c38-764e-bba7-49d0f395cf1a","0199d5ef-c7d4-7cab-a194-b2c3afbaf8e8","","3044","
        <div style=""display: flex; justify-content: center; align-items: center;"">
          <img src=""images/red_deck_2.png"" style=""width: 300px; height: 300px; margin-right: 10px;"" />
          <img src=""images/blue_deck_1.png"" style=""width: 300px; height: 300px;"" />
        </div>","0","4","1","choice","0",""
"","","","","","html-keyboard-response","109","581044","0.0-89.0-0.0-0.0","356161C898E34DD7B304A3F33649C63F","0199d606-0c38-764e-bba7-49d0f395cf1a","0199d5ef-c7d4-7cab-a194-b2c3afbaf8e8","","null","<div style=""display: flex; justify-content: center; align-items: center;"">
                     <img src=""images/causal/causal_series_4/causal_series_4_d.png"" style=""width: 300px; height: 300px;"" />
                   </div>","null","4","1","D","",""
"","","","","","html-keyboard-response","110","587048","0.0-89.0-0.0-1.0","356161C898E34DD7B304A3F33649C63F","0199d606-0c38-764e-bba7-49d0f395cf1a","0199d5ef-c7d4-7cab-a194-b2c3afbaf8e8","","null","<div style=""display: flex; justify-content: center; align-items: center;"">
                     <img src=""images/causal/causal_series_4/causal_series_4_e.png"" style=""width: 300px; height: 300px;"" />
                   </div>","null","4","1","E","",""
"","","","","","html-keyboard-response","111","593050","0.0-89.0-0.0-2.0","356161C898E34DD7B304A3F33649C63F","0199d606-0c38-764e-bba7-49d0f395cf1a","0199d5ef-c7d4-7cab-a194-b2c3afbaf8e8","","null","<div style=""display: flex; justify-content: center; align-items: center;"">
                     <img src=""images/causal/causal_series_4/causal_series_4_f.png"" style=""width: 300px; height: 300px;"" />
                   </div>","null","4","1","F","",""
"","","","","","survey-likert","112","597004","0.0-90.0","356161C898E34DD7B304A3F33649C63F","0199d606-0c38-764e-bba7-49d0f395cf1a","0199d5ef-c7d4-7cab-a194-b2c3afbaf8e8","","3952","","{""Q0"":4}","4","1","surprise_rating","","[0]"
"","","","","","survey-likert","113","598537","0.0-91.0","356161C898E34DD7B304A3F33649C63F","0199d606-0c38-764e-bba7-49d0f395cf1a","0199d5ef-c7d4-7cab-a194-b2c3afbaf8e8","","1533","","{""Q0"":3}","4","1","enjoyment_rating","","[0]"
"","","","","","html-keyboard-response","114","604539","0.0-92.0","356161C898E34DD7B304A3F33649C63F","0199d606-0c38-764e-bba7-49d0f395cf1a","0199d5ef-c7d4-7cab-a194-b2c3afbaf8e8","","null","<div style=""display: flex; justify-content: center; align-items: center;"">
                     <img src=""images/other/blank.png"" style=""width: 300px; height: 300px;"" />
                   </div>","null","0","0","blank","",""
"","","","","","html-keyboard-response","115","610541","0.0-93.0","356161C898E34DD7B304A3F33649C63F","0199d606-0c38-764e-bba7-49d0f395cf1a","0199d5ef-c7d4-7cab-a194-b2c3afbaf8e8","","null","<div style=""display: flex; justify-content: center; align-items: center;"">
                     <img src=""images/causal/causal_series_9/causal_series_9_a.png"" style=""width: 300px; height: 300px;"" />
                   </div>","null","9","1","A","",""
"","","","","","html-keyboard-response","116","616543","0.0-94.0","356161C898E34DD7B304A3F33649C63F","0199d606-0c38-764e-bba7-49d0f395cf1a","0199d5ef-c7d4-7cab-a194-b2c3afbaf8e8","","null","<div style=""display: flex; justify-content: center; align-items: center;"">
                     <img src=""images/causal/causal_series_9/causal_series_9_b.png"" style=""width: 300px; height: 300px;"" />
                   </div>","null","9","1","B","",""
"","","","","","html-keyboard-response","117","622546","0.0-95.0","356161C898E34DD7B304A3F33649C63F","0199d606-0c38-764e-bba7-49d0f395cf1a","0199d5ef-c7d4-7cab-a194-b2c3afbaf8e8","","null","<div style=""display: flex; justify-content: center; align-items: center;"">
                     <img src=""images/causal/causal_series_9/causal_series_9_c.png"" style=""width: 300px; height: 300px;"" />
                   </div>","null","9","1","C","",""
"","","","","","html-button-response","118","624655","0.0-96.0","356161C898E34DD7B304A3F33649C63F","0199d606-0c38-764e-bba7-49d0f395cf1a","0199d5ef-c7d4-7cab-a194-b2c3afbaf8e8","","2108","
        <div style=""display: flex; justify-content: center; align-items: center;"">
          <img src=""images/red_deck_2.png"" style=""width: 300px; height: 300px; margin-right: 10px;"" />
          <img src=""images/blue_deck_1.png"" style=""width: 300px; height: 300px;"" />
        </div>","1","9","1","choice","1",""
"","","","","","html-keyboard-response","119","630658","0.0-97.0-1.0-0.0","356161C898E34DD7B304A3F33649C63F","0199d606-0c38-764e-bba7-49d0f395cf1a","0199d5ef-c7d4-7cab-a194-b2c3afbaf8e8","","null","<div style=""display: flex; justify-content: center; align-items: center;"">
                     <img src=""images/semantic/semantic_series_9/semantic_series_9_d.png"" style=""width: 300px; height: 300px;"" />
                   </div>","null","9","1","D","",""
"","","","","","html-keyboard-response","120","636660","0.0-97.0-1.0-1.0","356161C898E34DD7B304A3F33649C63F","0199d606-0c38-764e-bba7-49d0f395cf1a","0199d5ef-c7d4-7cab-a194-b2c3afbaf8e8","","null","<div style=""display: flex; justify-content: center; align-items: center;"">
                     <img src=""images/semantic/semantic_series_9/semantic_series_9_e.png"" style=""width: 300px; height: 300px;"" />
                   </div>","null","9","1","E","",""
"","","","","","html-keyboard-response","121","642663","0.0-97.0-1.0-2.0","356161C898E34DD7B304A3F33649C63F","0199d606-0c38-764e-bba7-49d0f395cf1a","0199d5ef-c7d4-7cab-a194-b2c3afbaf8e8","","null","<div style=""display: flex; justify-content: center; align-items: center;"">
                     <img src=""images/semantic/semantic_series_9/semantic_series_9_f.png"" style=""width: 300px; height: 300px;"" />
                   </div>","null","9","1","F","",""
"","","","","","survey-likert","122","646509","0.0-98.0","356161C898E34DD7B304A3F33649C63F","0199d606-0c38-764e-bba7-49d0f395cf1a","0199d5ef-c7d4-7cab-a194-b2c3afbaf8e8","","3845","","{""Q0"":3}","9","1","surprise_rating","","[0]"
"","","","","","survey-likert","123","649449","0.0-99.0","356161C898E34DD7B304A3F33649C63F","0199d606-0c38-764e-bba7-49d0f395cf1a","0199d5ef-c7d4-7cab-a194-b2c3afbaf8e8","","2939","","{""Q0"":3}","9","1","enjoyment_rating","","[0]"
"","","","","","html-keyboard-response","124","655451","0.0-100.0","356161C898E34DD7B304A3F33649C63F","0199d606-0c38-764e-bba7-49d0f395cf1a","0199d5ef-c7d4-7cab-a194-b2c3afbaf8e8","","null","<div style=""display: flex; justify-content: center; align-items: center;"">
                     <img src=""images/other/blank.png"" style=""width: 300px; height: 300px;"" />
                   </div>","null","0","0","blank","",""
"","","","","","html-keyboard-response","125","661453","0.0-101.0","356161C898E34DD7B304A3F33649C63F","0199d606-0c38-764e-bba7-49d0f395cf1a","0199d5ef-c7d4-7cab-a194-b2c3afbaf8e8","","null","<div style=""display: flex; justify-content: center; align-items: center;"">
                     <img src=""images/causal/causal_series_6/causal_series_6_a.png"" style=""width: 300px; height: 300px;"" />
                   </div>","null","6","1","A","",""
"","","","","","html-keyboard-response","126","667454","0.0-102.0","356161C898E34DD7B304A3F33649C63F","0199d606-0c38-764e-bba7-49d0f395cf1a","0199d5ef-c7d4-7cab-a194-b2c3afbaf8e8","","null","<div style=""display: flex; justify-content: center; align-items: center;"">
                     <img src=""images/causal/causal_series_6/causal_series_6_b.png"" style=""width: 300px; height: 300px;"" />
                   </div>","null","6","1","B","",""
"","","","","","html-keyboard-response","127","673457","0.0-103.0","356161C898E34DD7B304A3F33649C63F","0199d606-0c38-764e-bba7-49d0f395cf1a","0199d5ef-c7d4-7cab-a194-b2c3afbaf8e8","","null","<div style=""display: flex; justify-content: center; align-items: center;"">
                     <img src=""images/causal/causal_series_6/causal_series_6_c.png"" style=""width: 300px; height: 300px;"" />
                   </div>","null","6","1","C","",""
"","","","","","html-button-response","128","675113","0.0-104.0","356161C898E34DD7B304A3F33649C63F","0199d606-0c38-764e-bba7-49d0f395cf1a","0199d5ef-c7d4-7cab-a194-b2c3afbaf8e8","","1655","
        <div style=""display: flex; justify-content: center; align-items: center;"">
          <img src=""images/red_deck_2.png"" style=""width: 300px; height: 300px; margin-right: 10px;"" />
          <img src=""images/blue_deck_1.png"" style=""width: 300px; height: 300px;"" />
        </div>","1","6","1","choice","1",""
"","","","","","html-keyboard-response","129","681115","0.0-105.0-1.0-0.0","356161C898E34DD7B304A3F33649C63F","0199d606-0c38-764e-bba7-49d0f395cf1a","0199d5ef-c7d4-7cab-a194-b2c3afbaf8e8","","null","<div style=""display: flex; justify-content: center; align-items: center;"">
                     <img src=""images/semantic/semantic_series_6/semantic_series_6_d.png"" style=""width: 300px; height: 300px;"" />
                   </div>","null","6","1","D","",""
"","","","","","html-keyboard-response","130","687117","0.0-105.0-1.0-1.0","356161C898E34DD7B304A3F33649C63F","0199d606-0c38-764e-bba7-49d0f395cf1a","0199d5ef-c7d4-7cab-a194-b2c3afbaf8e8","","null","<div style=""display: flex; justify-content: center; align-items: center;"">
                     <img src=""images/semantic/semantic_series_6/semantic_series_6_e.png"" style=""width: 300px; height: 300px;"" />
                   </div>","null","6","1","E","",""
"","","","","","html-keyboard-response","131","693119","0.0-105.0-1.0-2.0","356161C898E34DD7B304A3F33649C63F","0199d606-0c38-764e-bba7-49d0f395cf1a","0199d5ef-c7d4-7cab-a194-b2c3afbaf8e8","","null","<div style=""display: flex; justify-content: center; align-items: center;"">
                     <img src=""images/semantic/semantic_series_6/semantic_series_6_f.png"" style=""width: 300px; height: 300px;"" />
                   </div>","null","6","1","F","",""
"","","","","","survey-likert","132","698963","0.0-106.0","356161C898E34DD7B304A3F33649C63F","0199d606-0c38-764e-bba7-49d0f395cf1a","0199d5ef-c7d4-7cab-a194-b2c3afbaf8e8","","5843","","{""Q0"":0}","6","1","surprise_rating","","[0]"
"","","","","","survey-likert","133","700778","0.0-107.0","356161C898E34DD7B304A3F33649C63F","0199d606-0c38-764e-bba7-49d0f395cf1a","0199d5ef-c7d4-7cab-a194-b2c3afbaf8e8","","1814","","{""Q0"":0}","6","1","enjoyment_rating","","[0]"
"","","","","","html-keyboard-response","134","706781","0.0-108.0","356161C898E34DD7B304A3F33649C63F","0199d606-0c38-764e-bba7-49d0f395cf1a","0199d5ef-c7d4-7cab-a194-b2c3afbaf8e8","","null","<div style=""display: flex; justify-content: center; align-items: center;"">
                     <img src=""images/other/blank.png"" style=""width: 300px; height: 300px;"" />
                   </div>","null","0","0","blank","",""
"","","","","","html-keyboard-response","135","712783","0.0-109.0","356161C898E34DD7B304A3F33649C63F","0199d606-0c38-764e-bba7-49d0f395cf1a","0199d5ef-c7d4-7cab-a194-b2c3afbaf8e8","","null","<div style=""display: flex; justify-content: center; align-items: center;"">
                     <img src=""images/causal/causal_series_2/causal_series_2_a.png"" style=""width: 300px; height: 300px;"" />
                   </div>","null","2","2","A","",""
"","","","","","html-keyboard-response","136","718786","0.0-110.0","356161C898E34DD7B304A3F33649C63F","0199d606-0c38-764e-bba7-49d0f395cf1a","0199d5ef-c7d4-7cab-a194-b2c3afbaf8e8","","null","<div style=""display: flex; justify-content: center; align-items: center;"">
                     <img src=""images/causal/causal_series_2/causal_series_2_b.png"" style=""width: 300px; height: 300px;"" />
                   </div>","null","2","2","B","",""
"","","","","","html-keyboard-response","137","724788","0.0-111.0","356161C898E34DD7B304A3F33649C63F","0199d606-0c38-764e-bba7-49d0f395cf1a","0199d5ef-c7d4-7cab-a194-b2c3afbaf8e8","","null","<div style=""display: flex; justify-content: center; align-items: center;"">
                     <img src=""images/causal/causal_series_2/causal_series_2_c.png"" style=""width: 300px; height: 300px;"" />
                   </div>","null","2","2","C","",""
"","","","","","html-button-response","138","727164","0.0-112.0","356161C898E34DD7B304A3F33649C63F","0199d606-0c38-764e-bba7-49d0f395cf1a","0199d5ef-c7d4-7cab-a194-b2c3afbaf8e8","","2375","
        <div style=""display: flex; justify-content: center; align-items: center;"">
          <img src=""images/red_deck_2.png"" style=""width: 300px; height: 300px; margin-right: 10px;"" />
          <img src=""images/blue_deck_1.png"" style=""width: 300px; height: 300px;"" />
        </div>","1","2","2","choice","1",""
"","","","","","html-keyboard-response","139","733167","0.0-113.0-1.0-0.0","356161C898E34DD7B304A3F33649C63F","0199d606-0c38-764e-bba7-49d0f395cf1a","0199d5ef-c7d4-7cab-a194-b2c3afbaf8e8","","null","<div style=""display: flex; justify-content: center; align-items: center;"">
                     <img src=""images/semantic/semantic_series_2/semantic_series_2_d.png"" style=""width: 300px; height: 300px;"" />
                   </div>","null","2","2","D","",""
"","","","","","html-keyboard-response","140","739167","0.0-113.0-1.0-1.0","356161C898E34DD7B304A3F33649C63F","0199d606-0c38-764e-bba7-49d0f395cf1a","0199d5ef-c7d4-7cab-a194-b2c3afbaf8e8","","null","<div style=""display: flex; justify-content: center; align-items: center;"">
                     <img src=""images/semantic/semantic_series_2/semantic_series_2_e.png"" style=""width: 300px; height: 300px;"" />
                   </div>","null","2","2","E","",""
"","","","","","html-keyboard-response","141","745169","0.0-113.0-1.0-2.0","356161C898E34DD7B304A3F33649C63F","0199d606-0c38-764e-bba7-49d0f395cf1a","0199d5ef-c7d4-7cab-a194-b2c3afbaf8e8","","null","<div style=""display: flex; justify-content: center; align-items: center;"">
                     <img src=""images/semantic/semantic_series_2/semantic_series_2_f.png"" style=""width: 300px; height: 300px;"" />
                   </div>","null","2","2","F","",""
"","","","","","survey-likert","142","748464","0.0-114.0","356161C898E34DD7B304A3F33649C63F","0199d606-0c38-764e-bba7-49d0f395cf1a","0199d5ef-c7d4-7cab-a194-b2c3afbaf8e8","","3294","","{""Q0"":3}","2","2","surprise_rating","","[0]"
"","","","","","survey-likert","143","750389","0.0-115.0","356161C898E34DD7B304A3F33649C63F","0199d606-0c38-764e-bba7-49d0f395cf1a","0199d5ef-c7d4-7cab-a194-b2c3afbaf8e8","","1924","","{""Q0"":4}","2","2","enjoyment_rating","","[0]"
"","","","","","html-keyboard-response","144","756391","0.0-116.0","356161C898E34DD7B304A3F33649C63F","0199d606-0c38-764e-bba7-49d0f395cf1a","0199d5ef-c7d4-7cab-a194-b2c3afbaf8e8","","null","<div style=""display: flex; justify-content: center; align-items: center;"">
                     <img src=""images/other/blank.png"" style=""width: 300px; height: 300px;"" />
                   </div>","null","0","0","blank","",""
"","","","","","html-keyboard-response","145","762393","0.0-117.0","356161C898E34DD7B304A3F33649C63F","0199d606-0c38-764e-bba7-49d0f395cf1a","0199d5ef-c7d4-7cab-a194-b2c3afbaf8e8","","null","<div style=""display: flex; justify-content: center; align-items: center;"">
                     <img src=""images/causal/causal_series_5/causal_series_5_a.png"" style=""width: 300px; height: 300px;"" />
                   </div>","null","5","1","A","",""
"","","","","","html-keyboard-response","146","768396","0.0-118.0","356161C898E34DD7B304A3F33649C63F","0199d606-0c38-764e-bba7-49d0f395cf1a","0199d5ef-c7d4-7cab-a194-b2c3afbaf8e8","","null","<div style=""display: flex; justify-content: center; align-items: center;"">
                     <img src=""images/causal/causal_series_5/causal_series_5_b.png"" style=""width: 300px; height: 300px;"" />
                   </div>","null","5","1","B","",""
"","","","","","html-keyboard-response","147","774399","0.0-119.0","356161C898E34DD7B304A3F33649C63F","0199d606-0c38-764e-bba7-49d0f395cf1a","0199d5ef-c7d4-7cab-a194-b2c3afbaf8e8","","null","<div style=""display: flex; justify-content: center; align-items: center;"">
                     <img src=""images/causal/causal_series_5/causal_series_5_c.png"" style=""width: 300px; height: 300px;"" />
                   </div>","null","5","1","C","",""
"","","","","","html-button-response","148","776239","0.0-120.0","356161C898E34DD7B304A3F33649C63F","0199d606-0c38-764e-bba7-49d0f395cf1a","0199d5ef-c7d4-7cab-a194-b2c3afbaf8e8","","1839","
        <div style=""display: flex; justify-content: center; align-items: center;"">
          <img src=""images/red_deck_2.png"" style=""width: 300px; height: 300px; margin-right: 10px;"" />
          <img src=""images/blue_deck_1.png"" style=""width: 300px; height: 300px;"" />
        </div>","0","5","1","choice","0",""
"","","","","","html-keyboard-response","149","782241","0.0-121.0-0.0-0.0","356161C898E34DD7B304A3F33649C63F","0199d606-0c38-764e-bba7-49d0f395cf1a","0199d5ef-c7d4-7cab-a194-b2c3afbaf8e8","","null","<div style=""display: flex; justify-content: center; align-items: center;"">
                     <img src=""images/causal/causal_series_5/causal_series_5_d.png"" style=""width: 300px; height: 300px;"" />
                   </div>","null","5","1","D","",""
"","","","","","html-keyboard-response","150","788243","0.0-121.0-0.0-1.0","356161C898E34DD7B304A3F33649C63F","0199d606-0c38-764e-bba7-49d0f395cf1a","0199d5ef-c7d4-7cab-a194-b2c3afbaf8e8","","null","<div style=""display: flex; justify-content: center; align-items: center;"">
                     <img src=""images/causal/causal_series_5/causal_series_5_e.png"" style=""width: 300px; height: 300px;"" />
                   </div>","null","5","1","E","",""
"","","","","","html-keyboard-response","151","794245","0.0-121.0-0.0-2.0","356161C898E34DD7B304A3F33649C63F","0199d606-0c38-764e-bba7-49d0f395cf1a","0199d5ef-c7d4-7cab-a194-b2c3afbaf8e8","","null","<div style=""display: flex; justify-content: center; align-items: center;"">
                     <img src=""images/causal/causal_series_5/causal_series_5_f.png"" style=""width: 300px; height: 300px;"" />
                   </div>","null","5","1","F","",""
"","","","","","survey-likert","152","798700","0.0-122.0","356161C898E34DD7B304A3F33649C63F","0199d606-0c38-764e-bba7-49d0f395cf1a","0199d5ef-c7d4-7cab-a194-b2c3afbaf8e8","","4454","","{""Q0"":2}","5","1","surprise_rating","","[0]"
"","","","","","survey-likert","153","800212","0.0-123.0","356161C898E34DD7B304A3F33649C63F","0199d606-0c38-764e-bba7-49d0f395cf1a","0199d5ef-c7d4-7cab-a194-b2c3afbaf8e8","","1511","","{""Q0"":2}","5","1","enjoyment_rating","","[0]"
"","","","","","html-keyboard-response","154","806215","0.0-124.0","356161C898E34DD7B304A3F33649C63F","0199d606-0c38-764e-bba7-49d0f395cf1a","0199d5ef-c7d4-7cab-a194-b2c3afbaf8e8","","null","<div style=""display: flex; justify-content: center; align-items: center;"">
                     <img src=""images/other/blank.png"" style=""width: 300px; height: 300px;"" />
                   </div>","null","0","0","blank","",""
"","","","","","html-keyboard-response","155","812216","0.0-125.0","356161C898E34DD7B304A3F33649C63F","0199d606-0c38-764e-bba7-49d0f395cf1a","0199d5ef-c7d4-7cab-a194-b2c3afbaf8e8","","null","<div style=""display: flex; justify-content: center; align-items: center;"">
                     <img src=""images/causal/causal_series_3/causal_series_3_a.png"" style=""width: 300px; height: 300px;"" />
                   </div>","null","3","1","A","",""
"","","","","","html-keyboard-response","156","818218","0.0-126.0","356161C898E34DD7B304A3F33649C63F","0199d606-0c38-764e-bba7-49d0f395cf1a","0199d5ef-c7d4-7cab-a194-b2c3afbaf8e8","","null","<div style=""display: flex; justify-content: center; align-items: center;"">
                     <img src=""images/causal/causal_series_3/causal_series_3_b.png"" style=""width: 300px; height: 300px;"" />
                   </div>","null","3","1","B","",""
"","","","","","html-keyboard-response","157","824220","0.0-127.0","356161C898E34DD7B304A3F33649C63F","0199d606-0c38-764e-bba7-49d0f395cf1a","0199d5ef-c7d4-7cab-a194-b2c3afbaf8e8","","null","<div style=""display: flex; justify-content: center; align-items: center;"">
                     <img src=""images/causal/causal_series_3/causal_series_3_c.png"" style=""width: 300px; height: 300px;"" />
                   </div>","null","3","1","C","",""
"","","","","","html-button-response","158","826158","0.0-128.0","356161C898E34DD7B304A3F33649C63F","0199d606-0c38-764e-bba7-49d0f395cf1a","0199d5ef-c7d4-7cab-a194-b2c3afbaf8e8","","1937","
        <div style=""display: flex; justify-content: center; align-items: center;"">
          <img src=""images/red_deck_2.png"" style=""width: 300px; height: 300px; margin-right: 10px;"" />
          <img src=""images/blue_deck_1.png"" style=""width: 300px; height: 300px;"" />
        </div>","1","3","1","choice","1",""
"","","","","","html-keyboard-response","159","832160","0.0-129.0-1.0-0.0","356161C898E34DD7B304A3F33649C63F","0199d606-0c38-764e-bba7-49d0f395cf1a","0199d5ef-c7d4-7cab-a194-b2c3afbaf8e8","","null","<div style=""display: flex; justify-content: center; align-items: center;"">
                     <img src=""images/semantic/semantic_series_3/semantic_series_3_d.png"" style=""width: 300px; height: 300px;"" />
                   </div>","null","3","1","D","",""
"","","","","","html-keyboard-response","160","838214","0.0-129.0-1.0-1.0","356161C898E34DD7B304A3F33649C63F","0199d606-0c38-764e-bba7-49d0f395cf1a","0199d5ef-c7d4-7cab-a194-b2c3afbaf8e8","","null","<div style=""display: flex; justify-content: center; align-items: center;"">
                     <img src=""images/semantic/semantic_series_3/semantic_series_3_e.png"" style=""width: 300px; height: 300px;"" />
                   </div>","null","3","1","E","",""
"","","","","","html-keyboard-response","161","844216","0.0-129.0-1.0-2.0","356161C898E34DD7B304A3F33649C63F","0199d606-0c38-764e-bba7-49d0f395cf1a","0199d5ef-c7d4-7cab-a194-b2c3afbaf8e8","","null","<div style=""display: flex; justify-content: center; align-items: center;"">
                     <img src=""images/semantic/semantic_series_3/semantic_series_3_f.png"" style=""width: 300px; height: 300px;"" />
                   </div>","null","3","1","F","",""
"","","","","","survey-likert","162","847243","0.0-130.0","356161C898E34DD7B304A3F33649C63F","0199d606-0c38-764e-bba7-49d0f395cf1a","0199d5ef-c7d4-7cab-a194-b2c3afbaf8e8","","3027","","{""Q0"":4}","3","1","surprise_rating","","[0]"
"","","","","","survey-likert","163","848840","0.0-131.0","356161C898E34DD7B304A3F33649C63F","0199d606-0c38-764e-bba7-49d0f395cf1a","0199d5ef-c7d4-7cab-a194-b2c3afbaf8e8","","1596","","{""Q0"":3}","3","1","enjoyment_rating","","[0]"
"","","","","","html-keyboard-response","164","854843","0.0-132.0","356161C898E34DD7B304A3F33649C63F","0199d606-0c38-764e-bba7-49d0f395cf1a","0199d5ef-c7d4-7cab-a194-b2c3afbaf8e8","","null","<div style=""display: flex; justify-content: center; align-items: center;"">
                     <img src=""images/other/blank.png"" style=""width: 300px; height: 300px;"" />
                   </div>","null","0","0","blank","",""
"","","","","","html-keyboard-response","165","860844","0.0-133.0","356161C898E34DD7B304A3F33649C63F","0199d606-0c38-764e-bba7-49d0f395cf1a","0199d5ef-c7d4-7cab-a194-b2c3afbaf8e8","","null","<div style=""display: flex; justify-content: center; align-items: center;"">
                     <img src=""images/causal/causal_series_8/causal_series_8_a.png"" style=""width: 300px; height: 300px;"" />
                   </div>","null","8","2","A","",""
"","","","","","html-keyboard-response","166","866846","0.0-134.0","356161C898E34DD7B304A3F33649C63F","0199d606-0c38-764e-bba7-49d0f395cf1a","0199d5ef-c7d4-7cab-a194-b2c3afbaf8e8","","null","<div style=""display: flex; justify-content: center; align-items: center;"">
                     <img src=""images/causal/causal_series_8/causal_series_8_b.png"" style=""width: 300px; height: 300px;"" />
                   </div>","null","8","2","B","",""
"","","","","","html-keyboard-response","167","872848","0.0-135.0","356161C898E34DD7B304A3F33649C63F","0199d606-0c38-764e-bba7-49d0f395cf1a","0199d5ef-c7d4-7cab-a194-b2c3afbaf8e8","","null","<div style=""display: flex; justify-content: center; align-items: center;"">
                     <img src=""images/causal/causal_series_8/causal_series_8_c.png"" style=""width: 300px; height: 300px;"" />
                   </div>","null","8","2","C","",""
"","","","","","html-button-response","168","874551","0.0-136.0","356161C898E34DD7B304A3F33649C63F","0199d606-0c38-764e-bba7-49d0f395cf1a","0199d5ef-c7d4-7cab-a194-b2c3afbaf8e8","","1702","
        <div style=""display: flex; justify-content: center; align-items: center;"">
          <img src=""images/red_deck_2.png"" style=""width: 300px; height: 300px; margin-right: 10px;"" />
          <img src=""images/blue_deck_1.png"" style=""width: 300px; height: 300px;"" />
        </div>","1","8","2","choice","1",""
"","","","","","html-keyboard-response","169","880553","0.0-137.0-1.0-0.0","356161C898E34DD7B304A3F33649C63F","0199d606-0c38-764e-bba7-49d0f395cf1a","0199d5ef-c7d4-7cab-a194-b2c3afbaf8e8","","null","<div style=""display: flex; justify-content: center; align-items: center;"">
                     <img src=""images/semantic/semantic_series_8/semantic_series_8_d.png"" style=""width: 300px; height: 300px;"" />
                   </div>","null","8","2","D","",""
"","","","","","html-keyboard-response","170","886555","0.0-137.0-1.0-1.0","356161C898E34DD7B304A3F33649C63F","0199d606-0c38-764e-bba7-49d0f395cf1a","0199d5ef-c7d4-7cab-a194-b2c3afbaf8e8","","null","<div style=""display: flex; justify-content: center; align-items: center;"">
                     <img src=""images/semantic/semantic_series_8/semantic_series_8_e.png"" style=""width: 300px; height: 300px;"" />
                   </div>","null","8","2","E","",""
"","","","","","html-keyboard-response","171","892558","0.0-137.0-1.0-2.0","356161C898E34DD7B304A3F33649C63F","0199d606-0c38-764e-bba7-49d0f395cf1a","0199d5ef-c7d4-7cab-a194-b2c3afbaf8e8","","null","<div style=""display: flex; justify-content: center; align-items: center;"">
                     <img src=""images/semantic/semantic_series_8/semantic_series_8_f.png"" style=""width: 300px; height: 300px;"" />
                   </div>","null","8","2","F","",""
"","","","","","survey-likert","172","895436","0.0-138.0","356161C898E34DD7B304A3F33649C63F","0199d606-0c38-764e-bba7-49d0f395cf1a","0199d5ef-c7d4-7cab-a194-b2c3afbaf8e8","","2877","","{""Q0"":2}","8","2","surprise_rating","","[0]"
"","","","","","survey-likert","173","897351","0.0-139.0","356161C898E34DD7B304A3F33649C63F","0199d606-0c38-764e-bba7-49d0f395cf1a","0199d5ef-c7d4-7cab-a194-b2c3afbaf8e8","","1915","","{""Q0"":2}","8","2","enjoyment_rating","","[0]"
"","","","","","html-keyboard-response","174","903354","0.0-140.0","356161C898E34DD7B304A3F33649C63F","0199d606-0c38-764e-bba7-49d0f395cf1a","0199d5ef-c7d4-7cab-a194-b2c3afbaf8e8","","null","<div style=""display: flex; justify-content: center; align-items: center;"">
                     <img src=""images/other/blank.png"" style=""width: 300px; height: 300px;"" />
                   </div>","null","0","0","blank","",""
"","","","","","html-keyboard-response","175","909356","0.0-141.0","356161C898E34DD7B304A3F33649C63F","0199d606-0c38-764e-bba7-49d0f395cf1a","0199d5ef-c7d4-7cab-a194-b2c3afbaf8e8","","null","<div style=""display: flex; justify-content: center; align-items: center;"">
                     <img src=""images/causal/causal_series_10/causal_series_10_a.png"" style=""width: 300px; height: 300px;"" />
                   </div>","null","10","2","A","",""
"","","","","","html-keyboard-response","176","915359","0.0-142.0","356161C898E34DD7B304A3F33649C63F","0199d606-0c38-764e-bba7-49d0f395cf1a","0199d5ef-c7d4-7cab-a194-b2c3afbaf8e8","","null","<div style=""display: flex; justify-content: center; align-items: center;"">
                     <img src=""images/causal/causal_series_10/causal_series_10_b.png"" style=""width: 300px; height: 300px;"" />
                   </div>","null","10","2","B","",""
"","","","","","html-keyboard-response","177","921361","0.0-143.0","356161C898E34DD7B304A3F33649C63F","0199d606-0c38-764e-bba7-49d0f395cf1a","0199d5ef-c7d4-7cab-a194-b2c3afbaf8e8","","null","<div style=""display: flex; justify-content: center; align-items: center;"">
                     <img src=""images/causal/causal_series_10/causal_series_10_c.png"" style=""width: 300px; height: 300px;"" />
                   </div>","null","10","2","C","",""
"","","","","","html-button-response","178","922945","0.0-144.0","356161C898E34DD7B304A3F33649C63F","0199d606-0c38-764e-bba7-49d0f395cf1a","0199d5ef-c7d4-7cab-a194-b2c3afbaf8e8","","1583","
        <div style=""display: flex; justify-content: center; align-items: center;"">
          <img src=""images/red_deck_2.png"" style=""width: 300px; height: 300px; margin-right: 10px;"" />
          <img src=""images/blue_deck_1.png"" style=""width: 300px; height: 300px;"" />
        </div>","1","10","2","choice","1",""
"","","","","","html-keyboard-response","179","928948","0.0-145.0-1.0-0.0","356161C898E34DD7B304A3F33649C63F","0199d606-0c38-764e-bba7-49d0f395cf1a","0199d5ef-c7d4-7cab-a194-b2c3afbaf8e8","","null","<div style=""display: flex; justify-content: center; align-items: center;"">
                     <img src=""images/semantic/semantic_series_10/semantic_series_10_d.png"" style=""width: 300px; height: 300px;"" />
                   </div>","null","10","2","D","",""
"","","","","","html-keyboard-response","180","934951","0.0-145.0-1.0-1.0","356161C898E34DD7B304A3F33649C63F","0199d606-0c38-764e-bba7-49d0f395cf1a","0199d5ef-c7d4-7cab-a194-b2c3afbaf8e8","","null","<div style=""display: flex; justify-content: center; align-items: center;"">
                     <img src=""images/semantic/semantic_series_10/semantic_series_10_e.png"" style=""width: 300px; height: 300px;"" />
                   </div>","null","10","2","E","",""
"","","","","","html-keyboard-response","181","940952","0.0-145.0-1.0-2.0","356161C898E34DD7B304A3F33649C63F","0199d606-0c38-764e-bba7-49d0f395cf1a","0199d5ef-c7d4-7cab-a194-b2c3afbaf8e8","","null","<div style=""display: flex; justify-content: center; align-items: center;"">
                     <img src=""images/semantic/semantic_series_10/semantic_series_10_f.png"" style=""width: 300px; height: 300px;"" />
                   </div>","null","10","2","F","",""
"","","","","","survey-likert","182","944679","0.0-146.0","356161C898E34DD7B304A3F33649C63F","0199d606-0c38-764e-bba7-49d0f395cf1a","0199d5ef-c7d4-7cab-a194-b2c3afbaf8e8","","3726","","{""Q0"":4}","10","2","surprise_rating","","[0]"
"","","","","","survey-likert","183","946120","0.0-147.0","356161C898E34DD7B304A3F33649C63F","0199d606-0c38-764e-bba7-49d0f395cf1a","0199d5ef-c7d4-7cab-a194-b2c3afbaf8e8","","1440","","{""Q0"":4}","10","2","enjoyment_rating","","[0]"
"","","","","","html-keyboard-response","184","952122","0.0-148.0","356161C898E34DD7B304A3F33649C63F","0199d606-0c38-764e-bba7-49d0f395cf1a","0199d5ef-c7d4-7cab-a194-b2c3afbaf8e8","","null","<div style=""display: flex; justify-content: center; align-items: center;"">
                     <img src=""images/other/blank.png"" style=""width: 300px; height: 300px;"" />
                   </div>","null","0","0","blank","",""
"","","","","","html-keyboard-response","185","958125","0.0-149.0","356161C898E34DD7B304A3F33649C63F","0199d606-0c38-764e-bba7-49d0f395cf1a","0199d5ef-c7d4-7cab-a194-b2c3afbaf8e8","","null","<div style=""display: flex; justify-content: center; align-items: center;"">
                     <img src=""images/causal/causal_series_3/causal_series_3_a.png"" style=""width: 300px; height: 300px;"" />
                   </div>","null","3","2","A","",""
"","","","","","html-keyboard-response","186","964127","0.0-150.0","356161C898E34DD7B304A3F33649C63F","0199d606-0c38-764e-bba7-49d0f395cf1a","0199d5ef-c7d4-7cab-a194-b2c3afbaf8e8","","null","<div style=""display: flex; justify-content: center; align-items: center;"">
                     <img src=""images/causal/causal_series_3/causal_series_3_b.png"" style=""width: 300px; height: 300px;"" />
                   </div>","null","3","2","B","",""
"","","","","","html-keyboard-response","187","970128","0.0-151.0","356161C898E34DD7B304A3F33649C63F","0199d606-0c38-764e-bba7-49d0f395cf1a","0199d5ef-c7d4-7cab-a194-b2c3afbaf8e8","","null","<div style=""display: flex; justify-content: center; align-items: center;"">
                     <img src=""images/causal/causal_series_3/causal_series_3_c.png"" style=""width: 300px; height: 300px;"" />
                   </div>","null","3","2","C","",""
"","","","","","html-button-response","188","972082","0.0-152.0","356161C898E34DD7B304A3F33649C63F","0199d606-0c38-764e-bba7-49d0f395cf1a","0199d5ef-c7d4-7cab-a194-b2c3afbaf8e8","","1953","
        <div style=""display: flex; justify-content: center; align-items: center;"">
          <img src=""images/red_deck_2.png"" style=""width: 300px; height: 300px; margin-right: 10px;"" />
          <img src=""images/blue_deck_1.png"" style=""width: 300px; height: 300px;"" />
        </div>","0","3","2","choice","0",""
"","","","","","html-keyboard-response","189","978085","0.0-153.0-0.0-0.0","356161C898E34DD7B304A3F33649C63F","0199d606-0c38-764e-bba7-49d0f395cf1a","0199d5ef-c7d4-7cab-a194-b2c3afbaf8e8","","null","<div style=""display: flex; justify-content: center; align-items: center;"">
                     <img src=""images/causal/causal_series_3/causal_series_3_d.png"" style=""width: 300px; height: 300px;"" />
                   </div>","null","3","2","D","",""
"","","","","","html-keyboard-response","190","984088","0.0-153.0-0.0-1.0","356161C898E34DD7B304A3F33649C63F","0199d606-0c38-764e-bba7-49d0f395cf1a","0199d5ef-c7d4-7cab-a194-b2c3afbaf8e8","","null","<div style=""display: flex; justify-content: center; align-items: center;"">
                     <img src=""images/causal/causal_series_3/causal_series_3_e.png"" style=""width: 300px; height: 300px;"" />
                   </div>","null","3","2","E","",""
"","","","","","html-keyboard-response","191","990090","0.0-153.0-0.0-2.0","356161C898E34DD7B304A3F33649C63F","0199d606-0c38-764e-bba7-49d0f395cf1a","0199d5ef-c7d4-7cab-a194-b2c3afbaf8e8","","null","<div style=""display: flex; justify-content: center; align-items: center;"">
                     <img src=""images/causal/causal_series_3/causal_series_3_f.png"" style=""width: 300px; height: 300px;"" />
                   </div>","null","3","2","F","",""
"","","","","","survey-likert","192","997705","0.0-154.0","356161C898E34DD7B304A3F33649C63F","0199d606-0c38-764e-bba7-49d0f395cf1a","0199d5ef-c7d4-7cab-a194-b2c3afbaf8e8","","7614","","{""Q0"":1}","3","2","surprise_rating","","[0]"
"","","","","","survey-likert","193","999727","0.0-155.0","356161C898E34DD7B304A3F33649C63F","0199d606-0c38-764e-bba7-49d0f395cf1a","0199d5ef-c7d4-7cab-a194-b2c3afbaf8e8","","2022","","{""Q0"":1}","3","2","enjoyment_rating","","[0]"
"","","","","","html-keyboard-response","194","1005730","0.0-156.0","356161C898E34DD7B304A3F33649C63F","0199d606-0c38-764e-bba7-49d0f395cf1a","0199d5ef-c7d4-7cab-a194-b2c3afbaf8e8","","null","<div style=""display: flex; justify-content: center; align-items: center;"">
                     <img src=""images/other/blank.png"" style=""width: 300px; height: 300px;"" />
                   </div>","null","0","0","blank","",""
"","","","","","html-keyboard-response","195","1011733","0.0-157.0","356161C898E34DD7B304A3F33649C63F","0199d606-0c38-764e-bba7-49d0f395cf1a","0199d5ef-c7d4-7cab-a194-b2c3afbaf8e8","","null","<div style=""display: flex; justify-content: center; align-items: center;"">
                     <img src=""images/causal/causal_series_2/causal_series_2_a.png"" style=""width: 300px; height: 300px;"" />
                   </div>","null","2","1","A","",""
"","","","","","html-keyboard-response","196","1017737","0.0-158.0","356161C898E34DD7B304A3F33649C63F","0199d606-0c38-764e-bba7-49d0f395cf1a","0199d5ef-c7d4-7cab-a194-b2c3afbaf8e8","","null","<div style=""display: flex; justify-content: center; align-items: center;"">
                     <img src=""images/causal/causal_series_2/causal_series_2_b.png"" style=""width: 300px; height: 300px;"" />
                   </div>","null","2","1","B","",""
"","","","","","html-keyboard-response","197","1023739","0.0-159.0","356161C898E34DD7B304A3F33649C63F","0199d606-0c38-764e-bba7-49d0f395cf1a","0199d5ef-c7d4-7cab-a194-b2c3afbaf8e8","","null","<div style=""display: flex; justify-content: center; align-items: center;"">
                     <img src=""images/causal/causal_series_2/causal_series_2_c.png"" style=""width: 300px; height: 300px;"" />
                   </div>","null","2","1","C","",""
"","","","","","html-button-response","198","1025647","0.0-160.0","356161C898E34DD7B304A3F33649C63F","0199d606-0c38-764e-bba7-49d0f395cf1a","0199d5ef-c7d4-7cab-a194-b2c3afbaf8e8","","1907","
        <div style=""display: flex; justify-content: center; align-items: center;"">
          <img src=""images/red_deck_2.png"" style=""width: 300px; height: 300px; margin-right: 10px;"" />
          <img src=""images/blue_deck_1.png"" style=""width: 300px; height: 300px;"" />
        </div>","1","2","1","choice","1",""
"","","","","","html-keyboard-response","199","1031650","0.0-161.0-1.0-0.0","356161C898E34DD7B304A3F33649C63F","0199d606-0c38-764e-bba7-49d0f395cf1a","0199d5ef-c7d4-7cab-a194-b2c3afbaf8e8","","null","<div style=""display: flex; justify-content: center; align-items: center;"">
                     <img src=""images/semantic/semantic_series_2/semantic_series_2_d.png"" style=""width: 300px; height: 300px;"" />
                   </div>","null","2","1","D","",""
"","","","","","html-keyboard-response","200","1037652","0.0-161.0-1.0-1.0","356161C898E34DD7B304A3F33649C63F","0199d606-0c38-764e-bba7-49d0f395cf1a","0199d5ef-c7d4-7cab-a194-b2c3afbaf8e8","","null","<div style=""display: flex; justify-content: center; align-items: center;"">
                     <img src=""images/semantic/semantic_series_2/semantic_series_2_e.png"" style=""width: 300px; height: 300px;"" />
                   </div>","null","2","1","E","",""
"","","","","","html-keyboard-response","201","1043655","0.0-161.0-1.0-2.0","356161C898E34DD7B304A3F33649C63F","0199d606-0c38-764e-bba7-49d0f395cf1a","0199d5ef-c7d4-7cab-a194-b2c3afbaf8e8","","null","<div style=""display: flex; justify-content: center; align-items: center;"">
                     <img src=""images/semantic/semantic_series_2/semantic_series_2_f.png"" style=""width: 300px; height: 300px;"" />
                   </div>","null","2","1","F","",""
"","","","","","survey-likert","202","1047307","0.0-162.0","356161C898E34DD7B304A3F33649C63F","0199d606-0c38-764e-bba7-49d0f395cf1a","0199d5ef-c7d4-7cab-a194-b2c3afbaf8e8","","3650","","{""Q0"":2}","2","1","surprise_rating","","[0]"
"","","","","","survey-likert","203","1048765","0.0-163.0","356161C898E34DD7B304A3F33649C63F","0199d606-0c38-764e-bba7-49d0f395cf1a","0199d5ef-c7d4-7cab-a194-b2c3afbaf8e8","","1458","","{""Q0"":2}","2","1","enjoyment_rating","","[0]"
"","","","","","html-keyboard-response","204","1054767","0.0-164.0","356161C898E34DD7B304A3F33649C63F","0199d606-0c38-764e-bba7-49d0f395cf1a","0199d5ef-c7d4-7cab-a194-b2c3afbaf8e8","","null","<div style=""display: flex; justify-content: center; align-items: center;"">
                     <img src=""images/other/blank.png"" style=""width: 300px; height: 300px;"" />
                   </div>","null","0","0","blank","",""
"","","","","","survey-text","205","1080608","0.0-165.0","356161C898E34DD7B304A3F33649C63F","0199d606-0c38-764e-bba7-49d0f395cf1a","0199d5ef-c7d4-7cab-a194-b2c3afbaf8e8","","25835","","{""Q0"":""the red set had surprising stories, the blue didnt""}","","","","",""
"","","","","","html-button-response","206","1087337","0.0-166.0","356161C898E34DD7B304A3F33649C63F","0199d606-0c38-764e-bba7-49d0f395cf1a","0199d5ef-c7d4-7cab-a194-b2c3afbaf8e8","","6729","Which color deck do the following sentences continue the story from?","1","","","","",""
"","","","","","html-button-response","207","1090061","0.0-167.0","356161C898E34DD7B304A3F33649C63F","0199d606-0c38-764e-bba7-49d0f395cf1a","0199d5ef-c7d4-7cab-a194-b2c3afbaf8e8","","2723","Which color deck do the following sentences NOT follow the story from?","0","","","","",""
"","","","","","html-button-response","208","1098368","0.0-168.0","356161C898E34DD7B304A3F33649C63F","0199d606-0c38-764e-bba7-49d0f395cf1a","0199d5ef-c7d4-7cab-a194-b2c3afbaf8e8","","8307","Which type of deck did you prefer overall?","0","","","","",""
"","","","","","survey-text","209","1107820","0.0-169.0","356161C898E34DD7B304A3F33649C63F","0199d606-0c38-764e-bba7-49d0f395cf1a","0199d5ef-c7d4-7cab-a194-b2c3afbaf8e8","","9450","","{""Q0"":""female"",""Q1"":""31""}","","","","",""
"","","","","","instructions","210","1112085","0.0-170.0","356161C898E34DD7B304A3F33649C63F","0199d606-0c38-764e-bba7-49d0f395cf1a","0199d5ef-c7d4-7cab-a194-b2c3afbaf8e8","[{""page_index"":0,""viewing_time"":4264}]","4264","","","","","","",""
