"success","timeout","failed_images","failed_audio","failed_video","trial_type","trial_index","time_elapsed","internal_node_id","subject_id","study_id","session_id","view_history","rt","stimulus","response","series","repetition","phase","choice","question_order"
"true","false","[]","[]","[]","preload","0","176","0.0-0.0","83F1B97779554A1EB25E863198ECCECD","0199db68-5cf9-76a5-92ab-0db9b3e443fb","0199db60-0c70-7be3-948d-e21afdfd0731","","","","","","","","",""
"","","","","","instructions","1","1922","0.0-1.0","83F1B97779554A1EB25E863198ECCECD","0199db68-5cf9-76a5-92ab-0db9b3e443fb","0199db60-0c70-7be3-948d-e21afdfd0731","[{""page_index"":0,""viewing_time"":1746}]","1746","","","","","","",""
"","","","","","instructions","2","4104","0.0-2.0","83F1B97779554A1EB25E863198ECCECD","0199db68-5cf9-76a5-92ab-0db9b3e443fb","0199db60-0c70-7be3-948d-e21afdfd0731","[{""page_index"":0,""viewing_time"":2181}]","2181","","","","","","",""
"true","","","","","fullscreen","3","6322","0.0-3.0","83F1B97779554A1EB25E863198ECCECD","0199db68-5cf9-76a5-92ab-0db9b3e443fb","0199db60-0c70-7be3-948d-e21afdfd0731","","1215","","","","","","",""
"","","","","","instructions","4","14438","0.0-4.0","83F1B97779554A1EB25E863198ECCECD","0199db68-5cf9-76a5-92ab-0db9b3e443fb","0199db60-0c70-7be3-948d-e21afdfd0731","[{""page_index"":0,""viewing_time"":8115}]","8116","","","","","","",""
"","","","","","html-keyboard-response","5","20441","0.0-5.0","83F1B97779554A1EB25E863198ECCECD","0199db68-5cf9-76a5-92ab-0db9b3e443fb","0199db60-0c70-7be3-948d-e21afdfd0731","","null","<div style=""display: flex; justify-content: center; align-items: center;"">
                     <img src=""images/causal/causal_series_5/causal_series_5_a.png"" style=""width: 300px; height: 300px;"" />
                   </div>","null","5","1","A","",""
"","","","","","html-keyboard-response","6","26444","0.0-6.0","83F1B97779554A1EB25E863198ECCECD","0199db68-5cf9-76a5-92ab-0db9b3e443fb","0199db60-0c70-7be3-948d-e21afdfd0731","","null","<div style=""display: flex; justify-content: center; align-items: center;"">
                     <img src=""images/causal/causal_series_5/causal_series_5_b.png"" style=""width: 300px; height: 300px;"" />
                   </div>","null","5","1","B","",""
"","","","","","html-keyboard-response","7","32447","0.0-7.0","83F1B97779554A1EB25E863198ECCECD","0199db68-5cf9-76a5-92ab-0db9b3e443fb","0199db60-0c70-7be3-948d-e21afdfd0731","","null","<div style=""display: flex; justify-content: center; align-items: center;"">
                     <img src=""images/causal/causal_series_5/causal_series_5_c.png"" style=""width: 300px; height: 300px;"" />
                   </div>","null","5","1","C","",""
"","","","","","html-button-response","8","36772","0.0-8.0","83F1B97779554A1EB25E863198ECCECD","0199db68-5cf9-76a5-92ab-0db9b3e443fb","0199db60-0c70-7be3-948d-e21afdfd0731","","4323","
        <div style=""display: flex; justify-content: center; align-items: center;"">
          <img src=""images/red_deck_2.png"" style=""width: 300px; height: 300px; margin-right: 10px;"" />
          <img src=""images/blue_deck_1.png"" style=""width: 300px; height: 300px;"" />
        </div>","1","5","1","choice","1",""
"","","","","","html-keyboard-response","9","42775","0.0-9.0-1.0-0.0","83F1B97779554A1EB25E863198ECCECD","0199db68-5cf9-76a5-92ab-0db9b3e443fb","0199db60-0c70-7be3-948d-e21afdfd0731","","null","<div style=""display: flex; justify-content: center; align-items: center;"">
                     <img src=""images/semantic/semantic_series_5/semantic_series_5_d.png"" style=""width: 300px; height: 300px;"" />
                   </div>","null","5","1","D","",""
"","","","","","survey-likert","10","47673","0.0-10.0","83F1B97779554A1EB25E863198ECCECD","0199db68-5cf9-76a5-92ab-0db9b3e443fb","0199db60-0c70-7be3-948d-e21afdfd0731","","4896","","{""Q0"":2}","5","1","surprise_rating","","[0]"
"","","","","","survey-likert","11","50138","0.0-11.0","83F1B97779554A1EB25E863198ECCECD","0199db68-5cf9-76a5-92ab-0db9b3e443fb","0199db60-0c70-7be3-948d-e21afdfd0731","","2463","","{""Q0"":3}","5","1","enjoyment_rating","","[0]"
"","","","","","html-keyboard-response","12","56140","0.0-12.0","83F1B97779554A1EB25E863198ECCECD","0199db68-5cf9-76a5-92ab-0db9b3e443fb","0199db60-0c70-7be3-948d-e21afdfd0731","","null","<div style=""display: flex; justify-content: center; align-items: center;"">
                     <img src=""images/other/blank.png"" style=""width: 300px; height: 300px;"" />
                   </div>","null","0","0","blank","",""
"","","","","","html-keyboard-response","13","62142","0.0-13.0","83F1B97779554A1EB25E863198ECCECD","0199db68-5cf9-76a5-92ab-0db9b3e443fb","0199db60-0c70-7be3-948d-e21afdfd0731","","null","<div style=""display: flex; justify-content: center; align-items: center;"">
                     <img src=""images/causal/causal_series_7/causal_series_7_a.png"" style=""width: 300px; height: 300px;"" />
                   </div>","null","7","1","A","",""
"","","","","","html-keyboard-response","14","68145","0.0-14.0","83F1B97779554A1EB25E863198ECCECD","0199db68-5cf9-76a5-92ab-0db9b3e443fb","0199db60-0c70-7be3-948d-e21afdfd0731","","null","<div style=""display: flex; justify-content: center; align-items: center;"">
                     <img src=""images/causal/causal_series_7/causal_series_7_b.png"" style=""width: 300px; height: 300px;"" />
                   </div>","null","7","1","B","",""
"","","","","","html-keyboard-response","15","74147","0.0-15.0","83F1B97779554A1EB25E863198ECCECD","0199db68-5cf9-76a5-92ab-0db9b3e443fb","0199db60-0c70-7be3-948d-e21afdfd0731","","null","<div style=""display: flex; justify-content: center; align-items: center;"">
                     <img src=""images/causal/causal_series_7/causal_series_7_c.png"" style=""width: 300px; height: 300px;"" />
                   </div>","null","7","1","C","",""
"","","","","","html-button-response","16","77771","0.0-16.0","83F1B97779554A1EB25E863198ECCECD","0199db68-5cf9-76a5-92ab-0db9b3e443fb","0199db60-0c70-7be3-948d-e21afdfd0731","","3623","
        <div style=""display: flex; justify-content: center; align-items: center;"">
          <img src=""images/red_deck_2.png"" style=""width: 300px; height: 300px; margin-right: 10px;"" />
          <img src=""images/blue_deck_1.png"" style=""width: 300px; height: 300px;"" />
        </div>","0","7","1","choice","0",""
"","","","","","html-keyboard-response","17","83774","0.0-17.0-0.0-0.0","83F1B97779554A1EB25E863198ECCECD","0199db68-5cf9-76a5-92ab-0db9b3e443fb","0199db60-0c70-7be3-948d-e21afdfd0731","","null","<div style=""display: flex; justify-content: center; align-items: center;"">
                     <img src=""images/causal/causal_series_7/causal_series_7_d.png"" style=""width: 300px; height: 300px;"" />
                   </div>","null","7","1","D","",""
"","","","","","survey-likert","18","87872","0.0-18.0","83F1B97779554A1EB25E863198ECCECD","0199db68-5cf9-76a5-92ab-0db9b3e443fb","0199db60-0c70-7be3-948d-e21afdfd0731","","4097","","{""Q0"":4}","7","1","surprise_rating","","[0]"
"","","","","","survey-likert","19","89905","0.0-19.0","83F1B97779554A1EB25E863198ECCECD","0199db68-5cf9-76a5-92ab-0db9b3e443fb","0199db60-0c70-7be3-948d-e21afdfd0731","","2032","","{""Q0"":2}","7","1","enjoyment_rating","","[0]"
"","","","","","html-keyboard-response","20","95907","0.0-20.0","83F1B97779554A1EB25E863198ECCECD","0199db68-5cf9-76a5-92ab-0db9b3e443fb","0199db60-0c70-7be3-948d-e21afdfd0731","","null","<div style=""display: flex; justify-content: center; align-items: center;"">
                     <img src=""images/other/blank.png"" style=""width: 300px; height: 300px;"" />
                   </div>","null","0","0","blank","",""
"","","","","","html-keyboard-response","21","101910","0.0-21.0","83F1B97779554A1EB25E863198ECCECD","0199db68-5cf9-76a5-92ab-0db9b3e443fb","0199db60-0c70-7be3-948d-e21afdfd0731","","null","<div style=""display: flex; justify-content: center; align-items: center;"">
                     <img src=""images/causal/causal_series_10/causal_series_10_a.png"" style=""width: 300px; height: 300px;"" />
                   </div>","null","10","1","A","",""
"","","","","","html-keyboard-response","22","107913","0.0-22.0","83F1B97779554A1EB25E863198ECCECD","0199db68-5cf9-76a5-92ab-0db9b3e443fb","0199db60-0c70-7be3-948d-e21afdfd0731","","null","<div style=""display: flex; justify-content: center; align-items: center;"">
                     <img src=""images/causal/causal_series_10/causal_series_10_b.png"" style=""width: 300px; height: 300px;"" />
                   </div>","null","10","1","B","",""
"","","","","","html-keyboard-response","23","113916","0.0-23.0","83F1B97779554A1EB25E863198ECCECD","0199db68-5cf9-76a5-92ab-0db9b3e443fb","0199db60-0c70-7be3-948d-e21afdfd0731","","null","<div style=""display: flex; justify-content: center; align-items: center;"">
                     <img src=""images/causal/causal_series_10/causal_series_10_c.png"" style=""width: 300px; height: 300px;"" />
                   </div>","null","10","1","C","",""
"","","","","","html-button-response","24","114754","0.0-24.0","83F1B97779554A1EB25E863198ECCECD","0199db68-5cf9-76a5-92ab-0db9b3e443fb","0199db60-0c70-7be3-948d-e21afdfd0731","","837","
        <div style=""display: flex; justify-content: center; align-items: center;"">
          <img src=""images/red_deck_2.png"" style=""width: 300px; height: 300px; margin-right: 10px;"" />
          <img src=""images/blue_deck_1.png"" style=""width: 300px; height: 300px;"" />
        </div>","1","10","1","choice","1",""
"","","","","","html-keyboard-response","25","120757","0.0-25.0-1.0-0.0","83F1B97779554A1EB25E863198ECCECD","0199db68-5cf9-76a5-92ab-0db9b3e443fb","0199db60-0c70-7be3-948d-e21afdfd0731","","null","<div style=""display: flex; justify-content: center; align-items: center;"">
                     <img src=""images/semantic/semantic_series_10/semantic_series_10_d.png"" style=""width: 300px; height: 300px;"" />
                   </div>","null","10","1","D","",""
"","","","","","survey-likert","26","125488","0.0-26.0","83F1B97779554A1EB25E863198ECCECD","0199db68-5cf9-76a5-92ab-0db9b3e443fb","0199db60-0c70-7be3-948d-e21afdfd0731","","4730","","{""Q0"":4}","10","1","surprise_rating","","[0]"
"","","","","","survey-likert","27","128405","0.0-27.0","83F1B97779554A1EB25E863198ECCECD","0199db68-5cf9-76a5-92ab-0db9b3e443fb","0199db60-0c70-7be3-948d-e21afdfd0731","","2915","","{""Q0"":3}","10","1","enjoyment_rating","","[0]"
"","","","","","html-keyboard-response","28","134408","0.0-28.0","83F1B97779554A1EB25E863198ECCECD","0199db68-5cf9-76a5-92ab-0db9b3e443fb","0199db60-0c70-7be3-948d-e21afdfd0731","","null","<div style=""display: flex; justify-content: center; align-items: center;"">
                     <img src=""images/other/blank.png"" style=""width: 300px; height: 300px;"" />
                   </div>","null","0","0","blank","",""
"","","","","","html-keyboard-response","29","140410","0.0-29.0","83F1B97779554A1EB25E863198ECCECD","0199db68-5cf9-76a5-92ab-0db9b3e443fb","0199db60-0c70-7be3-948d-e21afdfd0731","","null","<div style=""display: flex; justify-content: center; align-items: center;"">
                     <img src=""images/causal/causal_series_6/causal_series_6_a.png"" style=""width: 300px; height: 300px;"" />
                   </div>","null","6","1","A","",""
"","","","","","html-keyboard-response","30","146413","0.0-30.0","83F1B97779554A1EB25E863198ECCECD","0199db68-5cf9-76a5-92ab-0db9b3e443fb","0199db60-0c70-7be3-948d-e21afdfd0731","","null","<div style=""display: flex; justify-content: center; align-items: center;"">
                     <img src=""images/causal/causal_series_6/causal_series_6_b.png"" style=""width: 300px; height: 300px;"" />
                   </div>","null","6","1","B","",""
"","","","","","html-keyboard-response","31","152416","0.0-31.0","83F1B97779554A1EB25E863198ECCECD","0199db68-5cf9-76a5-92ab-0db9b3e443fb","0199db60-0c70-7be3-948d-e21afdfd0731","","null","<div style=""display: flex; justify-content: center; align-items: center;"">
                     <img src=""images/causal/causal_series_6/causal_series_6_c.png"" style=""width: 300px; height: 300px;"" />
                   </div>","null","6","1","C","",""
"","","","","","html-button-response","32","155704","0.0-32.0","83F1B97779554A1EB25E863198ECCECD","0199db68-5cf9-76a5-92ab-0db9b3e443fb","0199db60-0c70-7be3-948d-e21afdfd0731","","3287","
        <div style=""display: flex; justify-content: center; align-items: center;"">
          <img src=""images/red_deck_2.png"" style=""width: 300px; height: 300px; margin-right: 10px;"" />
          <img src=""images/blue_deck_1.png"" style=""width: 300px; height: 300px;"" />
        </div>","1","6","1","choice","1",""
"","","","","","html-keyboard-response","33","161706","0.0-33.0-1.0-0.0","83F1B97779554A1EB25E863198ECCECD","0199db68-5cf9-76a5-92ab-0db9b3e443fb","0199db60-0c70-7be3-948d-e21afdfd0731","","null","<div style=""display: flex; justify-content: center; align-items: center;"">
                     <img src=""images/semantic/semantic_series_6/semantic_series_6_d.png"" style=""width: 300px; height: 300px;"" />
                   </div>","null","6","1","D","",""
"","","","","","survey-likert","34","172539","0.0-34.0","83F1B97779554A1EB25E863198ECCECD","0199db68-5cf9-76a5-92ab-0db9b3e443fb","0199db60-0c70-7be3-948d-e21afdfd0731","","10831","","{""Q0"":1}","6","1","surprise_rating","","[0]"
"","","","","","survey-likert","35","173955","0.0-35.0","83F1B97779554A1EB25E863198ECCECD","0199db68-5cf9-76a5-92ab-0db9b3e443fb","0199db60-0c70-7be3-948d-e21afdfd0731","","1415","","{""Q0"":0}","6","1","enjoyment_rating","","[0]"
"","","","","","html-keyboard-response","36","179957","0.0-36.0","83F1B97779554A1EB25E863198ECCECD","0199db68-5cf9-76a5-92ab-0db9b3e443fb","0199db60-0c70-7be3-948d-e21afdfd0731","","null","<div style=""display: flex; justify-content: center; align-items: center;"">
                     <img src=""images/other/blank.png"" style=""width: 300px; height: 300px;"" />
                   </div>","null","0","0","blank","",""
"","","","","","html-keyboard-response","37","185959","0.0-37.0","83F1B97779554A1EB25E863198ECCECD","0199db68-5cf9-76a5-92ab-0db9b3e443fb","0199db60-0c70-7be3-948d-e21afdfd0731","","null","<div style=""display: flex; justify-content: center; align-items: center;"">
                     <img src=""images/causal/causal_series_3/causal_series_3_a.png"" style=""width: 300px; height: 300px;"" />
                   </div>","null","3","1","A","",""
"","","","","","html-keyboard-response","38","191962","0.0-38.0","83F1B97779554A1EB25E863198ECCECD","0199db68-5cf9-76a5-92ab-0db9b3e443fb","0199db60-0c70-7be3-948d-e21afdfd0731","","null","<div style=""display: flex; justify-content: center; align-items: center;"">
                     <img src=""images/causal/causal_series_3/causal_series_3_b.png"" style=""width: 300px; height: 300px;"" />
                   </div>","null","3","1","B","",""
"","","","","","html-keyboard-response","39","197964","0.0-39.0","83F1B97779554A1EB25E863198ECCECD","0199db68-5cf9-76a5-92ab-0db9b3e443fb","0199db60-0c70-7be3-948d-e21afdfd0731","","null","<div style=""display: flex; justify-content: center; align-items: center;"">
                     <img src=""images/causal/causal_series_3/causal_series_3_c.png"" style=""width: 300px; height: 300px;"" />
                   </div>","null","3","1","C","",""
"","","","","","html-button-response","40","198954","0.0-40.0","83F1B97779554A1EB25E863198ECCECD","0199db68-5cf9-76a5-92ab-0db9b3e443fb","0199db60-0c70-7be3-948d-e21afdfd0731","","989","
        <div style=""display: flex; justify-content: center; align-items: center;"">
          <img src=""images/red_deck_2.png"" style=""width: 300px; height: 300px; margin-right: 10px;"" />
          <img src=""images/blue_deck_1.png"" style=""width: 300px; height: 300px;"" />
        </div>","1","3","1","choice","1",""
"","","","","","html-keyboard-response","41","204956","0.0-41.0-1.0-0.0","83F1B97779554A1EB25E863198ECCECD","0199db68-5cf9-76a5-92ab-0db9b3e443fb","0199db60-0c70-7be3-948d-e21afdfd0731","","null","<div style=""display: flex; justify-content: center; align-items: center;"">
                     <img src=""images/semantic/semantic_series_3/semantic_series_3_d.png"" style=""width: 300px; height: 300px;"" />
                   </div>","null","3","1","D","",""
"","","","","","survey-likert","42","209255","0.0-42.0","83F1B97779554A1EB25E863198ECCECD","0199db68-5cf9-76a5-92ab-0db9b3e443fb","0199db60-0c70-7be3-948d-e21afdfd0731","","4298","","{""Q0"":2}","3","1","surprise_rating","","[0]"
"","","","","","survey-likert","43","211071","0.0-43.0","83F1B97779554A1EB25E863198ECCECD","0199db68-5cf9-76a5-92ab-0db9b3e443fb","0199db60-0c70-7be3-948d-e21afdfd0731","","1815","","{""Q0"":3}","3","1","enjoyment_rating","","[0]"
"","","","","","html-keyboard-response","44","217073","0.0-44.0","83F1B97779554A1EB25E863198ECCECD","0199db68-5cf9-76a5-92ab-0db9b3e443fb","0199db60-0c70-7be3-948d-e21afdfd0731","","null","<div style=""display: flex; justify-content: center; align-items: center;"">
                     <img src=""images/other/blank.png"" style=""width: 300px; height: 300px;"" />
                   </div>","null","0","0","blank","",""
"","","","","","html-keyboard-response","45","223076","0.0-45.0","83F1B97779554A1EB25E863198ECCECD","0199db68-5cf9-76a5-92ab-0db9b3e443fb","0199db60-0c70-7be3-948d-e21afdfd0731","","null","<div style=""display: flex; justify-content: center; align-items: center;"">
                     <img src=""images/causal/causal_series_8/causal_series_8_a.png"" style=""width: 300px; height: 300px;"" />
                   </div>","null","8","1","A","",""
"","","","","","html-keyboard-response","46","229079","0.0-46.0","83F1B97779554A1EB25E863198ECCECD","0199db68-5cf9-76a5-92ab-0db9b3e443fb","0199db60-0c70-7be3-948d-e21afdfd0731","","null","<div style=""display: flex; justify-content: center; align-items: center;"">
                     <img src=""images/causal/causal_series_8/causal_series_8_b.png"" style=""width: 300px; height: 300px;"" />
                   </div>","null","8","1","B","",""
"","","","","","html-keyboard-response","47","235081","0.0-47.0","83F1B97779554A1EB25E863198ECCECD","0199db68-5cf9-76a5-92ab-0db9b3e443fb","0199db60-0c70-7be3-948d-e21afdfd0731","","null","<div style=""display: flex; justify-content: center; align-items: center;"">
                     <img src=""images/causal/causal_series_8/causal_series_8_c.png"" style=""width: 300px; height: 300px;"" />
                   </div>","null","8","1","C","",""
"","","","","","html-button-response","48","241122","0.0-48.0","83F1B97779554A1EB25E863198ECCECD","0199db68-5cf9-76a5-92ab-0db9b3e443fb","0199db60-0c70-7be3-948d-e21afdfd0731","","6039","
        <div style=""display: flex; justify-content: center; align-items: center;"">
          <img src=""images/red_deck_2.png"" style=""width: 300px; height: 300px; margin-right: 10px;"" />
          <img src=""images/blue_deck_1.png"" style=""width: 300px; height: 300px;"" />
        </div>","1","8","1","choice","1",""
"","","","","","html-keyboard-response","49","247124","0.0-49.0-1.0-0.0","83F1B97779554A1EB25E863198ECCECD","0199db68-5cf9-76a5-92ab-0db9b3e443fb","0199db60-0c70-7be3-948d-e21afdfd0731","","null","<div style=""display: flex; justify-content: center; align-items: center;"">
                     <img src=""images/semantic/semantic_series_8/semantic_series_8_d.png"" style=""width: 300px; height: 300px;"" />
                   </div>","null","8","1","D","",""
"","","","","","survey-likert","50","250022","0.0-50.0","83F1B97779554A1EB25E863198ECCECD","0199db68-5cf9-76a5-92ab-0db9b3e443fb","0199db60-0c70-7be3-948d-e21afdfd0731","","2897","","{""Q0"":2}","8","1","surprise_rating","","[0]"
"","","","","","survey-likert","51","251521","0.0-51.0","83F1B97779554A1EB25E863198ECCECD","0199db68-5cf9-76a5-92ab-0db9b3e443fb","0199db60-0c70-7be3-948d-e21afdfd0731","","1498","","{""Q0"":4}","8","1","enjoyment_rating","","[0]"
"","","","","","html-keyboard-response","52","257524","0.0-52.0","83F1B97779554A1EB25E863198ECCECD","0199db68-5cf9-76a5-92ab-0db9b3e443fb","0199db60-0c70-7be3-948d-e21afdfd0731","","null","<div style=""display: flex; justify-content: center; align-items: center;"">
                     <img src=""images/other/blank.png"" style=""width: 300px; height: 300px;"" />
                   </div>","null","0","0","blank","",""
"","","","","","html-keyboard-response","53","263527","0.0-53.0","83F1B97779554A1EB25E863198ECCECD","0199db68-5cf9-76a5-92ab-0db9b3e443fb","0199db60-0c70-7be3-948d-e21afdfd0731","","null","<div style=""display: flex; justify-content: center; align-items: center;"">
                     <img src=""images/causal/causal_series_2/causal_series_2_a.png"" style=""width: 300px; height: 300px;"" />
                   </div>","null","2","1","A","",""
"","","","","","html-keyboard-response","54","269529","0.0-54.0","83F1B97779554A1EB25E863198ECCECD","0199db68-5cf9-76a5-92ab-0db9b3e443fb","0199db60-0c70-7be3-948d-e21afdfd0731","","null","<div style=""display: flex; justify-content: center; align-items: center;"">
                     <img src=""images/causal/causal_series_2/causal_series_2_b.png"" style=""width: 300px; height: 300px;"" />
                   </div>","null","2","1","B","",""
"","","","","","html-keyboard-response","55","275531","0.0-55.0","83F1B97779554A1EB25E863198ECCECD","0199db68-5cf9-76a5-92ab-0db9b3e443fb","0199db60-0c70-7be3-948d-e21afdfd0731","","null","<div style=""display: flex; justify-content: center; align-items: center;"">
                     <img src=""images/causal/causal_series_2/causal_series_2_c.png"" style=""width: 300px; height: 300px;"" />
                   </div>","null","2","1","C","",""
"","","","","","html-button-response","56","279404","0.0-56.0","83F1B97779554A1EB25E863198ECCECD","0199db68-5cf9-76a5-92ab-0db9b3e443fb","0199db60-0c70-7be3-948d-e21afdfd0731","","3872","
        <div style=""display: flex; justify-content: center; align-items: center;"">
          <img src=""images/red_deck_2.png"" style=""width: 300px; height: 300px; margin-right: 10px;"" />
          <img src=""images/blue_deck_1.png"" style=""width: 300px; height: 300px;"" />
        </div>","1","2","1","choice","1",""
"","","","","","html-keyboard-response","57","285407","0.0-57.0-1.0-0.0","83F1B97779554A1EB25E863198ECCECD","0199db68-5cf9-76a5-92ab-0db9b3e443fb","0199db60-0c70-7be3-948d-e21afdfd0731","","null","<div style=""display: flex; justify-content: center; align-items: center;"">
                     <img src=""images/semantic/semantic_series_2/semantic_series_2_d.png"" style=""width: 300px; height: 300px;"" />
                   </div>","null","2","1","D","",""
"","","","","","survey-likert","58","290122","0.0-58.0","83F1B97779554A1EB25E863198ECCECD","0199db68-5cf9-76a5-92ab-0db9b3e443fb","0199db60-0c70-7be3-948d-e21afdfd0731","","4713","","{""Q0"":2}","2","1","surprise_rating","","[0]"
"","","","","","survey-likert","59","291471","0.0-59.0","83F1B97779554A1EB25E863198ECCECD","0199db68-5cf9-76a5-92ab-0db9b3e443fb","0199db60-0c70-7be3-948d-e21afdfd0731","","1348","","{""Q0"":4}","2","1","enjoyment_rating","","[0]"
"","","","","","html-keyboard-response","60","297472","0.0-60.0","83F1B97779554A1EB25E863198ECCECD","0199db68-5cf9-76a5-92ab-0db9b3e443fb","0199db60-0c70-7be3-948d-e21afdfd0731","","null","<div style=""display: flex; justify-content: center; align-items: center;"">
                     <img src=""images/other/blank.png"" style=""width: 300px; height: 300px;"" />
                   </div>","null","0","0","blank","",""
"","","","","","html-keyboard-response","61","303475","0.0-61.0","83F1B97779554A1EB25E863198ECCECD","0199db68-5cf9-76a5-92ab-0db9b3e443fb","0199db60-0c70-7be3-948d-e21afdfd0731","","null","<div style=""display: flex; justify-content: center; align-items: center;"">
                     <img src=""images/causal/causal_series_4/causal_series_4_a.png"" style=""width: 300px; height: 300px;"" />
                   </div>","null","4","1","A","",""
"","","","","","html-keyboard-response","62","309477","0.0-62.0","83F1B97779554A1EB25E863198ECCECD","0199db68-5cf9-76a5-92ab-0db9b3e443fb","0199db60-0c70-7be3-948d-e21afdfd0731","","null","<div style=""display: flex; justify-content: center; align-items: center;"">
                     <img src=""images/causal/causal_series_4/causal_series_4_b.png"" style=""width: 300px; height: 300px;"" />
                   </div>","null","4","1","B","",""
"","","","","","html-keyboard-response","63","315479","0.0-63.0","83F1B97779554A1EB25E863198ECCECD","0199db68-5cf9-76a5-92ab-0db9b3e443fb","0199db60-0c70-7be3-948d-e21afdfd0731","","null","<div style=""display: flex; justify-content: center; align-items: center;"">
                     <img src=""images/causal/causal_series_4/causal_series_4_c.png"" style=""width: 300px; height: 300px;"" />
                   </div>","null","4","1","C","",""
"","","","","","html-button-response","64","316921","0.0-64.0","83F1B97779554A1EB25E863198ECCECD","0199db68-5cf9-76a5-92ab-0db9b3e443fb","0199db60-0c70-7be3-948d-e21afdfd0731","","1441","
        <div style=""display: flex; justify-content: center; align-items: center;"">
          <img src=""images/red_deck_2.png"" style=""width: 300px; height: 300px; margin-right: 10px;"" />
          <img src=""images/blue_deck_1.png"" style=""width: 300px; height: 300px;"" />
        </div>","1","4","1","choice","1",""
"","","","","","html-keyboard-response","65","322923","0.0-65.0-1.0-0.0","83F1B97779554A1EB25E863198ECCECD","0199db68-5cf9-76a5-92ab-0db9b3e443fb","0199db60-0c70-7be3-948d-e21afdfd0731","","null","<div style=""display: flex; justify-content: center; align-items: center;"">
                     <img src=""images/semantic/semantic_series_4/semantic_series_4_d.png"" style=""width: 300px; height: 300px;"" />
                   </div>","null","4","1","D","",""
"","","","","","survey-likert","66","325088","0.0-66.0","83F1B97779554A1EB25E863198ECCECD","0199db68-5cf9-76a5-92ab-0db9b3e443fb","0199db60-0c70-7be3-948d-e21afdfd0731","","2164","","{""Q0"":2}","4","1","surprise_rating","","[0]"
"","","","","","survey-likert","67","326338","0.0-67.0","83F1B97779554A1EB25E863198ECCECD","0199db68-5cf9-76a5-92ab-0db9b3e443fb","0199db60-0c70-7be3-948d-e21afdfd0731","","1248","","{""Q0"":4}","4","1","enjoyment_rating","","[0]"
"","","","","","html-keyboard-response","68","332341","0.0-68.0","83F1B97779554A1EB25E863198ECCECD","0199db68-5cf9-76a5-92ab-0db9b3e443fb","0199db60-0c70-7be3-948d-e21afdfd0731","","null","<div style=""display: flex; justify-content: center; align-items: center;"">
                     <img src=""images/other/blank.png"" style=""width: 300px; height: 300px;"" />
                   </div>","null","0","0","blank","",""
"","","","","","html-keyboard-response","69","338343","0.0-69.0","83F1B97779554A1EB25E863198ECCECD","0199db68-5cf9-76a5-92ab-0db9b3e443fb","0199db60-0c70-7be3-948d-e21afdfd0731","","null","<div style=""display: flex; justify-content: center; align-items: center;"">
                     <img src=""images/causal/causal_series_1/causal_series_1_a.png"" style=""width: 300px; height: 300px;"" />
                   </div>","null","1","1","A","",""
"","","","","","html-keyboard-response","70","344345","0.0-70.0","83F1B97779554A1EB25E863198ECCECD","0199db68-5cf9-76a5-92ab-0db9b3e443fb","0199db60-0c70-7be3-948d-e21afdfd0731","","null","<div style=""display: flex; justify-content: center; align-items: center;"">
                     <img src=""images/causal/causal_series_1/causal_series_1_b.png"" style=""width: 300px; height: 300px;"" />
                   </div>","null","1","1","B","",""
"","","","","","html-keyboard-response","71","350347","0.0-71.0","83F1B97779554A1EB25E863198ECCECD","0199db68-5cf9-76a5-92ab-0db9b3e443fb","0199db60-0c70-7be3-948d-e21afdfd0731","","null","<div style=""display: flex; justify-content: center; align-items: center;"">
                     <img src=""images/causal/causal_series_1/causal_series_1_c.png"" style=""width: 300px; height: 300px;"" />
                   </div>","null","1","1","C","",""
"","","","","","html-button-response","72","352704","0.0-72.0","83F1B97779554A1EB25E863198ECCECD","0199db68-5cf9-76a5-92ab-0db9b3e443fb","0199db60-0c70-7be3-948d-e21afdfd0731","","2356","
        <div style=""display: flex; justify-content: center; align-items: center;"">
          <img src=""images/red_deck_2.png"" style=""width: 300px; height: 300px; margin-right: 10px;"" />
          <img src=""images/blue_deck_1.png"" style=""width: 300px; height: 300px;"" />
        </div>","0","1","1","choice","0",""
"","","","","","html-keyboard-response","73","358707","0.0-73.0-0.0-0.0","83F1B97779554A1EB25E863198ECCECD","0199db68-5cf9-76a5-92ab-0db9b3e443fb","0199db60-0c70-7be3-948d-e21afdfd0731","","null","<div style=""display: flex; justify-content: center; align-items: center;"">
                     <img src=""images/causal/causal_series_1/causal_series_1_d.png"" style=""width: 300px; height: 300px;"" />
                   </div>","null","1","1","D","",""
"","","","","","survey-likert","74","360587","0.0-74.0","83F1B97779554A1EB25E863198ECCECD","0199db68-5cf9-76a5-92ab-0db9b3e443fb","0199db60-0c70-7be3-948d-e21afdfd0731","","1880","","{""Q0"":4}","1","1","surprise_rating","","[0]"
"","","","","","survey-likert","75","363171","0.0-75.0","83F1B97779554A1EB25E863198ECCECD","0199db68-5cf9-76a5-92ab-0db9b3e443fb","0199db60-0c70-7be3-948d-e21afdfd0731","","2582","","{""Q0"":1}","1","1","enjoyment_rating","","[0]"
"","","","","","html-keyboard-response","76","369174","0.0-76.0","83F1B97779554A1EB25E863198ECCECD","0199db68-5cf9-76a5-92ab-0db9b3e443fb","0199db60-0c70-7be3-948d-e21afdfd0731","","null","<div style=""display: flex; justify-content: center; align-items: center;"">
                     <img src=""images/other/blank.png"" style=""width: 300px; height: 300px;"" />
                   </div>","null","0","0","blank","",""
"","","","","","html-keyboard-response","77","375176","0.0-77.0","83F1B97779554A1EB25E863198ECCECD","0199db68-5cf9-76a5-92ab-0db9b3e443fb","0199db60-0c70-7be3-948d-e21afdfd0731","","null","<div style=""display: flex; justify-content: center; align-items: center;"">
                     <img src=""images/causal/causal_series_9/causal_series_9_a.png"" style=""width: 300px; height: 300px;"" />
                   </div>","null","9","1","A","",""
"","","","","","html-keyboard-response","78","381178","0.0-78.0","83F1B97779554A1EB25E863198ECCECD","0199db68-5cf9-76a5-92ab-0db9b3e443fb","0199db60-0c70-7be3-948d-e21afdfd0731","","null","<div style=""display: flex; justify-content: center; align-items: center;"">
                     <img src=""images/causal/causal_series_9/causal_series_9_b.png"" style=""width: 300px; height: 300px;"" />
                   </div>","null","9","1","B","",""
"","","","","","html-keyboard-response","79","387180","0.0-79.0","83F1B97779554A1EB25E863198ECCECD","0199db68-5cf9-76a5-92ab-0db9b3e443fb","0199db60-0c70-7be3-948d-e21afdfd0731","","null","<div style=""display: flex; justify-content: center; align-items: center;"">
                     <img src=""images/causal/causal_series_9/causal_series_9_c.png"" style=""width: 300px; height: 300px;"" />
                   </div>","null","9","1","C","",""
"","","","","","html-button-response","80","388937","0.0-80.0","83F1B97779554A1EB25E863198ECCECD","0199db68-5cf9-76a5-92ab-0db9b3e443fb","0199db60-0c70-7be3-948d-e21afdfd0731","","1756","
        <div style=""display: flex; justify-content: center; align-items: center;"">
          <img src=""images/red_deck_2.png"" style=""width: 300px; height: 300px; margin-right: 10px;"" />
          <img src=""images/blue_deck_1.png"" style=""width: 300px; height: 300px;"" />
        </div>","0","9","1","choice","0",""
"","","","","","html-keyboard-response","81","394940","0.0-81.0-0.0-0.0","83F1B97779554A1EB25E863198ECCECD","0199db68-5cf9-76a5-92ab-0db9b3e443fb","0199db60-0c70-7be3-948d-e21afdfd0731","","null","<div style=""display: flex; justify-content: center; align-items: center;"">
                     <img src=""images/causal/causal_series_9/causal_series_9_d.png"" style=""width: 300px; height: 300px;"" />
                   </div>","null","9","1","D","",""
"","","","","","survey-likert","82","396671","0.0-82.0","83F1B97779554A1EB25E863198ECCECD","0199db68-5cf9-76a5-92ab-0db9b3e443fb","0199db60-0c70-7be3-948d-e21afdfd0731","","1730","","{""Q0"":4}","9","1","surprise_rating","","[0]"
"","","","","","survey-likert","83","398054","0.0-83.0","83F1B97779554A1EB25E863198ECCECD","0199db68-5cf9-76a5-92ab-0db9b3e443fb","0199db60-0c70-7be3-948d-e21afdfd0731","","1382","","{""Q0"":4}","9","1","enjoyment_rating","","[0]"
"","","","","","html-keyboard-response","84","404056","0.0-84.0","83F1B97779554A1EB25E863198ECCECD","0199db68-5cf9-76a5-92ab-0db9b3e443fb","0199db60-0c70-7be3-948d-e21afdfd0731","","null","<div style=""display: flex; justify-content: center; align-items: center;"">
                     <img src=""images/other/blank.png"" style=""width: 300px; height: 300px;"" />
                   </div>","null","0","0","blank","",""
"","","","","","survey-text","85","483721","0.0-85.0","83F1B97779554A1EB25E863198ECCECD","0199db68-5cf9-76a5-92ab-0db9b3e443fb","0199db60-0c70-7be3-948d-e21afdfd0731","","79661","","{""Q0"":""There was not much difference. Even when I selected the blue deck for continuing the story, it seemed as though the story was still new information. For example, in the painting tour, when I clicked the blue deck, I expected the painting to be described or the students would look at the painting. However, the next action was that the guard told the students that they could take it home if they wanted to. That would be something I would expect from the Red deck of cards since that is new and unexpected information. ""}","","","","",""
"","","","","","html-button-response","86","485971","0.0-86.0","83F1B97779554A1EB25E863198ECCECD","0199db68-5cf9-76a5-92ab-0db9b3e443fb","0199db60-0c70-7be3-948d-e21afdfd0731","","2249","Which color deck do the following sentences continue the story from?","0","","","","",""
"","","","","","html-button-response","87","487454","0.0-87.0","83F1B97779554A1EB25E863198ECCECD","0199db68-5cf9-76a5-92ab-0db9b3e443fb","0199db60-0c70-7be3-948d-e21afdfd0731","","1482","Which color deck do the following sentences NOT follow the story from?","1","","","","",""
"","","","","","html-button-response","88","491387","0.0-88.0","83F1B97779554A1EB25E863198ECCECD","0199db68-5cf9-76a5-92ab-0db9b3e443fb","0199db60-0c70-7be3-948d-e21afdfd0731","","3932","Which type of deck did you prefer overall?","0","","","","",""
"","","","","","survey-text","89","570154","0.0-89.0","83F1B97779554A1EB25E863198ECCECD","0199db68-5cf9-76a5-92ab-0db9b3e443fb","0199db60-0c70-7be3-948d-e21afdfd0731","","78765","","{""Q0"":""MALE"",""Q1"":""27""}","","","","",""
"","","","","","instructions","90","573004","0.0-90.0","83F1B97779554A1EB25E863198ECCECD","0199db68-5cf9-76a5-92ab-0db9b3e443fb","0199db60-0c70-7be3-948d-e21afdfd0731","[{""page_index"":0,""viewing_time"":2848}]","2849","","","","","","",""
