"success","timeout","failed_images","failed_audio","failed_video","trial_type","trial_index","time_elapsed","internal_node_id","subject_id","study_id","session_id","view_history","rt","stimulus","response","choice"
"true","false","[]","[]","[]","preload","0","11634","0.0-0.0","9C777ABC0CA34BCC8D0452EF6F542E2A","df816f86-af2c-4382-a300-3324ddd30dc8","683bf07d-1a26-40b1-9cff-5abdc1eed0ee","","","","",""
"","","","","","instructions","1","14568","0.0-1.0","9C777ABC0CA34BCC8D0452EF6F542E2A","df816f86-af2c-4382-a300-3324ddd30dc8","683bf07d-1a26-40b1-9cff-5abdc1eed0ee","[{""page_index"":0,""viewing_time"":2933}]","2933","","",""
"","","","","","instructions","2","18337","0.0-2.0","9C777ABC0CA34BCC8D0452EF6F542E2A","df816f86-af2c-4382-a300-3324ddd30dc8","683bf07d-1a26-40b1-9cff-5abdc1eed0ee","[{""page_index"":0,""viewing_time"":3768}]","3768","","",""
"true","","","","","fullscreen","3","25924","0.0-3.0","9C777ABC0CA34BCC8D0452EF6F542E2A","df816f86-af2c-4382-a300-3324ddd30dc8","683bf07d-1a26-40b1-9cff-5abdc1eed0ee","","6586","","",""
"","","","","","instructions","4","36467","0.0-4.0","9C777ABC0CA34BCC8D0452EF6F542E2A","df816f86-af2c-4382-a300-3324ddd30dc8","683bf07d-1a26-40b1-9cff-5abdc1eed0ee","[{""page_index"":0,""viewing_time"":10542}]","10543","","",""
"","","","","","html-keyboard-response","5","39469","0.0-5.0","9C777ABC0CA34BCC8D0452EF6F542E2A","df816f86-af2c-4382-a300-3324ddd30dc8","683bf07d-1a26-40b1-9cff-5abdc1eed0ee","","null","<div style=""display: flex; justify-content: center; align-items: center;"">
                <img src=""images/causal/causal_series_4/causal_series_4_a.jpg"" style=""width: 300px; height: 300px;"" />
              </div>","null",""
"","","","","","html-keyboard-response","6","42471","0.0-6.0","9C777ABC0CA34BCC8D0452EF6F542E2A","df816f86-af2c-4382-a300-3324ddd30dc8","683bf07d-1a26-40b1-9cff-5abdc1eed0ee","","null","<div style=""display: flex; justify-content: center; align-items: center;"">
                <img src=""images/causal/causal_series_4/causal_series_4_b.jpg"" style=""width: 300px; height: 300px;"" />
              </div>","null",""
"","","","","","html-keyboard-response","7","45477","0.0-7.0","9C777ABC0CA34BCC8D0452EF6F542E2A","df816f86-af2c-4382-a300-3324ddd30dc8","683bf07d-1a26-40b1-9cff-5abdc1eed0ee","","null","<div style=""display: flex; justify-content: center; align-items: center;"">
                <img src=""images/causal/causal_series_4/causal_series_4_c.jpg"" style=""width: 300px; height: 300px;"" />
              </div>","null",""
"","","","","","html-button-response","8","48173","0.0-8.0","9C777ABC0CA34BCC8D0452EF6F542E2A","df816f86-af2c-4382-a300-3324ddd30dc8","683bf07d-1a26-40b1-9cff-5abdc1eed0ee","","2695","
    <div style=""display: flex; justify-content: center; align-items: center;"">
      <img src=""images/red_deck_2.png"" style=""width: 300px; height: 300px; margin-right: 10px;"" />
      <img src=""images/blue_deck_1.png"" style=""width: 300px; height: 300px;"" />
    </div>","0","0"
"","","","","","html-keyboard-response","9","51180","0.0-9.0-0.0-0.0","9C777ABC0CA34BCC8D0452EF6F542E2A","df816f86-af2c-4382-a300-3324ddd30dc8","683bf07d-1a26-40b1-9cff-5abdc1eed0ee","","null","<div style=""display: flex; justify-content: center; align-items: center;"">
                <img src=""images/causal/causal_series_4/causal_series_4_d.jpg"" style=""width: 300px; height: 300px;"" />
              </div>","null",""
"","","","","","html-keyboard-response","10","54189","0.0-10.0","9C777ABC0CA34BCC8D0452EF6F542E2A","df816f86-af2c-4382-a300-3324ddd30dc8","683bf07d-1a26-40b1-9cff-5abdc1eed0ee","","null","<div style=""display: flex; justify-content: center; align-items: center;"">
                <img src=""images/other/blank.jpg"" style=""width: 300px; height: 300px;"" />
              </div>","null",""
"","","","","","html-keyboard-response","11","57204","0.0-11.0","9C777ABC0CA34BCC8D0452EF6F542E2A","df816f86-af2c-4382-a300-3324ddd30dc8","683bf07d-1a26-40b1-9cff-5abdc1eed0ee","","null","<div style=""display: flex; justify-content: center; align-items: center;"">
                <img src=""images/causal/causal_series_5/causal_series_5_a.jpg"" style=""width: 300px; height: 300px;"" />
              </div>","null",""
"","","","","","html-keyboard-response","12","60219","0.0-12.0","9C777ABC0CA34BCC8D0452EF6F542E2A","df816f86-af2c-4382-a300-3324ddd30dc8","683bf07d-1a26-40b1-9cff-5abdc1eed0ee","","null","<div style=""display: flex; justify-content: center; align-items: center;"">
                <img src=""images/causal/causal_series_5/causal_series_5_b.jpg"" style=""width: 300px; height: 300px;"" />
              </div>","null",""
"","","","","","html-keyboard-response","13","63233","0.0-13.0","9C777ABC0CA34BCC8D0452EF6F542E2A","df816f86-af2c-4382-a300-3324ddd30dc8","683bf07d-1a26-40b1-9cff-5abdc1eed0ee","","null","<div style=""display: flex; justify-content: center; align-items: center;"">
                <img src=""images/causal/causal_series_5/causal_series_5_c.jpg"" style=""width: 300px; height: 300px;"" />
              </div>","null",""
"","","","","","html-button-response","14","65354","0.0-14.0","9C777ABC0CA34BCC8D0452EF6F542E2A","df816f86-af2c-4382-a300-3324ddd30dc8","683bf07d-1a26-40b1-9cff-5abdc1eed0ee","","2120","
    <div style=""display: flex; justify-content: center; align-items: center;"">
      <img src=""images/red_deck_2.png"" style=""width: 300px; height: 300px; margin-right: 10px;"" />
      <img src=""images/blue_deck_1.png"" style=""width: 300px; height: 300px;"" />
    </div>","1","1"
"","","","","","html-keyboard-response","15","68365","0.0-15.0-1.0-0.0","9C777ABC0CA34BCC8D0452EF6F542E2A","df816f86-af2c-4382-a300-3324ddd30dc8","683bf07d-1a26-40b1-9cff-5abdc1eed0ee","","null","<div style=""display: flex; justify-content: center; align-items: center;"">
                <img src=""images/semantic/semantic_series_4/semantic_series_4_d.jpg"" style=""width: 300px; height: 300px;"" />
              </div>","null",""
"","","","","","html-keyboard-response","16","71374","0.0-16.0","9C777ABC0CA34BCC8D0452EF6F542E2A","df816f86-af2c-4382-a300-3324ddd30dc8","683bf07d-1a26-40b1-9cff-5abdc1eed0ee","","null","<div style=""display: flex; justify-content: center; align-items: center;"">
                <img src=""images/other/blank.jpg"" style=""width: 300px; height: 300px;"" />
              </div>","null",""
"","","","","","html-keyboard-response","17","74383","0.0-17.0","9C777ABC0CA34BCC8D0452EF6F542E2A","df816f86-af2c-4382-a300-3324ddd30dc8","683bf07d-1a26-40b1-9cff-5abdc1eed0ee","","null","<div style=""display: flex; justify-content: center; align-items: center;"">
                <img src=""images/causal/causal_series_6/causal_series_6_a.jpg"" style=""width: 300px; height: 300px;"" />
              </div>","null",""
"","","","","","html-keyboard-response","18","77388","0.0-18.0","9C777ABC0CA34BCC8D0452EF6F542E2A","df816f86-af2c-4382-a300-3324ddd30dc8","683bf07d-1a26-40b1-9cff-5abdc1eed0ee","","null","<div style=""display: flex; justify-content: center; align-items: center;"">
                <img src=""images/causal/causal_series_6/causal_series_6_b.jpg"" style=""width: 300px; height: 300px;"" />
              </div>","null",""
"","","","","","html-keyboard-response","19","80395","0.0-19.0","9C777ABC0CA34BCC8D0452EF6F542E2A","df816f86-af2c-4382-a300-3324ddd30dc8","683bf07d-1a26-40b1-9cff-5abdc1eed0ee","","null","<div style=""display: flex; justify-content: center; align-items: center;"">
                <img src=""images/causal/causal_series_6/causal_series_6_c.jpg"" style=""width: 300px; height: 300px;"" />
              </div>","null",""
"","","","","","html-button-response","20","81472","0.0-20.0","9C777ABC0CA34BCC8D0452EF6F542E2A","df816f86-af2c-4382-a300-3324ddd30dc8","683bf07d-1a26-40b1-9cff-5abdc1eed0ee","","1075","
    <div style=""display: flex; justify-content: center; align-items: center;"">
      <img src=""images/red_deck_2.png"" style=""width: 300px; height: 300px; margin-right: 10px;"" />
      <img src=""images/blue_deck_1.png"" style=""width: 300px; height: 300px;"" />
    </div>","0","0"
"","","","","","html-keyboard-response","21","84477","0.0-21.0-0.0-0.0","9C777ABC0CA34BCC8D0452EF6F542E2A","df816f86-af2c-4382-a300-3324ddd30dc8","683bf07d-1a26-40b1-9cff-5abdc1eed0ee","","null","<div style=""display: flex; justify-content: center; align-items: center;"">
                <img src=""images/causal/causal_series_6/causal_series_6_d.jpg"" style=""width: 300px; height: 300px;"" />
              </div>","null",""
"","","","","","html-keyboard-response","22","87481","0.0-22.0","9C777ABC0CA34BCC8D0452EF6F542E2A","df816f86-af2c-4382-a300-3324ddd30dc8","683bf07d-1a26-40b1-9cff-5abdc1eed0ee","","null","<div style=""display: flex; justify-content: center; align-items: center;"">
                <img src=""images/other/blank.jpg"" style=""width: 300px; height: 300px;"" />
              </div>","null",""
"","","","","","html-keyboard-response","23","90482","0.0-23.0","9C777ABC0CA34BCC8D0452EF6F542E2A","df816f86-af2c-4382-a300-3324ddd30dc8","683bf07d-1a26-40b1-9cff-5abdc1eed0ee","","null","<div style=""display: flex; justify-content: center; align-items: center;"">
                <img src=""images/causal/causal_series_9/causal_series_9_a.jpg"" style=""width: 300px; height: 300px;"" />
              </div>","null",""
"","","","","","html-keyboard-response","24","93485","0.0-24.0","9C777ABC0CA34BCC8D0452EF6F542E2A","df816f86-af2c-4382-a300-3324ddd30dc8","683bf07d-1a26-40b1-9cff-5abdc1eed0ee","","null","<div style=""display: flex; justify-content: center; align-items: center;"">
                <img src=""images/causal/causal_series_9/causal_series_9_b.jpg"" style=""width: 300px; height: 300px;"" />
              </div>","null",""
"","","","","","html-keyboard-response","25","96501","0.0-25.0","9C777ABC0CA34BCC8D0452EF6F542E2A","df816f86-af2c-4382-a300-3324ddd30dc8","683bf07d-1a26-40b1-9cff-5abdc1eed0ee","","null","<div style=""display: flex; justify-content: center; align-items: center;"">
                <img src=""images/causal/causal_series_9/causal_series_9_c.jpg"" style=""width: 300px; height: 300px;"" />
              </div>","null",""
"","","","","","html-button-response","26","97979","0.0-26.0","9C777ABC0CA34BCC8D0452EF6F542E2A","df816f86-af2c-4382-a300-3324ddd30dc8","683bf07d-1a26-40b1-9cff-5abdc1eed0ee","","1477","
    <div style=""display: flex; justify-content: center; align-items: center;"">
      <img src=""images/red_deck_2.png"" style=""width: 300px; height: 300px; margin-right: 10px;"" />
      <img src=""images/blue_deck_1.png"" style=""width: 300px; height: 300px;"" />
    </div>","1","1"
"","","","","","html-keyboard-response","27","100986","0.0-27.0-1.0-0.0","9C777ABC0CA34BCC8D0452EF6F542E2A","df816f86-af2c-4382-a300-3324ddd30dc8","683bf07d-1a26-40b1-9cff-5abdc1eed0ee","","null","<div style=""display: flex; justify-content: center; align-items: center;"">
                <img src=""images/semantic/semantic_series_8/semantic_series_8_d.jpg"" style=""width: 300px; height: 300px;"" />
              </div>","null",""
"","","","","","html-keyboard-response","28","103986","0.0-28.0","9C777ABC0CA34BCC8D0452EF6F542E2A","df816f86-af2c-4382-a300-3324ddd30dc8","683bf07d-1a26-40b1-9cff-5abdc1eed0ee","","null","<div style=""display: flex; justify-content: center; align-items: center;"">
                <img src=""images/other/blank.jpg"" style=""width: 300px; height: 300px;"" />
              </div>","null",""
"","","","","","html-keyboard-response","29","107002","0.0-29.0","9C777ABC0CA34BCC8D0452EF6F542E2A","df816f86-af2c-4382-a300-3324ddd30dc8","683bf07d-1a26-40b1-9cff-5abdc1eed0ee","","null","<div style=""display: flex; justify-content: center; align-items: center;"">
                <img src=""images/causal/causal_series_10/causal_series_10_a.jpg"" style=""width: 300px; height: 300px;"" />
              </div>","null",""
"","","","","","html-keyboard-response","30","110007","0.0-30.0","9C777ABC0CA34BCC8D0452EF6F542E2A","df816f86-af2c-4382-a300-3324ddd30dc8","683bf07d-1a26-40b1-9cff-5abdc1eed0ee","","null","<div style=""display: flex; justify-content: center; align-items: center;"">
                <img src=""images/causal/causal_series_10/causal_series_10_b.jpg"" style=""width: 300px; height: 300px;"" />
              </div>","null",""
"","","","","","html-keyboard-response","31","113011","0.0-31.0","9C777ABC0CA34BCC8D0452EF6F542E2A","df816f86-af2c-4382-a300-3324ddd30dc8","683bf07d-1a26-40b1-9cff-5abdc1eed0ee","","null","<div style=""display: flex; justify-content: center; align-items: center;"">
                <img src=""images/causal/causal_series_10/causal_series_10_c.jpg"" style=""width: 300px; height: 300px;"" />
              </div>","null",""
"","","","","","html-button-response","32","113941","0.0-32.0","9C777ABC0CA34BCC8D0452EF6F542E2A","df816f86-af2c-4382-a300-3324ddd30dc8","683bf07d-1a26-40b1-9cff-5abdc1eed0ee","","928","
    <div style=""display: flex; justify-content: center; align-items: center;"">
      <img src=""images/red_deck_2.png"" style=""width: 300px; height: 300px; margin-right: 10px;"" />
      <img src=""images/blue_deck_1.png"" style=""width: 300px; height: 300px;"" />
    </div>","0","0"
"","","","","","html-keyboard-response","33","116946","0.0-33.0-0.0-0.0","9C777ABC0CA34BCC8D0452EF6F542E2A","df816f86-af2c-4382-a300-3324ddd30dc8","683bf07d-1a26-40b1-9cff-5abdc1eed0ee","","null","<div style=""display: flex; justify-content: center; align-items: center;"">
                <img src=""images/causal/causal_series_10/causal_series_10_d.jpg"" style=""width: 300px; height: 300px;"" />
              </div>","null",""
"","","","","","html-keyboard-response","34","119958","0.0-34.0","9C777ABC0CA34BCC8D0452EF6F542E2A","df816f86-af2c-4382-a300-3324ddd30dc8","683bf07d-1a26-40b1-9cff-5abdc1eed0ee","","null","<div style=""display: flex; justify-content: center; align-items: center;"">
                <img src=""images/other/blank.jpg"" style=""width: 300px; height: 300px;"" />
              </div>","null",""
"","","","","","html-keyboard-response","35","122961","0.0-35.0","9C777ABC0CA34BCC8D0452EF6F542E2A","df816f86-af2c-4382-a300-3324ddd30dc8","683bf07d-1a26-40b1-9cff-5abdc1eed0ee","","null","<div style=""display: flex; justify-content: center; align-items: center;"">
                <img src=""images/causal/causal_series_2/causal_series_2_a.jpg"" style=""width: 300px; height: 300px;"" />
              </div>","null",""
"","","","","","html-keyboard-response","36","125971","0.0-36.0","9C777ABC0CA34BCC8D0452EF6F542E2A","df816f86-af2c-4382-a300-3324ddd30dc8","683bf07d-1a26-40b1-9cff-5abdc1eed0ee","","null","<div style=""display: flex; justify-content: center; align-items: center;"">
                <img src=""images/causal/causal_series_2/causal_series_2_b.jpg"" style=""width: 300px; height: 300px;"" />
              </div>","null",""
"","","","","","html-keyboard-response","37","128984","0.0-37.0","9C777ABC0CA34BCC8D0452EF6F542E2A","df816f86-af2c-4382-a300-3324ddd30dc8","683bf07d-1a26-40b1-9cff-5abdc1eed0ee","","null","<div style=""display: flex; justify-content: center; align-items: center;"">
                <img src=""images/causal/causal_series_2/causal_series_2_c.jpg"" style=""width: 300px; height: 300px;"" />
              </div>","null",""
"","","","","","html-button-response","38","130652","0.0-38.0","9C777ABC0CA34BCC8D0452EF6F542E2A","df816f86-af2c-4382-a300-3324ddd30dc8","683bf07d-1a26-40b1-9cff-5abdc1eed0ee","","1667","
    <div style=""display: flex; justify-content: center; align-items: center;"">
      <img src=""images/red_deck_2.png"" style=""width: 300px; height: 300px; margin-right: 10px;"" />
      <img src=""images/blue_deck_1.png"" style=""width: 300px; height: 300px;"" />
    </div>","1","1"
"","","","","","html-keyboard-response","39","133658","0.0-39.0-1.0-0.0","9C777ABC0CA34BCC8D0452EF6F542E2A","df816f86-af2c-4382-a300-3324ddd30dc8","683bf07d-1a26-40b1-9cff-5abdc1eed0ee","","null","<div style=""display: flex; justify-content: center; align-items: center;"">
                <img src=""images/semantic/semantic_series_1/semantic_series_1_d.jpg"" style=""width: 300px; height: 300px;"" />
              </div>","null",""
"","","","","","html-keyboard-response","40","136660","0.0-40.0","9C777ABC0CA34BCC8D0452EF6F542E2A","df816f86-af2c-4382-a300-3324ddd30dc8","683bf07d-1a26-40b1-9cff-5abdc1eed0ee","","null","<div style=""display: flex; justify-content: center; align-items: center;"">
                <img src=""images/other/blank.jpg"" style=""width: 300px; height: 300px;"" />
              </div>","null",""
"","","","","","html-keyboard-response","41","139666","0.0-41.0","9C777ABC0CA34BCC8D0452EF6F542E2A","df816f86-af2c-4382-a300-3324ddd30dc8","683bf07d-1a26-40b1-9cff-5abdc1eed0ee","","null","<div style=""display: flex; justify-content: center; align-items: center;"">
                <img src=""images/causal/causal_series_1/causal_series_1_a.jpg"" style=""width: 300px; height: 300px;"" />
              </div>","null",""
"","","","","","html-keyboard-response","42","142683","0.0-42.0","9C777ABC0CA34BCC8D0452EF6F542E2A","df816f86-af2c-4382-a300-3324ddd30dc8","683bf07d-1a26-40b1-9cff-5abdc1eed0ee","","null","<div style=""display: flex; justify-content: center; align-items: center;"">
                <img src=""images/causal/causal_series_1/causal_series_1_b.jpg"" style=""width: 300px; height: 300px;"" />
              </div>","null",""
"","","","","","html-keyboard-response","43","145684","0.0-43.0","9C777ABC0CA34BCC8D0452EF6F542E2A","df816f86-af2c-4382-a300-3324ddd30dc8","683bf07d-1a26-40b1-9cff-5abdc1eed0ee","","null","<div style=""display: flex; justify-content: center; align-items: center;"">
                <img src=""images/causal/causal_series_1/causal_series_1_c.jpg"" style=""width: 300px; height: 300px;"" />
              </div>","null",""
"","","","","","html-button-response","44","146622","0.0-44.0","9C777ABC0CA34BCC8D0452EF6F542E2A","df816f86-af2c-4382-a300-3324ddd30dc8","683bf07d-1a26-40b1-9cff-5abdc1eed0ee","","937","
    <div style=""display: flex; justify-content: center; align-items: center;"">
      <img src=""images/red_deck_2.png"" style=""width: 300px; height: 300px; margin-right: 10px;"" />
      <img src=""images/blue_deck_1.png"" style=""width: 300px; height: 300px;"" />
    </div>","0","0"
"","","","","","html-keyboard-response","45","149636","0.0-45.0-0.0-0.0","9C777ABC0CA34BCC8D0452EF6F542E2A","df816f86-af2c-4382-a300-3324ddd30dc8","683bf07d-1a26-40b1-9cff-5abdc1eed0ee","","null","<div style=""display: flex; justify-content: center; align-items: center;"">
                <img src=""images/causal/causal_series_1/causal_series_1_d.jpg"" style=""width: 300px; height: 300px;"" />
              </div>","null",""
"","","","","","html-keyboard-response","46","152644","0.0-46.0","9C777ABC0CA34BCC8D0452EF6F542E2A","df816f86-af2c-4382-a300-3324ddd30dc8","683bf07d-1a26-40b1-9cff-5abdc1eed0ee","","null","<div style=""display: flex; justify-content: center; align-items: center;"">
                <img src=""images/other/blank.jpg"" style=""width: 300px; height: 300px;"" />
              </div>","null",""
"","","","","","html-keyboard-response","47","155649","0.0-47.0","9C777ABC0CA34BCC8D0452EF6F542E2A","df816f86-af2c-4382-a300-3324ddd30dc8","683bf07d-1a26-40b1-9cff-5abdc1eed0ee","","null","<div style=""display: flex; justify-content: center; align-items: center;"">
                <img src=""images/causal/causal_series_13/causal_series_13_a.jpg"" style=""width: 300px; height: 300px;"" />
              </div>","null",""
"","","","","","html-keyboard-response","48","158661","0.0-48.0","9C777ABC0CA34BCC8D0452EF6F542E2A","df816f86-af2c-4382-a300-3324ddd30dc8","683bf07d-1a26-40b1-9cff-5abdc1eed0ee","","null","<div style=""display: flex; justify-content: center; align-items: center;"">
                <img src=""images/causal/causal_series_13/causal_series_13_b.jpg"" style=""width: 300px; height: 300px;"" />
              </div>","null",""
"","","","","","html-keyboard-response","49","161669","0.0-49.0","9C777ABC0CA34BCC8D0452EF6F542E2A","df816f86-af2c-4382-a300-3324ddd30dc8","683bf07d-1a26-40b1-9cff-5abdc1eed0ee","","null","<div style=""display: flex; justify-content: center; align-items: center;"">
                <img src=""images/causal/causal_series_13/causal_series_13_c.jpg"" style=""width: 300px; height: 300px;"" />
              </div>","null",""
"","","","","","html-button-response","50","163567","0.0-50.0","9C777ABC0CA34BCC8D0452EF6F542E2A","df816f86-af2c-4382-a300-3324ddd30dc8","683bf07d-1a26-40b1-9cff-5abdc1eed0ee","","1897","
    <div style=""display: flex; justify-content: center; align-items: center;"">
      <img src=""images/red_deck_2.png"" style=""width: 300px; height: 300px; margin-right: 10px;"" />
      <img src=""images/blue_deck_1.png"" style=""width: 300px; height: 300px;"" />
    </div>","0","0"
"","","","","","html-keyboard-response","51","166579","0.0-51.0-0.0-0.0","9C777ABC0CA34BCC8D0452EF6F542E2A","df816f86-af2c-4382-a300-3324ddd30dc8","683bf07d-1a26-40b1-9cff-5abdc1eed0ee","","null","<div style=""display: flex; justify-content: center; align-items: center;"">
                <img src=""images/causal/causal_series_13/causal_series_13_d.jpg"" style=""width: 300px; height: 300px;"" />
              </div>","null",""
"","","","","","html-keyboard-response","52","169582","0.0-52.0","9C777ABC0CA34BCC8D0452EF6F542E2A","df816f86-af2c-4382-a300-3324ddd30dc8","683bf07d-1a26-40b1-9cff-5abdc1eed0ee","","null","<div style=""display: flex; justify-content: center; align-items: center;"">
                <img src=""images/other/blank.jpg"" style=""width: 300px; height: 300px;"" />
              </div>","null",""
"","","","","","html-keyboard-response","53","172583","0.0-53.0","9C777ABC0CA34BCC8D0452EF6F542E2A","df816f86-af2c-4382-a300-3324ddd30dc8","683bf07d-1a26-40b1-9cff-5abdc1eed0ee","","null","<div style=""display: flex; justify-content: center; align-items: center;"">
                <img src=""images/causal/causal_series_11/causal_series_11_a.jpg"" style=""width: 300px; height: 300px;"" />
              </div>","null",""
"","","","","","html-keyboard-response","54","175597","0.0-54.0","9C777ABC0CA34BCC8D0452EF6F542E2A","df816f86-af2c-4382-a300-3324ddd30dc8","683bf07d-1a26-40b1-9cff-5abdc1eed0ee","","null","<div style=""display: flex; justify-content: center; align-items: center;"">
                <img src=""images/causal/causal_series_11/causal_series_11_b.jpg"" style=""width: 300px; height: 300px;"" />
              </div>","null",""
"","","","","","html-keyboard-response","55","178610","0.0-55.0","9C777ABC0CA34BCC8D0452EF6F542E2A","df816f86-af2c-4382-a300-3324ddd30dc8","683bf07d-1a26-40b1-9cff-5abdc1eed0ee","","null","<div style=""display: flex; justify-content: center; align-items: center;"">
                <img src=""images/causal/causal_series_11/causal_series_11_c.jpg"" style=""width: 300px; height: 300px;"" />
              </div>","null",""
"","","","","","html-button-response","56","180780","0.0-56.0","9C777ABC0CA34BCC8D0452EF6F542E2A","df816f86-af2c-4382-a300-3324ddd30dc8","683bf07d-1a26-40b1-9cff-5abdc1eed0ee","","2170","
    <div style=""display: flex; justify-content: center; align-items: center;"">
      <img src=""images/red_deck_2.png"" style=""width: 300px; height: 300px; margin-right: 10px;"" />
      <img src=""images/blue_deck_1.png"" style=""width: 300px; height: 300px;"" />
    </div>","1","1"
"","","","","","html-keyboard-response","57","183794","0.0-57.0-1.0-0.0","9C777ABC0CA34BCC8D0452EF6F542E2A","df816f86-af2c-4382-a300-3324ddd30dc8","683bf07d-1a26-40b1-9cff-5abdc1eed0ee","","null","<div style=""display: flex; justify-content: center; align-items: center;"">
                <img src=""images/semantic/semantic_series_10/semantic_series_10_d.jpg"" style=""width: 300px; height: 300px;"" />
              </div>","null",""
"","","","","","html-keyboard-response","58","186802","0.0-58.0","9C777ABC0CA34BCC8D0452EF6F542E2A","df816f86-af2c-4382-a300-3324ddd30dc8","683bf07d-1a26-40b1-9cff-5abdc1eed0ee","","null","<div style=""display: flex; justify-content: center; align-items: center;"">
                <img src=""images/other/blank.jpg"" style=""width: 300px; height: 300px;"" />
              </div>","null",""
"","","","","","html-keyboard-response","59","189804","0.0-59.0","9C777ABC0CA34BCC8D0452EF6F542E2A","df816f86-af2c-4382-a300-3324ddd30dc8","683bf07d-1a26-40b1-9cff-5abdc1eed0ee","","null","<div style=""display: flex; justify-content: center; align-items: center;"">
                <img src=""images/causal/causal_series_7/causal_series_7_a.jpg"" style=""width: 300px; height: 300px;"" />
              </div>","null",""
"","","","","","html-keyboard-response","60","192819","0.0-60.0","9C777ABC0CA34BCC8D0452EF6F542E2A","df816f86-af2c-4382-a300-3324ddd30dc8","683bf07d-1a26-40b1-9cff-5abdc1eed0ee","","null","<div style=""display: flex; justify-content: center; align-items: center;"">
                <img src=""images/causal/causal_series_7/causal_series_7_b.jpg"" style=""width: 300px; height: 300px;"" />
              </div>","null",""
"","","","","","html-keyboard-response","61","195828","0.0-61.0","9C777ABC0CA34BCC8D0452EF6F542E2A","df816f86-af2c-4382-a300-3324ddd30dc8","683bf07d-1a26-40b1-9cff-5abdc1eed0ee","","null","<div style=""display: flex; justify-content: center; align-items: center;"">
                <img src=""images/causal/causal_series_7/causal_series_7_c.jpg"" style=""width: 300px; height: 300px;"" />
              </div>","null",""
"","","","","","html-button-response","62","196516","0.0-62.0","9C777ABC0CA34BCC8D0452EF6F542E2A","df816f86-af2c-4382-a300-3324ddd30dc8","683bf07d-1a26-40b1-9cff-5abdc1eed0ee","","686","
    <div style=""display: flex; justify-content: center; align-items: center;"">
      <img src=""images/red_deck_2.png"" style=""width: 300px; height: 300px; margin-right: 10px;"" />
      <img src=""images/blue_deck_1.png"" style=""width: 300px; height: 300px;"" />
    </div>","0","0"
"","","","","","html-keyboard-response","63","199520","0.0-63.0-0.0-0.0","9C777ABC0CA34BCC8D0452EF6F542E2A","df816f86-af2c-4382-a300-3324ddd30dc8","683bf07d-1a26-40b1-9cff-5abdc1eed0ee","","null","<div style=""display: flex; justify-content: center; align-items: center;"">
                <img src=""images/causal/causal_series_7/causal_series_7_d.jpg"" style=""width: 300px; height: 300px;"" />
              </div>","null",""
"","","","","","html-keyboard-response","64","202527","0.0-64.0","9C777ABC0CA34BCC8D0452EF6F542E2A","df816f86-af2c-4382-a300-3324ddd30dc8","683bf07d-1a26-40b1-9cff-5abdc1eed0ee","","null","<div style=""display: flex; justify-content: center; align-items: center;"">
                <img src=""images/other/blank.jpg"" style=""width: 300px; height: 300px;"" />
              </div>","null",""
"","","","","","html-keyboard-response","65","205528","0.0-65.0","9C777ABC0CA34BCC8D0452EF6F542E2A","df816f86-af2c-4382-a300-3324ddd30dc8","683bf07d-1a26-40b1-9cff-5abdc1eed0ee","","null","<div style=""display: flex; justify-content: center; align-items: center;"">
                <img src=""images/causal/causal_series_17/causal_series_17_a.jpg"" style=""width: 300px; height: 300px;"" />
              </div>","null",""
"","","","","","html-keyboard-response","66","208545","0.0-66.0","9C777ABC0CA34BCC8D0452EF6F542E2A","df816f86-af2c-4382-a300-3324ddd30dc8","683bf07d-1a26-40b1-9cff-5abdc1eed0ee","","null","<div style=""display: flex; justify-content: center; align-items: center;"">
                <img src=""images/causal/causal_series_17/causal_series_17_b.jpg"" style=""width: 300px; height: 300px;"" />
              </div>","null",""
"","","","","","html-keyboard-response","67","211557","0.0-67.0","9C777ABC0CA34BCC8D0452EF6F542E2A","df816f86-af2c-4382-a300-3324ddd30dc8","683bf07d-1a26-40b1-9cff-5abdc1eed0ee","","null","<div style=""display: flex; justify-content: center; align-items: center;"">
                <img src=""images/causal/causal_series_17/causal_series_17_c.jpg"" style=""width: 300px; height: 300px;"" />
              </div>","null",""
"","","","","","html-button-response","68","212152","0.0-68.0","9C777ABC0CA34BCC8D0452EF6F542E2A","df816f86-af2c-4382-a300-3324ddd30dc8","683bf07d-1a26-40b1-9cff-5abdc1eed0ee","","594","
    <div style=""display: flex; justify-content: center; align-items: center;"">
      <img src=""images/red_deck_2.png"" style=""width: 300px; height: 300px; margin-right: 10px;"" />
      <img src=""images/blue_deck_1.png"" style=""width: 300px; height: 300px;"" />
    </div>","0","0"
"","","","","","html-keyboard-response","69","215161","0.0-69.0-0.0-0.0","9C777ABC0CA34BCC8D0452EF6F542E2A","df816f86-af2c-4382-a300-3324ddd30dc8","683bf07d-1a26-40b1-9cff-5abdc1eed0ee","","null","<div style=""display: flex; justify-content: center; align-items: center;"">
                <img src=""images/causal/causal_series_17/causal_series_17_d.jpg"" style=""width: 300px; height: 300px;"" />
              </div>","null",""
"","","","","","html-keyboard-response","70","218173","0.0-70.0","9C777ABC0CA34BCC8D0452EF6F542E2A","df816f86-af2c-4382-a300-3324ddd30dc8","683bf07d-1a26-40b1-9cff-5abdc1eed0ee","","null","<div style=""display: flex; justify-content: center; align-items: center;"">
                <img src=""images/other/blank.jpg"" style=""width: 300px; height: 300px;"" />
              </div>","null",""
"","","","","","html-keyboard-response","71","221183","0.0-71.0","9C777ABC0CA34BCC8D0452EF6F542E2A","df816f86-af2c-4382-a300-3324ddd30dc8","683bf07d-1a26-40b1-9cff-5abdc1eed0ee","","null","<div style=""display: flex; justify-content: center; align-items: center;"">
                <img src=""images/causal/causal_series_8/causal_series_8_a.jpg"" style=""width: 300px; height: 300px;"" />
              </div>","null",""
"","","","","","html-keyboard-response","72","224186","0.0-72.0","9C777ABC0CA34BCC8D0452EF6F542E2A","df816f86-af2c-4382-a300-3324ddd30dc8","683bf07d-1a26-40b1-9cff-5abdc1eed0ee","","null","<div style=""display: flex; justify-content: center; align-items: center;"">
                <img src=""images/causal/causal_series_8/causal_series_8_b.jpg"" style=""width: 300px; height: 300px;"" />
              </div>","null",""
"","","","","","html-keyboard-response","73","227198","0.0-73.0","9C777ABC0CA34BCC8D0452EF6F542E2A","df816f86-af2c-4382-a300-3324ddd30dc8","683bf07d-1a26-40b1-9cff-5abdc1eed0ee","","null","<div style=""display: flex; justify-content: center; align-items: center;"">
                <img src=""images/causal/causal_series_8/causal_series_8_c.jpg"" style=""width: 300px; height: 300px;"" />
              </div>","null",""
"","","","","","html-button-response","74","228008","0.0-74.0","9C777ABC0CA34BCC8D0452EF6F542E2A","df816f86-af2c-4382-a300-3324ddd30dc8","683bf07d-1a26-40b1-9cff-5abdc1eed0ee","","809","
    <div style=""display: flex; justify-content: center; align-items: center;"">
      <img src=""images/red_deck_2.png"" style=""width: 300px; height: 300px; margin-right: 10px;"" />
      <img src=""images/blue_deck_1.png"" style=""width: 300px; height: 300px;"" />
    </div>","1","1"
"","","","","","html-keyboard-response","75","231023","0.0-75.0-1.0-0.0","9C777ABC0CA34BCC8D0452EF6F542E2A","df816f86-af2c-4382-a300-3324ddd30dc8","683bf07d-1a26-40b1-9cff-5abdc1eed0ee","","null","<div style=""display: flex; justify-content: center; align-items: center;"">
                <img src=""images/semantic/semantic_series_7/semantic_series_7_d.jpg"" style=""width: 300px; height: 300px;"" />
              </div>","null",""
"","","","","","html-keyboard-response","76","234039","0.0-76.0","9C777ABC0CA34BCC8D0452EF6F542E2A","df816f86-af2c-4382-a300-3324ddd30dc8","683bf07d-1a26-40b1-9cff-5abdc1eed0ee","","null","<div style=""display: flex; justify-content: center; align-items: center;"">
                <img src=""images/other/blank.jpg"" style=""width: 300px; height: 300px;"" />
              </div>","null",""
"","","","","","html-keyboard-response","77","237046","0.0-77.0","9C777ABC0CA34BCC8D0452EF6F542E2A","df816f86-af2c-4382-a300-3324ddd30dc8","683bf07d-1a26-40b1-9cff-5abdc1eed0ee","","null","<div style=""display: flex; justify-content: center; align-items: center;"">
                <img src=""images/causal/causal_series_16/causal_series_16_a.jpg"" style=""width: 300px; height: 300px;"" />
              </div>","null",""
"","","","","","html-keyboard-response","78","240058","0.0-78.0","9C777ABC0CA34BCC8D0452EF6F542E2A","df816f86-af2c-4382-a300-3324ddd30dc8","683bf07d-1a26-40b1-9cff-5abdc1eed0ee","","null","<div style=""display: flex; justify-content: center; align-items: center;"">
                <img src=""images/causal/causal_series_16/causal_series_16_b.jpg"" style=""width: 300px; height: 300px;"" />
              </div>","null",""
"","","","","","html-keyboard-response","79","243068","0.0-79.0","9C777ABC0CA34BCC8D0452EF6F542E2A","df816f86-af2c-4382-a300-3324ddd30dc8","683bf07d-1a26-40b1-9cff-5abdc1eed0ee","","null","<div style=""display: flex; justify-content: center; align-items: center;"">
                <img src=""images/causal/causal_series_16/causal_series_16_c.jpg"" style=""width: 300px; height: 300px;"" />
              </div>","null",""
"","","","","","html-button-response","80","244676","0.0-80.0","9C777ABC0CA34BCC8D0452EF6F542E2A","df816f86-af2c-4382-a300-3324ddd30dc8","683bf07d-1a26-40b1-9cff-5abdc1eed0ee","","1607","
    <div style=""display: flex; justify-content: center; align-items: center;"">
      <img src=""images/red_deck_2.png"" style=""width: 300px; height: 300px; margin-right: 10px;"" />
      <img src=""images/blue_deck_1.png"" style=""width: 300px; height: 300px;"" />
    </div>","1","1"
"","","","","","html-keyboard-response","81","247683","0.0-81.0-1.0-0.0","9C777ABC0CA34BCC8D0452EF6F542E2A","df816f86-af2c-4382-a300-3324ddd30dc8","683bf07d-1a26-40b1-9cff-5abdc1eed0ee","","null","<div style=""display: flex; justify-content: center; align-items: center;"">
                <img src=""images/semantic/semantic_series_15/semantic_series_15_d.jpg"" style=""width: 300px; height: 300px;"" />
              </div>","null",""
"","","","","","html-keyboard-response","82","250689","0.0-82.0","9C777ABC0CA34BCC8D0452EF6F542E2A","df816f86-af2c-4382-a300-3324ddd30dc8","683bf07d-1a26-40b1-9cff-5abdc1eed0ee","","null","<div style=""display: flex; justify-content: center; align-items: center;"">
                <img src=""images/other/blank.jpg"" style=""width: 300px; height: 300px;"" />
              </div>","null",""
"","","","","","html-keyboard-response","83","253702","0.0-83.0","9C777ABC0CA34BCC8D0452EF6F542E2A","df816f86-af2c-4382-a300-3324ddd30dc8","683bf07d-1a26-40b1-9cff-5abdc1eed0ee","","null","<div style=""display: flex; justify-content: center; align-items: center;"">
                <img src=""images/causal/causal_series_18/causal_series_18_a.jpg"" style=""width: 300px; height: 300px;"" />
              </div>","null",""
"","","","","","html-keyboard-response","84","256706","0.0-84.0","9C777ABC0CA34BCC8D0452EF6F542E2A","df816f86-af2c-4382-a300-3324ddd30dc8","683bf07d-1a26-40b1-9cff-5abdc1eed0ee","","null","<div style=""display: flex; justify-content: center; align-items: center;"">
                <img src=""images/causal/causal_series_18/causal_series_18_b.jpg"" style=""width: 300px; height: 300px;"" />
              </div>","null",""
"","","","","","html-keyboard-response","85","259714","0.0-85.0","9C777ABC0CA34BCC8D0452EF6F542E2A","df816f86-af2c-4382-a300-3324ddd30dc8","683bf07d-1a26-40b1-9cff-5abdc1eed0ee","","null","<div style=""display: flex; justify-content: center; align-items: center;"">
                <img src=""images/causal/causal_series_18/causal_series_18_c.jpg"" style=""width: 300px; height: 300px;"" />
              </div>","null",""
"","","","","","html-button-response","86","263833","0.0-86.0","9C777ABC0CA34BCC8D0452EF6F542E2A","df816f86-af2c-4382-a300-3324ddd30dc8","683bf07d-1a26-40b1-9cff-5abdc1eed0ee","","4119","
    <div style=""display: flex; justify-content: center; align-items: center;"">
      <img src=""images/red_deck_2.png"" style=""width: 300px; height: 300px; margin-right: 10px;"" />
      <img src=""images/blue_deck_1.png"" style=""width: 300px; height: 300px;"" />
    </div>","0","0"
"","","","","","html-keyboard-response","87","266846","0.0-87.0-0.0-0.0","9C777ABC0CA34BCC8D0452EF6F542E2A","df816f86-af2c-4382-a300-3324ddd30dc8","683bf07d-1a26-40b1-9cff-5abdc1eed0ee","","null","<div style=""display: flex; justify-content: center; align-items: center;"">
                <img src=""images/causal/causal_series_18/causal_series_18_d.jpg"" style=""width: 300px; height: 300px;"" />
              </div>","null",""
"","","","","","html-keyboard-response","88","269860","0.0-88.0","9C777ABC0CA34BCC8D0452EF6F542E2A","df816f86-af2c-4382-a300-3324ddd30dc8","683bf07d-1a26-40b1-9cff-5abdc1eed0ee","","null","<div style=""display: flex; justify-content: center; align-items: center;"">
                <img src=""images/other/blank.jpg"" style=""width: 300px; height: 300px;"" />
              </div>","null",""
"","","","","","html-keyboard-response","89","272867","0.0-89.0","9C777ABC0CA34BCC8D0452EF6F542E2A","df816f86-af2c-4382-a300-3324ddd30dc8","683bf07d-1a26-40b1-9cff-5abdc1eed0ee","","null","<div style=""display: flex; justify-content: center; align-items: center;"">
                <img src=""images/causal/causal_series_14/causal_series_14_a.jpg"" style=""width: 300px; height: 300px;"" />
              </div>","null",""
"","","","","","html-keyboard-response","90","275877","0.0-90.0","9C777ABC0CA34BCC8D0452EF6F542E2A","df816f86-af2c-4382-a300-3324ddd30dc8","683bf07d-1a26-40b1-9cff-5abdc1eed0ee","","null","<div style=""display: flex; justify-content: center; align-items: center;"">
                <img src=""images/causal/causal_series_14/causal_series_14_b.jpg"" style=""width: 300px; height: 300px;"" />
              </div>","null",""
"","","","","","html-keyboard-response","91","278889","0.0-91.0","9C777ABC0CA34BCC8D0452EF6F542E2A","df816f86-af2c-4382-a300-3324ddd30dc8","683bf07d-1a26-40b1-9cff-5abdc1eed0ee","","null","<div style=""display: flex; justify-content: center; align-items: center;"">
                <img src=""images/causal/causal_series_14/causal_series_14_c.jpg"" style=""width: 300px; height: 300px;"" />
              </div>","null",""
"","","","","","html-button-response","92","279982","0.0-92.0","9C777ABC0CA34BCC8D0452EF6F542E2A","df816f86-af2c-4382-a300-3324ddd30dc8","683bf07d-1a26-40b1-9cff-5abdc1eed0ee","","1092","
    <div style=""display: flex; justify-content: center; align-items: center;"">
      <img src=""images/red_deck_2.png"" style=""width: 300px; height: 300px; margin-right: 10px;"" />
      <img src=""images/blue_deck_1.png"" style=""width: 300px; height: 300px;"" />
    </div>","1","1"
"","","","","","html-keyboard-response","93","282997","0.0-93.0-1.0-0.0","9C777ABC0CA34BCC8D0452EF6F542E2A","df816f86-af2c-4382-a300-3324ddd30dc8","683bf07d-1a26-40b1-9cff-5abdc1eed0ee","","null","<div style=""display: flex; justify-content: center; align-items: center;"">
                <img src=""images/semantic/semantic_series_13/semantic_series_13_d.jpg"" style=""width: 300px; height: 300px;"" />
              </div>","null",""
"","","","","","html-keyboard-response","94","286003","0.0-94.0","9C777ABC0CA34BCC8D0452EF6F542E2A","df816f86-af2c-4382-a300-3324ddd30dc8","683bf07d-1a26-40b1-9cff-5abdc1eed0ee","","null","<div style=""display: flex; justify-content: center; align-items: center;"">
                <img src=""images/other/blank.jpg"" style=""width: 300px; height: 300px;"" />
              </div>","null",""
"","","","","","html-keyboard-response","95","289015","0.0-95.0","9C777ABC0CA34BCC8D0452EF6F542E2A","df816f86-af2c-4382-a300-3324ddd30dc8","683bf07d-1a26-40b1-9cff-5abdc1eed0ee","","null","<div style=""display: flex; justify-content: center; align-items: center;"">
                <img src=""images/causal/causal_series_12/causal_series_12_a.jpg"" style=""width: 300px; height: 300px;"" />
              </div>","null",""
"","","","","","html-keyboard-response","96","292028","0.0-96.0","9C777ABC0CA34BCC8D0452EF6F542E2A","df816f86-af2c-4382-a300-3324ddd30dc8","683bf07d-1a26-40b1-9cff-5abdc1eed0ee","","null","<div style=""display: flex; justify-content: center; align-items: center;"">
                <img src=""images/causal/causal_series_12/causal_series_12_b.jpg"" style=""width: 300px; height: 300px;"" />
              </div>","null",""
"","","","","","html-keyboard-response","97","295040","0.0-97.0","9C777ABC0CA34BCC8D0452EF6F542E2A","df816f86-af2c-4382-a300-3324ddd30dc8","683bf07d-1a26-40b1-9cff-5abdc1eed0ee","","null","<div style=""display: flex; justify-content: center; align-items: center;"">
                <img src=""images/causal/causal_series_12/causal_series_12_c.jpg"" style=""width: 300px; height: 300px;"" />
              </div>","null",""
"","","","","","html-button-response","98","296106","0.0-98.0","9C777ABC0CA34BCC8D0452EF6F542E2A","df816f86-af2c-4382-a300-3324ddd30dc8","683bf07d-1a26-40b1-9cff-5abdc1eed0ee","","1064","
    <div style=""display: flex; justify-content: center; align-items: center;"">
      <img src=""images/red_deck_2.png"" style=""width: 300px; height: 300px; margin-right: 10px;"" />
      <img src=""images/blue_deck_1.png"" style=""width: 300px; height: 300px;"" />
    </div>","0","0"
"","","","","","html-keyboard-response","99","299119","0.0-99.0-0.0-0.0","9C777ABC0CA34BCC8D0452EF6F542E2A","df816f86-af2c-4382-a300-3324ddd30dc8","683bf07d-1a26-40b1-9cff-5abdc1eed0ee","","null","<div style=""display: flex; justify-content: center; align-items: center;"">
                <img src=""images/causal/causal_series_12/causal_series_12_d.jpg"" style=""width: 300px; height: 300px;"" />
              </div>","null",""
"","","","","","html-keyboard-response","100","302135","0.0-100.0","9C777ABC0CA34BCC8D0452EF6F542E2A","df816f86-af2c-4382-a300-3324ddd30dc8","683bf07d-1a26-40b1-9cff-5abdc1eed0ee","","null","<div style=""display: flex; justify-content: center; align-items: center;"">
                <img src=""images/other/blank.jpg"" style=""width: 300px; height: 300px;"" />
              </div>","null",""
"","","","","","html-keyboard-response","101","305139","0.0-101.0","9C777ABC0CA34BCC8D0452EF6F542E2A","df816f86-af2c-4382-a300-3324ddd30dc8","683bf07d-1a26-40b1-9cff-5abdc1eed0ee","","null","<div style=""display: flex; justify-content: center; align-items: center;"">
                <img src=""images/causal/causal_series_3/causal_series_3_a.jpg"" style=""width: 300px; height: 300px;"" />
              </div>","null",""
"","","","","","html-keyboard-response","102","308153","0.0-102.0","9C777ABC0CA34BCC8D0452EF6F542E2A","df816f86-af2c-4382-a300-3324ddd30dc8","683bf07d-1a26-40b1-9cff-5abdc1eed0ee","","null","<div style=""display: flex; justify-content: center; align-items: center;"">
                <img src=""images/causal/causal_series_3/causal_series_3_b.jpg"" style=""width: 300px; height: 300px;"" />
              </div>","null",""
"","","","","","html-keyboard-response","103","311164","0.0-103.0","9C777ABC0CA34BCC8D0452EF6F542E2A","df816f86-af2c-4382-a300-3324ddd30dc8","683bf07d-1a26-40b1-9cff-5abdc1eed0ee","","null","<div style=""display: flex; justify-content: center; align-items: center;"">
                <img src=""images/causal/causal_series_3/causal_series_3_c.jpg"" style=""width: 300px; height: 300px;"" />
              </div>","null",""
"","","","","","html-button-response","104","312293","0.0-104.0","9C777ABC0CA34BCC8D0452EF6F542E2A","df816f86-af2c-4382-a300-3324ddd30dc8","683bf07d-1a26-40b1-9cff-5abdc1eed0ee","","1129","
    <div style=""display: flex; justify-content: center; align-items: center;"">
      <img src=""images/red_deck_2.png"" style=""width: 300px; height: 300px; margin-right: 10px;"" />
      <img src=""images/blue_deck_1.png"" style=""width: 300px; height: 300px;"" />
    </div>","1","1"
"","","","","","html-keyboard-response","105","315309","0.0-105.0-1.0-0.0","9C777ABC0CA34BCC8D0452EF6F542E2A","df816f86-af2c-4382-a300-3324ddd30dc8","683bf07d-1a26-40b1-9cff-5abdc1eed0ee","","null","<div style=""display: flex; justify-content: center; align-items: center;"">
                <img src=""images/semantic/semantic_series_2/semantic_series_2_d.jpg"" style=""width: 300px; height: 300px;"" />
              </div>","null",""
"","","","","","html-keyboard-response","106","318312","0.0-106.0","9C777ABC0CA34BCC8D0452EF6F542E2A","df816f86-af2c-4382-a300-3324ddd30dc8","683bf07d-1a26-40b1-9cff-5abdc1eed0ee","","null","<div style=""display: flex; justify-content: center; align-items: center;"">
                <img src=""images/other/blank.jpg"" style=""width: 300px; height: 300px;"" />
              </div>","null",""
"","","","","","html-keyboard-response","107","321327","0.0-107.0","9C777ABC0CA34BCC8D0452EF6F542E2A","df816f86-af2c-4382-a300-3324ddd30dc8","683bf07d-1a26-40b1-9cff-5abdc1eed0ee","","null","<div style=""display: flex; justify-content: center; align-items: center;"">
                <img src=""images/causal/causal_series_15/causal_series_15_a.jpg"" style=""width: 300px; height: 300px;"" />
              </div>","null",""
"","","","","","html-keyboard-response","108","324337","0.0-108.0","9C777ABC0CA34BCC8D0452EF6F542E2A","df816f86-af2c-4382-a300-3324ddd30dc8","683bf07d-1a26-40b1-9cff-5abdc1eed0ee","","null","<div style=""display: flex; justify-content: center; align-items: center;"">
                <img src=""images/causal/causal_series_15/causal_series_15_b.jpg"" style=""width: 300px; height: 300px;"" />
              </div>","null",""
"","","","","","html-keyboard-response","109","327342","0.0-109.0","9C777ABC0CA34BCC8D0452EF6F542E2A","df816f86-af2c-4382-a300-3324ddd30dc8","683bf07d-1a26-40b1-9cff-5abdc1eed0ee","","null","<div style=""display: flex; justify-content: center; align-items: center;"">
                <img src=""images/causal/causal_series_15/causal_series_15_c.jpg"" style=""width: 300px; height: 300px;"" />
              </div>","null",""
"","","","","","html-button-response","110","329335","0.0-110.0","9C777ABC0CA34BCC8D0452EF6F542E2A","df816f86-af2c-4382-a300-3324ddd30dc8","683bf07d-1a26-40b1-9cff-5abdc1eed0ee","","1992","
    <div style=""display: flex; justify-content: center; align-items: center;"">
      <img src=""images/red_deck_2.png"" style=""width: 300px; height: 300px; margin-right: 10px;"" />
      <img src=""images/blue_deck_1.png"" style=""width: 300px; height: 300px;"" />
    </div>","1","1"
"","","","","","html-keyboard-response","111","332339","0.0-111.0-1.0-0.0","9C777ABC0CA34BCC8D0452EF6F542E2A","df816f86-af2c-4382-a300-3324ddd30dc8","683bf07d-1a26-40b1-9cff-5abdc1eed0ee","","null","<div style=""display: flex; justify-content: center; align-items: center;"">
                <img src=""images/semantic/semantic_series_14/semantic_series_14_d.jpg"" style=""width: 300px; height: 300px;"" />
              </div>","null",""
"","","","","","html-keyboard-response","112","335348","0.0-112.0","9C777ABC0CA34BCC8D0452EF6F542E2A","df816f86-af2c-4382-a300-3324ddd30dc8","683bf07d-1a26-40b1-9cff-5abdc1eed0ee","","null","<div style=""display: flex; justify-content: center; align-items: center;"">
                <img src=""images/other/blank.jpg"" style=""width: 300px; height: 300px;"" />
              </div>","null",""
"","","","","","survey-text","113","375444","0.0-113.0","9C777ABC0CA34BCC8D0452EF6F542E2A","df816f86-af2c-4382-a300-3324ddd30dc8","683bf07d-1a26-40b1-9cff-5abdc1eed0ee","","40092","","{""Q0"":""The two decks of cards differ in color and in the outcome of the series of pictures""}",""
"","","","","","survey-text","114","387783","0.0-114.0","9C777ABC0CA34BCC8D0452EF6F542E2A","df816f86-af2c-4382-a300-3324ddd30dc8","683bf07d-1a26-40b1-9cff-5abdc1eed0ee","","12337","","{""Q0"":""Both seem to be interesting to me""}",""
"","","","","","html-button-response","115","392722","0.0-115.0","9C777ABC0CA34BCC8D0452EF6F542E2A","df816f86-af2c-4382-a300-3324ddd30dc8","683bf07d-1a26-40b1-9cff-5abdc1eed0ee","","4939","Which color deck does the fourth image continue the story from the series?","1",""
"","","","","","html-button-response","116","395998","0.0-116.0","9C777ABC0CA34BCC8D0452EF6F542E2A","df816f86-af2c-4382-a300-3324ddd30dc8","683bf07d-1a26-40b1-9cff-5abdc1eed0ee","","3275","Which color deck does the fourth image not follow the story from the series?","0",""
"","","","","","survey-text","117","401918","0.0-117.0","9C777ABC0CA34BCC8D0452EF6F542E2A","df816f86-af2c-4382-a300-3324ddd30dc8","683bf07d-1a26-40b1-9cff-5abdc1eed0ee","","5918","","{""Q0"":""FEMALE"",""Q1"":""26""}",""
"","","","","","instructions","118","415460","0.0-118.0","9C777ABC0CA34BCC8D0452EF6F542E2A","df816f86-af2c-4382-a300-3324ddd30dc8","683bf07d-1a26-40b1-9cff-5abdc1eed0ee","[{""page_index"":0,""viewing_time"":13542}]","13542","","",""
