"success","timeout","failed_images","failed_audio","failed_video","trial_type","trial_index","time_elapsed","internal_node_id","subject_id","study_id","session_id","view_history","rt","stimulus","response","choice"
"true","false","[]","[]","[]","preload","0","3633","0.0-0.0","399CA1E5B1EA49C985BC393B7062154D","46e54245-3ec1-4975-95a4-fbada248f6d8","683bf07d-1a26-40b1-9cff-5abdc1eed0ee","","","","",""
"","","","","","instructions","1","5123","0.0-1.0","399CA1E5B1EA49C985BC393B7062154D","46e54245-3ec1-4975-95a4-fbada248f6d8","683bf07d-1a26-40b1-9cff-5abdc1eed0ee","[{""page_index"":0,""viewing_time"":1489}]","1490","","",""
"","","","","","instructions","2","7801","0.0-2.0","399CA1E5B1EA49C985BC393B7062154D","46e54245-3ec1-4975-95a4-fbada248f6d8","683bf07d-1a26-40b1-9cff-5abdc1eed0ee","[{""page_index"":0,""viewing_time"":2678}]","2678","","",""
"true","","","","","fullscreen","3","10374","0.0-3.0","399CA1E5B1EA49C985BC393B7062154D","46e54245-3ec1-4975-95a4-fbada248f6d8","683bf07d-1a26-40b1-9cff-5abdc1eed0ee","","1570","","",""
"","","","","","instructions","4","15223","0.0-4.0","399CA1E5B1EA49C985BC393B7062154D","46e54245-3ec1-4975-95a4-fbada248f6d8","683bf07d-1a26-40b1-9cff-5abdc1eed0ee","[{""page_index"":0,""viewing_time"":4847}]","4848","","",""
"","","","","","html-keyboard-response","5","18225","0.0-5.0","399CA1E5B1EA49C985BC393B7062154D","46e54245-3ec1-4975-95a4-fbada248f6d8","683bf07d-1a26-40b1-9cff-5abdc1eed0ee","","null","<div style=""display: flex; justify-content: center; align-items: center;"">
                <img src=""images/causal/causal_series_11/causal_series_11_a.jpg"" style=""width: 300px; height: 300px;"" />
              </div>","null",""
"","","","","","html-keyboard-response","6","21228","0.0-6.0","399CA1E5B1EA49C985BC393B7062154D","46e54245-3ec1-4975-95a4-fbada248f6d8","683bf07d-1a26-40b1-9cff-5abdc1eed0ee","","null","<div style=""display: flex; justify-content: center; align-items: center;"">
                <img src=""images/causal/causal_series_11/causal_series_11_b.jpg"" style=""width: 300px; height: 300px;"" />
              </div>","null",""
"","","","","","html-keyboard-response","7","24231","0.0-7.0","399CA1E5B1EA49C985BC393B7062154D","46e54245-3ec1-4975-95a4-fbada248f6d8","683bf07d-1a26-40b1-9cff-5abdc1eed0ee","","null","<div style=""display: flex; justify-content: center; align-items: center;"">
                <img src=""images/causal/causal_series_11/causal_series_11_c.jpg"" style=""width: 300px; height: 300px;"" />
              </div>","null",""
"","","","","","html-button-response","8","26343","0.0-8.0","399CA1E5B1EA49C985BC393B7062154D","46e54245-3ec1-4975-95a4-fbada248f6d8","683bf07d-1a26-40b1-9cff-5abdc1eed0ee","","2111","
    <div style=""display: flex; justify-content: center; align-items: center;"">
      <img src=""images/red_deck_2.png"" style=""width: 300px; height: 300px; margin-right: 10px;"" />
      <img src=""images/blue_deck_1.png"" style=""width: 300px; height: 300px;"" />
    </div>","0","0"
"","","","","","html-keyboard-response","9","29346","0.0-9.0-0.0-0.0","399CA1E5B1EA49C985BC393B7062154D","46e54245-3ec1-4975-95a4-fbada248f6d8","683bf07d-1a26-40b1-9cff-5abdc1eed0ee","","null","<div style=""display: flex; justify-content: center; align-items: center;"">
                <img src=""images/causal/causal_series_11/causal_series_11_d.jpg"" style=""width: 300px; height: 300px;"" />
              </div>","null",""
"","","","","","html-keyboard-response","10","32349","0.0-10.0","399CA1E5B1EA49C985BC393B7062154D","46e54245-3ec1-4975-95a4-fbada248f6d8","683bf07d-1a26-40b1-9cff-5abdc1eed0ee","","null","<div style=""display: flex; justify-content: center; align-items: center;"">
                <img src=""images/other/blank.jpg"" style=""width: 300px; height: 300px;"" />
              </div>","null",""
"","","","","","html-keyboard-response","11","35352","0.0-11.0","399CA1E5B1EA49C985BC393B7062154D","46e54245-3ec1-4975-95a4-fbada248f6d8","683bf07d-1a26-40b1-9cff-5abdc1eed0ee","","null","<div style=""display: flex; justify-content: center; align-items: center;"">
                <img src=""images/causal/causal_series_1/causal_series_1_a.jpg"" style=""width: 300px; height: 300px;"" />
              </div>","null",""
"","","","","","html-keyboard-response","12","38355","0.0-12.0","399CA1E5B1EA49C985BC393B7062154D","46e54245-3ec1-4975-95a4-fbada248f6d8","683bf07d-1a26-40b1-9cff-5abdc1eed0ee","","null","<div style=""display: flex; justify-content: center; align-items: center;"">
                <img src=""images/causal/causal_series_1/causal_series_1_b.jpg"" style=""width: 300px; height: 300px;"" />
              </div>","null",""
"","","","","","html-keyboard-response","13","41357","0.0-13.0","399CA1E5B1EA49C985BC393B7062154D","46e54245-3ec1-4975-95a4-fbada248f6d8","683bf07d-1a26-40b1-9cff-5abdc1eed0ee","","null","<div style=""display: flex; justify-content: center; align-items: center;"">
                <img src=""images/causal/causal_series_1/causal_series_1_c.jpg"" style=""width: 300px; height: 300px;"" />
              </div>","null",""
"","","","","","html-button-response","14","42714","0.0-14.0","399CA1E5B1EA49C985BC393B7062154D","46e54245-3ec1-4975-95a4-fbada248f6d8","683bf07d-1a26-40b1-9cff-5abdc1eed0ee","","1355","
    <div style=""display: flex; justify-content: center; align-items: center;"">
      <img src=""images/red_deck_2.png"" style=""width: 300px; height: 300px; margin-right: 10px;"" />
      <img src=""images/blue_deck_1.png"" style=""width: 300px; height: 300px;"" />
    </div>","1","1"
"","","","","","html-keyboard-response","15","45716","0.0-15.0-1.0-0.0","399CA1E5B1EA49C985BC393B7062154D","46e54245-3ec1-4975-95a4-fbada248f6d8","683bf07d-1a26-40b1-9cff-5abdc1eed0ee","","null","<div style=""display: flex; justify-content: center; align-items: center;"">
                <img src=""images/semantic/semantic_series_18/semantic_series_18_d.jpg"" style=""width: 300px; height: 300px;"" />
              </div>","null",""
"","","","","","html-keyboard-response","16","48719","0.0-16.0","399CA1E5B1EA49C985BC393B7062154D","46e54245-3ec1-4975-95a4-fbada248f6d8","683bf07d-1a26-40b1-9cff-5abdc1eed0ee","","null","<div style=""display: flex; justify-content: center; align-items: center;"">
                <img src=""images/other/blank.jpg"" style=""width: 300px; height: 300px;"" />
              </div>","null",""
"","","","","","html-keyboard-response","17","51721","0.0-17.0","399CA1E5B1EA49C985BC393B7062154D","46e54245-3ec1-4975-95a4-fbada248f6d8","683bf07d-1a26-40b1-9cff-5abdc1eed0ee","","null","<div style=""display: flex; justify-content: center; align-items: center;"">
                <img src=""images/causal/causal_series_17/causal_series_17_a.jpg"" style=""width: 300px; height: 300px;"" />
              </div>","null",""
"","","","","","html-keyboard-response","18","54724","0.0-18.0","399CA1E5B1EA49C985BC393B7062154D","46e54245-3ec1-4975-95a4-fbada248f6d8","683bf07d-1a26-40b1-9cff-5abdc1eed0ee","","null","<div style=""display: flex; justify-content: center; align-items: center;"">
                <img src=""images/causal/causal_series_17/causal_series_17_b.jpg"" style=""width: 300px; height: 300px;"" />
              </div>","null",""
"","","","","","html-keyboard-response","19","57724","0.0-19.0","399CA1E5B1EA49C985BC393B7062154D","46e54245-3ec1-4975-95a4-fbada248f6d8","683bf07d-1a26-40b1-9cff-5abdc1eed0ee","","null","<div style=""display: flex; justify-content: center; align-items: center;"">
                <img src=""images/causal/causal_series_17/causal_series_17_c.jpg"" style=""width: 300px; height: 300px;"" />
              </div>","null",""
"","","","","","html-button-response","20","58464","0.0-20.0","399CA1E5B1EA49C985BC393B7062154D","46e54245-3ec1-4975-95a4-fbada248f6d8","683bf07d-1a26-40b1-9cff-5abdc1eed0ee","","738","
    <div style=""display: flex; justify-content: center; align-items: center;"">
      <img src=""images/red_deck_2.png"" style=""width: 300px; height: 300px; margin-right: 10px;"" />
      <img src=""images/blue_deck_1.png"" style=""width: 300px; height: 300px;"" />
    </div>","0","0"
"","","","","","html-keyboard-response","21","61466","0.0-21.0-0.0-0.0","399CA1E5B1EA49C985BC393B7062154D","46e54245-3ec1-4975-95a4-fbada248f6d8","683bf07d-1a26-40b1-9cff-5abdc1eed0ee","","null","<div style=""display: flex; justify-content: center; align-items: center;"">
                <img src=""images/causal/causal_series_17/causal_series_17_d.jpg"" style=""width: 300px; height: 300px;"" />
              </div>","null",""
"","","","","","html-keyboard-response","22","64469","0.0-22.0","399CA1E5B1EA49C985BC393B7062154D","46e54245-3ec1-4975-95a4-fbada248f6d8","683bf07d-1a26-40b1-9cff-5abdc1eed0ee","","null","<div style=""display: flex; justify-content: center; align-items: center;"">
                <img src=""images/other/blank.jpg"" style=""width: 300px; height: 300px;"" />
              </div>","null",""
"","","","","","html-keyboard-response","23","67472","0.0-23.0","399CA1E5B1EA49C985BC393B7062154D","46e54245-3ec1-4975-95a4-fbada248f6d8","683bf07d-1a26-40b1-9cff-5abdc1eed0ee","","null","<div style=""display: flex; justify-content: center; align-items: center;"">
                <img src=""images/causal/causal_series_5/causal_series_5_a.jpg"" style=""width: 300px; height: 300px;"" />
              </div>","null",""
"","","","","","html-keyboard-response","24","70474","0.0-24.0","399CA1E5B1EA49C985BC393B7062154D","46e54245-3ec1-4975-95a4-fbada248f6d8","683bf07d-1a26-40b1-9cff-5abdc1eed0ee","","null","<div style=""display: flex; justify-content: center; align-items: center;"">
                <img src=""images/causal/causal_series_5/causal_series_5_b.jpg"" style=""width: 300px; height: 300px;"" />
              </div>","null",""
"","","","","","html-keyboard-response","25","73476","0.0-25.0","399CA1E5B1EA49C985BC393B7062154D","46e54245-3ec1-4975-95a4-fbada248f6d8","683bf07d-1a26-40b1-9cff-5abdc1eed0ee","","null","<div style=""display: flex; justify-content: center; align-items: center;"">
                <img src=""images/causal/causal_series_5/causal_series_5_c.jpg"" style=""width: 300px; height: 300px;"" />
              </div>","null",""
"","","","","","html-button-response","26","74963","0.0-26.0","399CA1E5B1EA49C985BC393B7062154D","46e54245-3ec1-4975-95a4-fbada248f6d8","683bf07d-1a26-40b1-9cff-5abdc1eed0ee","","1486","
    <div style=""display: flex; justify-content: center; align-items: center;"">
      <img src=""images/red_deck_2.png"" style=""width: 300px; height: 300px; margin-right: 10px;"" />
      <img src=""images/blue_deck_1.png"" style=""width: 300px; height: 300px;"" />
    </div>","0","0"
"","","","","","html-keyboard-response","27","77966","0.0-27.0-0.0-0.0","399CA1E5B1EA49C985BC393B7062154D","46e54245-3ec1-4975-95a4-fbada248f6d8","683bf07d-1a26-40b1-9cff-5abdc1eed0ee","","null","<div style=""display: flex; justify-content: center; align-items: center;"">
                <img src=""images/causal/causal_series_5/causal_series_5_d.jpg"" style=""width: 300px; height: 300px;"" />
              </div>","null",""
"","","","","","html-keyboard-response","28","80968","0.0-28.0","399CA1E5B1EA49C985BC393B7062154D","46e54245-3ec1-4975-95a4-fbada248f6d8","683bf07d-1a26-40b1-9cff-5abdc1eed0ee","","null","<div style=""display: flex; justify-content: center; align-items: center;"">
                <img src=""images/other/blank.jpg"" style=""width: 300px; height: 300px;"" />
              </div>","null",""
"","","","","","html-keyboard-response","29","83970","0.0-29.0","399CA1E5B1EA49C985BC393B7062154D","46e54245-3ec1-4975-95a4-fbada248f6d8","683bf07d-1a26-40b1-9cff-5abdc1eed0ee","","null","<div style=""display: flex; justify-content: center; align-items: center;"">
                <img src=""images/causal/causal_series_10/causal_series_10_a.jpg"" style=""width: 300px; height: 300px;"" />
              </div>","null",""
"","","","","","html-keyboard-response","30","86972","0.0-30.0","399CA1E5B1EA49C985BC393B7062154D","46e54245-3ec1-4975-95a4-fbada248f6d8","683bf07d-1a26-40b1-9cff-5abdc1eed0ee","","null","<div style=""display: flex; justify-content: center; align-items: center;"">
                <img src=""images/causal/causal_series_10/causal_series_10_b.jpg"" style=""width: 300px; height: 300px;"" />
              </div>","null",""
"","","","","","html-keyboard-response","31","89973","0.0-31.0","399CA1E5B1EA49C985BC393B7062154D","46e54245-3ec1-4975-95a4-fbada248f6d8","683bf07d-1a26-40b1-9cff-5abdc1eed0ee","","null","<div style=""display: flex; justify-content: center; align-items: center;"">
                <img src=""images/causal/causal_series_10/causal_series_10_c.jpg"" style=""width: 300px; height: 300px;"" />
              </div>","null",""
"","","","","","html-button-response","32","91646","0.0-32.0","399CA1E5B1EA49C985BC393B7062154D","46e54245-3ec1-4975-95a4-fbada248f6d8","683bf07d-1a26-40b1-9cff-5abdc1eed0ee","","1671","
    <div style=""display: flex; justify-content: center; align-items: center;"">
      <img src=""images/red_deck_2.png"" style=""width: 300px; height: 300px; margin-right: 10px;"" />
      <img src=""images/blue_deck_1.png"" style=""width: 300px; height: 300px;"" />
    </div>","1","1"
"","","","","","html-keyboard-response","33","94648","0.0-33.0-1.0-0.0","399CA1E5B1EA49C985BC393B7062154D","46e54245-3ec1-4975-95a4-fbada248f6d8","683bf07d-1a26-40b1-9cff-5abdc1eed0ee","","null","<div style=""display: flex; justify-content: center; align-items: center;"">
                <img src=""images/semantic/semantic_series_9/semantic_series_9_d.jpg"" style=""width: 300px; height: 300px;"" />
              </div>","null",""
"","","","","","html-keyboard-response","34","97650","0.0-34.0","399CA1E5B1EA49C985BC393B7062154D","46e54245-3ec1-4975-95a4-fbada248f6d8","683bf07d-1a26-40b1-9cff-5abdc1eed0ee","","null","<div style=""display: flex; justify-content: center; align-items: center;"">
                <img src=""images/other/blank.jpg"" style=""width: 300px; height: 300px;"" />
              </div>","null",""
"","","","","","html-keyboard-response","35","100653","0.0-35.0","399CA1E5B1EA49C985BC393B7062154D","46e54245-3ec1-4975-95a4-fbada248f6d8","683bf07d-1a26-40b1-9cff-5abdc1eed0ee","","null","<div style=""display: flex; justify-content: center; align-items: center;"">
                <img src=""images/causal/causal_series_18/causal_series_18_a.jpg"" style=""width: 300px; height: 300px;"" />
              </div>","null",""
"","","","","","html-keyboard-response","36","103656","0.0-36.0","399CA1E5B1EA49C985BC393B7062154D","46e54245-3ec1-4975-95a4-fbada248f6d8","683bf07d-1a26-40b1-9cff-5abdc1eed0ee","","null","<div style=""display: flex; justify-content: center; align-items: center;"">
                <img src=""images/causal/causal_series_18/causal_series_18_b.jpg"" style=""width: 300px; height: 300px;"" />
              </div>","null",""
"","","","","","html-keyboard-response","37","106659","0.0-37.0","399CA1E5B1EA49C985BC393B7062154D","46e54245-3ec1-4975-95a4-fbada248f6d8","683bf07d-1a26-40b1-9cff-5abdc1eed0ee","","null","<div style=""display: flex; justify-content: center; align-items: center;"">
                <img src=""images/causal/causal_series_18/causal_series_18_c.jpg"" style=""width: 300px; height: 300px;"" />
              </div>","null",""
"","","","","","html-button-response","38","108449","0.0-38.0","399CA1E5B1EA49C985BC393B7062154D","46e54245-3ec1-4975-95a4-fbada248f6d8","683bf07d-1a26-40b1-9cff-5abdc1eed0ee","","1789","
    <div style=""display: flex; justify-content: center; align-items: center;"">
      <img src=""images/red_deck_2.png"" style=""width: 300px; height: 300px; margin-right: 10px;"" />
      <img src=""images/blue_deck_1.png"" style=""width: 300px; height: 300px;"" />
    </div>","0","0"
"","","","","","html-keyboard-response","39","111451","0.0-39.0-0.0-0.0","399CA1E5B1EA49C985BC393B7062154D","46e54245-3ec1-4975-95a4-fbada248f6d8","683bf07d-1a26-40b1-9cff-5abdc1eed0ee","","null","<div style=""display: flex; justify-content: center; align-items: center;"">
                <img src=""images/causal/causal_series_18/causal_series_18_d.jpg"" style=""width: 300px; height: 300px;"" />
              </div>","null",""
"","","","","","html-keyboard-response","40","114453","0.0-40.0","399CA1E5B1EA49C985BC393B7062154D","46e54245-3ec1-4975-95a4-fbada248f6d8","683bf07d-1a26-40b1-9cff-5abdc1eed0ee","","null","<div style=""display: flex; justify-content: center; align-items: center;"">
                <img src=""images/other/blank.jpg"" style=""width: 300px; height: 300px;"" />
              </div>","null",""
"","","","","","html-keyboard-response","41","117455","0.0-41.0","399CA1E5B1EA49C985BC393B7062154D","46e54245-3ec1-4975-95a4-fbada248f6d8","683bf07d-1a26-40b1-9cff-5abdc1eed0ee","","null","<div style=""display: flex; justify-content: center; align-items: center;"">
                <img src=""images/causal/causal_series_12/causal_series_12_a.jpg"" style=""width: 300px; height: 300px;"" />
              </div>","null",""
"","","","","","html-keyboard-response","42","120458","0.0-42.0","399CA1E5B1EA49C985BC393B7062154D","46e54245-3ec1-4975-95a4-fbada248f6d8","683bf07d-1a26-40b1-9cff-5abdc1eed0ee","","null","<div style=""display: flex; justify-content: center; align-items: center;"">
                <img src=""images/causal/causal_series_12/causal_series_12_b.jpg"" style=""width: 300px; height: 300px;"" />
              </div>","null",""
"","","","","","html-keyboard-response","43","123461","0.0-43.0","399CA1E5B1EA49C985BC393B7062154D","46e54245-3ec1-4975-95a4-fbada248f6d8","683bf07d-1a26-40b1-9cff-5abdc1eed0ee","","null","<div style=""display: flex; justify-content: center; align-items: center;"">
                <img src=""images/causal/causal_series_12/causal_series_12_c.jpg"" style=""width: 300px; height: 300px;"" />
              </div>","null",""
"","","","","","html-button-response","44","125618","0.0-44.0","399CA1E5B1EA49C985BC393B7062154D","46e54245-3ec1-4975-95a4-fbada248f6d8","683bf07d-1a26-40b1-9cff-5abdc1eed0ee","","2156","
    <div style=""display: flex; justify-content: center; align-items: center;"">
      <img src=""images/red_deck_2.png"" style=""width: 300px; height: 300px; margin-right: 10px;"" />
      <img src=""images/blue_deck_1.png"" style=""width: 300px; height: 300px;"" />
    </div>","1","1"
"","","","","","html-keyboard-response","45","128620","0.0-45.0-1.0-0.0","399CA1E5B1EA49C985BC393B7062154D","46e54245-3ec1-4975-95a4-fbada248f6d8","683bf07d-1a26-40b1-9cff-5abdc1eed0ee","","null","<div style=""display: flex; justify-content: center; align-items: center;"">
                <img src=""images/semantic/semantic_series_11/semantic_series_11_d.jpg"" style=""width: 300px; height: 300px;"" />
              </div>","null",""
"","","","","","html-keyboard-response","46","131621","0.0-46.0","399CA1E5B1EA49C985BC393B7062154D","46e54245-3ec1-4975-95a4-fbada248f6d8","683bf07d-1a26-40b1-9cff-5abdc1eed0ee","","null","<div style=""display: flex; justify-content: center; align-items: center;"">
                <img src=""images/other/blank.jpg"" style=""width: 300px; height: 300px;"" />
              </div>","null",""
"","","","","","html-keyboard-response","47","134623","0.0-47.0","399CA1E5B1EA49C985BC393B7062154D","46e54245-3ec1-4975-95a4-fbada248f6d8","683bf07d-1a26-40b1-9cff-5abdc1eed0ee","","null","<div style=""display: flex; justify-content: center; align-items: center;"">
                <img src=""images/causal/causal_series_2/causal_series_2_a.jpg"" style=""width: 300px; height: 300px;"" />
              </div>","null",""
"","","","","","html-keyboard-response","48","137624","0.0-48.0","399CA1E5B1EA49C985BC393B7062154D","46e54245-3ec1-4975-95a4-fbada248f6d8","683bf07d-1a26-40b1-9cff-5abdc1eed0ee","","null","<div style=""display: flex; justify-content: center; align-items: center;"">
                <img src=""images/causal/causal_series_2/causal_series_2_b.jpg"" style=""width: 300px; height: 300px;"" />
              </div>","null",""
"","","","","","html-keyboard-response","49","140626","0.0-49.0","399CA1E5B1EA49C985BC393B7062154D","46e54245-3ec1-4975-95a4-fbada248f6d8","683bf07d-1a26-40b1-9cff-5abdc1eed0ee","","null","<div style=""display: flex; justify-content: center; align-items: center;"">
                <img src=""images/causal/causal_series_2/causal_series_2_c.jpg"" style=""width: 300px; height: 300px;"" />
              </div>","null",""
"","","","","","html-button-response","50","142914","0.0-50.0","399CA1E5B1EA49C985BC393B7062154D","46e54245-3ec1-4975-95a4-fbada248f6d8","683bf07d-1a26-40b1-9cff-5abdc1eed0ee","","2287","
    <div style=""display: flex; justify-content: center; align-items: center;"">
      <img src=""images/red_deck_2.png"" style=""width: 300px; height: 300px; margin-right: 10px;"" />
      <img src=""images/blue_deck_1.png"" style=""width: 300px; height: 300px;"" />
    </div>","1","1"
"","","","","","html-keyboard-response","51","145916","0.0-51.0-1.0-0.0","399CA1E5B1EA49C985BC393B7062154D","46e54245-3ec1-4975-95a4-fbada248f6d8","683bf07d-1a26-40b1-9cff-5abdc1eed0ee","","null","<div style=""display: flex; justify-content: center; align-items: center;"">
                <img src=""images/semantic/semantic_series_1/semantic_series_1_d.jpg"" style=""width: 300px; height: 300px;"" />
              </div>","null",""
"","","","","","html-keyboard-response","52","148918","0.0-52.0","399CA1E5B1EA49C985BC393B7062154D","46e54245-3ec1-4975-95a4-fbada248f6d8","683bf07d-1a26-40b1-9cff-5abdc1eed0ee","","null","<div style=""display: flex; justify-content: center; align-items: center;"">
                <img src=""images/other/blank.jpg"" style=""width: 300px; height: 300px;"" />
              </div>","null",""
"","","","","","html-keyboard-response","53","151920","0.0-53.0","399CA1E5B1EA49C985BC393B7062154D","46e54245-3ec1-4975-95a4-fbada248f6d8","683bf07d-1a26-40b1-9cff-5abdc1eed0ee","","null","<div style=""display: flex; justify-content: center; align-items: center;"">
                <img src=""images/causal/causal_series_16/causal_series_16_a.jpg"" style=""width: 300px; height: 300px;"" />
              </div>","null",""
"","","","","","html-keyboard-response","54","154922","0.0-54.0","399CA1E5B1EA49C985BC393B7062154D","46e54245-3ec1-4975-95a4-fbada248f6d8","683bf07d-1a26-40b1-9cff-5abdc1eed0ee","","null","<div style=""display: flex; justify-content: center; align-items: center;"">
                <img src=""images/causal/causal_series_16/causal_series_16_b.jpg"" style=""width: 300px; height: 300px;"" />
              </div>","null",""
"","","","","","html-keyboard-response","55","157925","0.0-55.0","399CA1E5B1EA49C985BC393B7062154D","46e54245-3ec1-4975-95a4-fbada248f6d8","683bf07d-1a26-40b1-9cff-5abdc1eed0ee","","null","<div style=""display: flex; justify-content: center; align-items: center;"">
                <img src=""images/causal/causal_series_16/causal_series_16_c.jpg"" style=""width: 300px; height: 300px;"" />
              </div>","null",""
"","","","","","html-button-response","56","158525","0.0-56.0","399CA1E5B1EA49C985BC393B7062154D","46e54245-3ec1-4975-95a4-fbada248f6d8","683bf07d-1a26-40b1-9cff-5abdc1eed0ee","","599","
    <div style=""display: flex; justify-content: center; align-items: center;"">
      <img src=""images/red_deck_2.png"" style=""width: 300px; height: 300px; margin-right: 10px;"" />
      <img src=""images/blue_deck_1.png"" style=""width: 300px; height: 300px;"" />
    </div>","0","0"
"","","","","","html-keyboard-response","57","161528","0.0-57.0-0.0-0.0","399CA1E5B1EA49C985BC393B7062154D","46e54245-3ec1-4975-95a4-fbada248f6d8","683bf07d-1a26-40b1-9cff-5abdc1eed0ee","","null","<div style=""display: flex; justify-content: center; align-items: center;"">
                <img src=""images/causal/causal_series_16/causal_series_16_d.jpg"" style=""width: 300px; height: 300px;"" />
              </div>","null",""
"","","","","","html-keyboard-response","58","164530","0.0-58.0","399CA1E5B1EA49C985BC393B7062154D","46e54245-3ec1-4975-95a4-fbada248f6d8","683bf07d-1a26-40b1-9cff-5abdc1eed0ee","","null","<div style=""display: flex; justify-content: center; align-items: center;"">
                <img src=""images/other/blank.jpg"" style=""width: 300px; height: 300px;"" />
              </div>","null",""
"","","","","","html-keyboard-response","59","167532","0.0-59.0","399CA1E5B1EA49C985BC393B7062154D","46e54245-3ec1-4975-95a4-fbada248f6d8","683bf07d-1a26-40b1-9cff-5abdc1eed0ee","","null","<div style=""display: flex; justify-content: center; align-items: center;"">
                <img src=""images/causal/causal_series_14/causal_series_14_a.jpg"" style=""width: 300px; height: 300px;"" />
              </div>","null",""
"","","","","","html-keyboard-response","60","170535","0.0-60.0","399CA1E5B1EA49C985BC393B7062154D","46e54245-3ec1-4975-95a4-fbada248f6d8","683bf07d-1a26-40b1-9cff-5abdc1eed0ee","","null","<div style=""display: flex; justify-content: center; align-items: center;"">
                <img src=""images/causal/causal_series_14/causal_series_14_b.jpg"" style=""width: 300px; height: 300px;"" />
              </div>","null",""
"","","","","","html-keyboard-response","61","173537","0.0-61.0","399CA1E5B1EA49C985BC393B7062154D","46e54245-3ec1-4975-95a4-fbada248f6d8","683bf07d-1a26-40b1-9cff-5abdc1eed0ee","","null","<div style=""display: flex; justify-content: center; align-items: center;"">
                <img src=""images/causal/causal_series_14/causal_series_14_c.jpg"" style=""width: 300px; height: 300px;"" />
              </div>","null",""
"","","","","","html-button-response","62","175179","0.0-62.0","399CA1E5B1EA49C985BC393B7062154D","46e54245-3ec1-4975-95a4-fbada248f6d8","683bf07d-1a26-40b1-9cff-5abdc1eed0ee","","1641","
    <div style=""display: flex; justify-content: center; align-items: center;"">
      <img src=""images/red_deck_2.png"" style=""width: 300px; height: 300px; margin-right: 10px;"" />
      <img src=""images/blue_deck_1.png"" style=""width: 300px; height: 300px;"" />
    </div>","0","0"
"","","","","","html-keyboard-response","63","178182","0.0-63.0-0.0-0.0","399CA1E5B1EA49C985BC393B7062154D","46e54245-3ec1-4975-95a4-fbada248f6d8","683bf07d-1a26-40b1-9cff-5abdc1eed0ee","","null","<div style=""display: flex; justify-content: center; align-items: center;"">
                <img src=""images/causal/causal_series_14/causal_series_14_d.jpg"" style=""width: 300px; height: 300px;"" />
              </div>","null",""
"","","","","","html-keyboard-response","64","181184","0.0-64.0","399CA1E5B1EA49C985BC393B7062154D","46e54245-3ec1-4975-95a4-fbada248f6d8","683bf07d-1a26-40b1-9cff-5abdc1eed0ee","","null","<div style=""display: flex; justify-content: center; align-items: center;"">
                <img src=""images/other/blank.jpg"" style=""width: 300px; height: 300px;"" />
              </div>","null",""
"","","","","","html-keyboard-response","65","184186","0.0-65.0","399CA1E5B1EA49C985BC393B7062154D","46e54245-3ec1-4975-95a4-fbada248f6d8","683bf07d-1a26-40b1-9cff-5abdc1eed0ee","","null","<div style=""display: flex; justify-content: center; align-items: center;"">
                <img src=""images/causal/causal_series_3/causal_series_3_a.jpg"" style=""width: 300px; height: 300px;"" />
              </div>","null",""
"","","","","","html-keyboard-response","66","187188","0.0-66.0","399CA1E5B1EA49C985BC393B7062154D","46e54245-3ec1-4975-95a4-fbada248f6d8","683bf07d-1a26-40b1-9cff-5abdc1eed0ee","","null","<div style=""display: flex; justify-content: center; align-items: center;"">
                <img src=""images/causal/causal_series_3/causal_series_3_b.jpg"" style=""width: 300px; height: 300px;"" />
              </div>","null",""
"","","","","","html-keyboard-response","67","190190","0.0-67.0","399CA1E5B1EA49C985BC393B7062154D","46e54245-3ec1-4975-95a4-fbada248f6d8","683bf07d-1a26-40b1-9cff-5abdc1eed0ee","","null","<div style=""display: flex; justify-content: center; align-items: center;"">
                <img src=""images/causal/causal_series_3/causal_series_3_c.jpg"" style=""width: 300px; height: 300px;"" />
              </div>","null",""
"","","","","","html-button-response","68","191475","0.0-68.0","399CA1E5B1EA49C985BC393B7062154D","46e54245-3ec1-4975-95a4-fbada248f6d8","683bf07d-1a26-40b1-9cff-5abdc1eed0ee","","1284","
    <div style=""display: flex; justify-content: center; align-items: center;"">
      <img src=""images/red_deck_2.png"" style=""width: 300px; height: 300px; margin-right: 10px;"" />
      <img src=""images/blue_deck_1.png"" style=""width: 300px; height: 300px;"" />
    </div>","1","1"
"","","","","","html-keyboard-response","69","194477","0.0-69.0-1.0-0.0","399CA1E5B1EA49C985BC393B7062154D","46e54245-3ec1-4975-95a4-fbada248f6d8","683bf07d-1a26-40b1-9cff-5abdc1eed0ee","","null","<div style=""display: flex; justify-content: center; align-items: center;"">
                <img src=""images/semantic/semantic_series_2/semantic_series_2_d.jpg"" style=""width: 300px; height: 300px;"" />
              </div>","null",""
"","","","","","html-keyboard-response","70","197480","0.0-70.0","399CA1E5B1EA49C985BC393B7062154D","46e54245-3ec1-4975-95a4-fbada248f6d8","683bf07d-1a26-40b1-9cff-5abdc1eed0ee","","null","<div style=""display: flex; justify-content: center; align-items: center;"">
                <img src=""images/other/blank.jpg"" style=""width: 300px; height: 300px;"" />
              </div>","null",""
"","","","","","html-keyboard-response","71","200482","0.0-71.0","399CA1E5B1EA49C985BC393B7062154D","46e54245-3ec1-4975-95a4-fbada248f6d8","683bf07d-1a26-40b1-9cff-5abdc1eed0ee","","null","<div style=""display: flex; justify-content: center; align-items: center;"">
                <img src=""images/causal/causal_series_7/causal_series_7_a.jpg"" style=""width: 300px; height: 300px;"" />
              </div>","null",""
"","","","","","html-keyboard-response","72","203484","0.0-72.0","399CA1E5B1EA49C985BC393B7062154D","46e54245-3ec1-4975-95a4-fbada248f6d8","683bf07d-1a26-40b1-9cff-5abdc1eed0ee","","null","<div style=""display: flex; justify-content: center; align-items: center;"">
                <img src=""images/causal/causal_series_7/causal_series_7_b.jpg"" style=""width: 300px; height: 300px;"" />
              </div>","null",""
"","","","","","html-keyboard-response","73","206486","0.0-73.0","399CA1E5B1EA49C985BC393B7062154D","46e54245-3ec1-4975-95a4-fbada248f6d8","683bf07d-1a26-40b1-9cff-5abdc1eed0ee","","null","<div style=""display: flex; justify-content: center; align-items: center;"">
                <img src=""images/causal/causal_series_7/causal_series_7_c.jpg"" style=""width: 300px; height: 300px;"" />
              </div>","null",""
"","","","","","html-button-response","74","207947","0.0-74.0","399CA1E5B1EA49C985BC393B7062154D","46e54245-3ec1-4975-95a4-fbada248f6d8","683bf07d-1a26-40b1-9cff-5abdc1eed0ee","","1459","
    <div style=""display: flex; justify-content: center; align-items: center;"">
      <img src=""images/red_deck_2.png"" style=""width: 300px; height: 300px; margin-right: 10px;"" />
      <img src=""images/blue_deck_1.png"" style=""width: 300px; height: 300px;"" />
    </div>","1","1"
"","","","","","html-keyboard-response","75","210949","0.0-75.0-1.0-0.0","399CA1E5B1EA49C985BC393B7062154D","46e54245-3ec1-4975-95a4-fbada248f6d8","683bf07d-1a26-40b1-9cff-5abdc1eed0ee","","null","<div style=""display: flex; justify-content: center; align-items: center;"">
                <img src=""images/semantic/semantic_series_6/semantic_series_6_d.jpg"" style=""width: 300px; height: 300px;"" />
              </div>","null",""
"","","","","","html-keyboard-response","76","213951","0.0-76.0","399CA1E5B1EA49C985BC393B7062154D","46e54245-3ec1-4975-95a4-fbada248f6d8","683bf07d-1a26-40b1-9cff-5abdc1eed0ee","","null","<div style=""display: flex; justify-content: center; align-items: center;"">
                <img src=""images/other/blank.jpg"" style=""width: 300px; height: 300px;"" />
              </div>","null",""
"","","","","","html-keyboard-response","77","216953","0.0-77.0","399CA1E5B1EA49C985BC393B7062154D","46e54245-3ec1-4975-95a4-fbada248f6d8","683bf07d-1a26-40b1-9cff-5abdc1eed0ee","","null","<div style=""display: flex; justify-content: center; align-items: center;"">
                <img src=""images/causal/causal_series_8/causal_series_8_a.jpg"" style=""width: 300px; height: 300px;"" />
              </div>","null",""
"","","","","","html-keyboard-response","78","219954","0.0-78.0","399CA1E5B1EA49C985BC393B7062154D","46e54245-3ec1-4975-95a4-fbada248f6d8","683bf07d-1a26-40b1-9cff-5abdc1eed0ee","","null","<div style=""display: flex; justify-content: center; align-items: center;"">
                <img src=""images/causal/causal_series_8/causal_series_8_b.jpg"" style=""width: 300px; height: 300px;"" />
              </div>","null",""
"","","","","","html-keyboard-response","79","222957","0.0-79.0","399CA1E5B1EA49C985BC393B7062154D","46e54245-3ec1-4975-95a4-fbada248f6d8","683bf07d-1a26-40b1-9cff-5abdc1eed0ee","","null","<div style=""display: flex; justify-content: center; align-items: center;"">
                <img src=""images/causal/causal_series_8/causal_series_8_c.jpg"" style=""width: 300px; height: 300px;"" />
              </div>","null",""
"","","","","","html-button-response","80","224011","0.0-80.0","399CA1E5B1EA49C985BC393B7062154D","46e54245-3ec1-4975-95a4-fbada248f6d8","683bf07d-1a26-40b1-9cff-5abdc1eed0ee","","1054","
    <div style=""display: flex; justify-content: center; align-items: center;"">
      <img src=""images/red_deck_2.png"" style=""width: 300px; height: 300px; margin-right: 10px;"" />
      <img src=""images/blue_deck_1.png"" style=""width: 300px; height: 300px;"" />
    </div>","0","0"
"","","","","","html-keyboard-response","81","227013","0.0-81.0-0.0-0.0","399CA1E5B1EA49C985BC393B7062154D","46e54245-3ec1-4975-95a4-fbada248f6d8","683bf07d-1a26-40b1-9cff-5abdc1eed0ee","","null","<div style=""display: flex; justify-content: center; align-items: center;"">
                <img src=""images/causal/causal_series_8/causal_series_8_d.jpg"" style=""width: 300px; height: 300px;"" />
              </div>","null",""
"","","","","","html-keyboard-response","82","230015","0.0-82.0","399CA1E5B1EA49C985BC393B7062154D","46e54245-3ec1-4975-95a4-fbada248f6d8","683bf07d-1a26-40b1-9cff-5abdc1eed0ee","","null","<div style=""display: flex; justify-content: center; align-items: center;"">
                <img src=""images/other/blank.jpg"" style=""width: 300px; height: 300px;"" />
              </div>","null",""
"","","","","","html-keyboard-response","83","233017","0.0-83.0","399CA1E5B1EA49C985BC393B7062154D","46e54245-3ec1-4975-95a4-fbada248f6d8","683bf07d-1a26-40b1-9cff-5abdc1eed0ee","","null","<div style=""display: flex; justify-content: center; align-items: center;"">
                <img src=""images/causal/causal_series_6/causal_series_6_a.jpg"" style=""width: 300px; height: 300px;"" />
              </div>","null",""
"","","","","","html-keyboard-response","84","236019","0.0-84.0","399CA1E5B1EA49C985BC393B7062154D","46e54245-3ec1-4975-95a4-fbada248f6d8","683bf07d-1a26-40b1-9cff-5abdc1eed0ee","","null","<div style=""display: flex; justify-content: center; align-items: center;"">
                <img src=""images/causal/causal_series_6/causal_series_6_b.jpg"" style=""width: 300px; height: 300px;"" />
              </div>","null",""
"","","","","","html-keyboard-response","85","239021","0.0-85.0","399CA1E5B1EA49C985BC393B7062154D","46e54245-3ec1-4975-95a4-fbada248f6d8","683bf07d-1a26-40b1-9cff-5abdc1eed0ee","","null","<div style=""display: flex; justify-content: center; align-items: center;"">
                <img src=""images/causal/causal_series_6/causal_series_6_c.jpg"" style=""width: 300px; height: 300px;"" />
              </div>","null",""
"","","","","","html-button-response","86","299996","0.0-86.0","399CA1E5B1EA49C985BC393B7062154D","46e54245-3ec1-4975-95a4-fbada248f6d8","683bf07d-1a26-40b1-9cff-5abdc1eed0ee","","60974","
    <div style=""display: flex; justify-content: center; align-items: center;"">
      <img src=""images/red_deck_2.png"" style=""width: 300px; height: 300px; margin-right: 10px;"" />
      <img src=""images/blue_deck_1.png"" style=""width: 300px; height: 300px;"" />
    </div>","0","0"
"","","","","","html-keyboard-response","87","302997","0.0-87.0-0.0-0.0","399CA1E5B1EA49C985BC393B7062154D","46e54245-3ec1-4975-95a4-fbada248f6d8","683bf07d-1a26-40b1-9cff-5abdc1eed0ee","","null","<div style=""display: flex; justify-content: center; align-items: center;"">
                <img src=""images/causal/causal_series_6/causal_series_6_d.jpg"" style=""width: 300px; height: 300px;"" />
              </div>","null",""
"","","","","","html-keyboard-response","88","306000","0.0-88.0","399CA1E5B1EA49C985BC393B7062154D","46e54245-3ec1-4975-95a4-fbada248f6d8","683bf07d-1a26-40b1-9cff-5abdc1eed0ee","","null","<div style=""display: flex; justify-content: center; align-items: center;"">
                <img src=""images/other/blank.jpg"" style=""width: 300px; height: 300px;"" />
              </div>","null",""
"","","","","","html-keyboard-response","89","309003","0.0-89.0","399CA1E5B1EA49C985BC393B7062154D","46e54245-3ec1-4975-95a4-fbada248f6d8","683bf07d-1a26-40b1-9cff-5abdc1eed0ee","","null","<div style=""display: flex; justify-content: center; align-items: center;"">
                <img src=""images/causal/causal_series_9/causal_series_9_a.jpg"" style=""width: 300px; height: 300px;"" />
              </div>","null",""
"","","","","","html-keyboard-response","90","312005","0.0-90.0","399CA1E5B1EA49C985BC393B7062154D","46e54245-3ec1-4975-95a4-fbada248f6d8","683bf07d-1a26-40b1-9cff-5abdc1eed0ee","","null","<div style=""display: flex; justify-content: center; align-items: center;"">
                <img src=""images/causal/causal_series_9/causal_series_9_b.jpg"" style=""width: 300px; height: 300px;"" />
              </div>","null",""
"","","","","","html-keyboard-response","91","315008","0.0-91.0","399CA1E5B1EA49C985BC393B7062154D","46e54245-3ec1-4975-95a4-fbada248f6d8","683bf07d-1a26-40b1-9cff-5abdc1eed0ee","","null","<div style=""display: flex; justify-content: center; align-items: center;"">
                <img src=""images/causal/causal_series_9/causal_series_9_c.jpg"" style=""width: 300px; height: 300px;"" />
              </div>","null",""
"","","","","","html-button-response","92","316344","0.0-92.0","399CA1E5B1EA49C985BC393B7062154D","46e54245-3ec1-4975-95a4-fbada248f6d8","683bf07d-1a26-40b1-9cff-5abdc1eed0ee","","1336","
    <div style=""display: flex; justify-content: center; align-items: center;"">
      <img src=""images/red_deck_2.png"" style=""width: 300px; height: 300px; margin-right: 10px;"" />
      <img src=""images/blue_deck_1.png"" style=""width: 300px; height: 300px;"" />
    </div>","0","0"
"","","","","","html-keyboard-response","93","319347","0.0-93.0-0.0-0.0","399CA1E5B1EA49C985BC393B7062154D","46e54245-3ec1-4975-95a4-fbada248f6d8","683bf07d-1a26-40b1-9cff-5abdc1eed0ee","","null","<div style=""display: flex; justify-content: center; align-items: center;"">
                <img src=""images/causal/causal_series_9/causal_series_9_d.jpg"" style=""width: 300px; height: 300px;"" />
              </div>","null",""
"","","","","","html-keyboard-response","94","322349","0.0-94.0","399CA1E5B1EA49C985BC393B7062154D","46e54245-3ec1-4975-95a4-fbada248f6d8","683bf07d-1a26-40b1-9cff-5abdc1eed0ee","","null","<div style=""display: flex; justify-content: center; align-items: center;"">
                <img src=""images/other/blank.jpg"" style=""width: 300px; height: 300px;"" />
              </div>","null",""
"","","","","","html-keyboard-response","95","325352","0.0-95.0","399CA1E5B1EA49C985BC393B7062154D","46e54245-3ec1-4975-95a4-fbada248f6d8","683bf07d-1a26-40b1-9cff-5abdc1eed0ee","","null","<div style=""display: flex; justify-content: center; align-items: center;"">
                <img src=""images/causal/causal_series_4/causal_series_4_a.jpg"" style=""width: 300px; height: 300px;"" />
              </div>","null",""
"","","","","","html-keyboard-response","96","328353","0.0-96.0","399CA1E5B1EA49C985BC393B7062154D","46e54245-3ec1-4975-95a4-fbada248f6d8","683bf07d-1a26-40b1-9cff-5abdc1eed0ee","","null","<div style=""display: flex; justify-content: center; align-items: center;"">
                <img src=""images/causal/causal_series_4/causal_series_4_b.jpg"" style=""width: 300px; height: 300px;"" />
              </div>","null",""
"","","","","","html-keyboard-response","97","331356","0.0-97.0","399CA1E5B1EA49C985BC393B7062154D","46e54245-3ec1-4975-95a4-fbada248f6d8","683bf07d-1a26-40b1-9cff-5abdc1eed0ee","","null","<div style=""display: flex; justify-content: center; align-items: center;"">
                <img src=""images/causal/causal_series_4/causal_series_4_c.jpg"" style=""width: 300px; height: 300px;"" />
              </div>","null",""
"","","","","","html-button-response","98","333664","0.0-98.0","399CA1E5B1EA49C985BC393B7062154D","46e54245-3ec1-4975-95a4-fbada248f6d8","683bf07d-1a26-40b1-9cff-5abdc1eed0ee","","2307","
    <div style=""display: flex; justify-content: center; align-items: center;"">
      <img src=""images/red_deck_2.png"" style=""width: 300px; height: 300px; margin-right: 10px;"" />
      <img src=""images/blue_deck_1.png"" style=""width: 300px; height: 300px;"" />
    </div>","1","1"
"","","","","","html-keyboard-response","99","336667","0.0-99.0-1.0-0.0","399CA1E5B1EA49C985BC393B7062154D","46e54245-3ec1-4975-95a4-fbada248f6d8","683bf07d-1a26-40b1-9cff-5abdc1eed0ee","","null","<div style=""display: flex; justify-content: center; align-items: center;"">
                <img src=""images/semantic/semantic_series_3/semantic_series_3_d.jpg"" style=""width: 300px; height: 300px;"" />
              </div>","null",""
"","","","","","html-keyboard-response","100","339670","0.0-100.0","399CA1E5B1EA49C985BC393B7062154D","46e54245-3ec1-4975-95a4-fbada248f6d8","683bf07d-1a26-40b1-9cff-5abdc1eed0ee","","null","<div style=""display: flex; justify-content: center; align-items: center;"">
                <img src=""images/other/blank.jpg"" style=""width: 300px; height: 300px;"" />
              </div>","null",""
"","","","","","html-keyboard-response","101","342671","0.0-101.0","399CA1E5B1EA49C985BC393B7062154D","46e54245-3ec1-4975-95a4-fbada248f6d8","683bf07d-1a26-40b1-9cff-5abdc1eed0ee","","null","<div style=""display: flex; justify-content: center; align-items: center;"">
                <img src=""images/causal/causal_series_15/causal_series_15_a.jpg"" style=""width: 300px; height: 300px;"" />
              </div>","null",""
"","","","","","html-keyboard-response","102","345673","0.0-102.0","399CA1E5B1EA49C985BC393B7062154D","46e54245-3ec1-4975-95a4-fbada248f6d8","683bf07d-1a26-40b1-9cff-5abdc1eed0ee","","null","<div style=""display: flex; justify-content: center; align-items: center;"">
                <img src=""images/causal/causal_series_15/causal_series_15_b.jpg"" style=""width: 300px; height: 300px;"" />
              </div>","null",""
"","","","","","html-keyboard-response","103","348675","0.0-103.0","399CA1E5B1EA49C985BC393B7062154D","46e54245-3ec1-4975-95a4-fbada248f6d8","683bf07d-1a26-40b1-9cff-5abdc1eed0ee","","null","<div style=""display: flex; justify-content: center; align-items: center;"">
                <img src=""images/causal/causal_series_15/causal_series_15_c.jpg"" style=""width: 300px; height: 300px;"" />
              </div>","null",""
"","","","","","html-button-response","104","349643","0.0-104.0","399CA1E5B1EA49C985BC393B7062154D","46e54245-3ec1-4975-95a4-fbada248f6d8","683bf07d-1a26-40b1-9cff-5abdc1eed0ee","","966","
    <div style=""display: flex; justify-content: center; align-items: center;"">
      <img src=""images/red_deck_2.png"" style=""width: 300px; height: 300px; margin-right: 10px;"" />
      <img src=""images/blue_deck_1.png"" style=""width: 300px; height: 300px;"" />
    </div>","0","0"
"","","","","","html-keyboard-response","105","352646","0.0-105.0-0.0-0.0","399CA1E5B1EA49C985BC393B7062154D","46e54245-3ec1-4975-95a4-fbada248f6d8","683bf07d-1a26-40b1-9cff-5abdc1eed0ee","","null","<div style=""display: flex; justify-content: center; align-items: center;"">
                <img src=""images/causal/causal_series_15/causal_series_15_d.jpg"" style=""width: 300px; height: 300px;"" />
              </div>","null",""
"","","","","","html-keyboard-response","106","355648","0.0-106.0","399CA1E5B1EA49C985BC393B7062154D","46e54245-3ec1-4975-95a4-fbada248f6d8","683bf07d-1a26-40b1-9cff-5abdc1eed0ee","","null","<div style=""display: flex; justify-content: center; align-items: center;"">
                <img src=""images/other/blank.jpg"" style=""width: 300px; height: 300px;"" />
              </div>","null",""
"","","","","","html-keyboard-response","107","358651","0.0-107.0","399CA1E5B1EA49C985BC393B7062154D","46e54245-3ec1-4975-95a4-fbada248f6d8","683bf07d-1a26-40b1-9cff-5abdc1eed0ee","","null","<div style=""display: flex; justify-content: center; align-items: center;"">
                <img src=""images/causal/causal_series_13/causal_series_13_a.jpg"" style=""width: 300px; height: 300px;"" />
              </div>","null",""
"","","","","","html-keyboard-response","108","361653","0.0-108.0","399CA1E5B1EA49C985BC393B7062154D","46e54245-3ec1-4975-95a4-fbada248f6d8","683bf07d-1a26-40b1-9cff-5abdc1eed0ee","","null","<div style=""display: flex; justify-content: center; align-items: center;"">
                <img src=""images/causal/causal_series_13/causal_series_13_b.jpg"" style=""width: 300px; height: 300px;"" />
              </div>","null",""
"","","","","","html-keyboard-response","109","364655","0.0-109.0","399CA1E5B1EA49C985BC393B7062154D","46e54245-3ec1-4975-95a4-fbada248f6d8","683bf07d-1a26-40b1-9cff-5abdc1eed0ee","","null","<div style=""display: flex; justify-content: center; align-items: center;"">
                <img src=""images/causal/causal_series_13/causal_series_13_c.jpg"" style=""width: 300px; height: 300px;"" />
              </div>","null",""
"","","","","","html-button-response","110","365501","0.0-110.0","399CA1E5B1EA49C985BC393B7062154D","46e54245-3ec1-4975-95a4-fbada248f6d8","683bf07d-1a26-40b1-9cff-5abdc1eed0ee","","845","
    <div style=""display: flex; justify-content: center; align-items: center;"">
      <img src=""images/red_deck_2.png"" style=""width: 300px; height: 300px; margin-right: 10px;"" />
      <img src=""images/blue_deck_1.png"" style=""width: 300px; height: 300px;"" />
    </div>","0","0"
"","","","","","html-keyboard-response","111","368503","0.0-111.0-0.0-0.0","399CA1E5B1EA49C985BC393B7062154D","46e54245-3ec1-4975-95a4-fbada248f6d8","683bf07d-1a26-40b1-9cff-5abdc1eed0ee","","null","<div style=""display: flex; justify-content: center; align-items: center;"">
                <img src=""images/causal/causal_series_13/causal_series_13_d.jpg"" style=""width: 300px; height: 300px;"" />
              </div>","null",""
"","","","","","html-keyboard-response","112","371505","0.0-112.0","399CA1E5B1EA49C985BC393B7062154D","46e54245-3ec1-4975-95a4-fbada248f6d8","683bf07d-1a26-40b1-9cff-5abdc1eed0ee","","null","<div style=""display: flex; justify-content: center; align-items: center;"">
                <img src=""images/other/blank.jpg"" style=""width: 300px; height: 300px;"" />
              </div>","null",""
"","","","","","survey-text","113","389583","0.0-113.0","399CA1E5B1EA49C985BC393B7062154D","46e54245-3ec1-4975-95a4-fbada248f6d8","683bf07d-1a26-40b1-9cff-5abdc1eed0ee","","18073","","{""Q0"":""one seems like the moral choice and one is the consequence""}",""
"","","","","","survey-text","114","393797","0.0-114.0","399CA1E5B1EA49C985BC393B7062154D","46e54245-3ec1-4975-95a4-fbada248f6d8","683bf07d-1a26-40b1-9cff-5abdc1eed0ee","","4213","","{""Q0"":""red""}",""
"","","","","","html-button-response","115","401110","0.0-115.0","399CA1E5B1EA49C985BC393B7062154D","46e54245-3ec1-4975-95a4-fbada248f6d8","683bf07d-1a26-40b1-9cff-5abdc1eed0ee","","7313","Which color deck does the fourth image continue the story from the series?","1",""
"","","","","","html-button-response","116","402489","0.0-116.0","399CA1E5B1EA49C985BC393B7062154D","46e54245-3ec1-4975-95a4-fbada248f6d8","683bf07d-1a26-40b1-9cff-5abdc1eed0ee","","1378","Which color deck does the fourth image not follow the story from the series?","1",""
"","","","","","survey-text","117","407806","0.0-117.0","399CA1E5B1EA49C985BC393B7062154D","46e54245-3ec1-4975-95a4-fbada248f6d8","683bf07d-1a26-40b1-9cff-5abdc1eed0ee","","5315","","{""Q0"":""female"",""Q1"":""35""}",""
"","","","","","instructions","118","412244","0.0-118.0","399CA1E5B1EA49C985BC393B7062154D","46e54245-3ec1-4975-95a4-fbada248f6d8","683bf07d-1a26-40b1-9cff-5abdc1eed0ee","[{""page_index"":0,""viewing_time"":4437}]","4437","","",""
