"success","timeout","failed_images","failed_audio","failed_video","trial_type","trial_index","time_elapsed","internal_node_id","subject_id","study_id","session_id","view_history","rt","stimulus","response","choice"
"true","false","[]","[]","[]","preload","0","1169","0.0-0.0","9E4FE65D161741A19F1485051D58DDD0","0199b022-801f-746d-804d-38ddb2428837","0199b01c-1a5b-709e-b313-efa0fc87bfd4","","","","",""
"","","","","","instructions","1","5036","0.0-1.0","9E4FE65D161741A19F1485051D58DDD0","0199b022-801f-746d-804d-38ddb2428837","0199b01c-1a5b-709e-b313-efa0fc87bfd4","[{""page_index"":0,""viewing_time"":3866}]","3866","","",""
"","","","","","instructions","2","11562","0.0-2.0","9E4FE65D161741A19F1485051D58DDD0","0199b022-801f-746d-804d-38ddb2428837","0199b01c-1a5b-709e-b313-efa0fc87bfd4","[{""page_index"":0,""viewing_time"":6526}]","6527","","",""
"true","","","","","fullscreen","3","14473","0.0-3.0","9E4FE65D161741A19F1485051D58DDD0","0199b022-801f-746d-804d-38ddb2428837","0199b01c-1a5b-709e-b313-efa0fc87bfd4","","1888","","",""
"","","","","","instructions","4","24776","0.0-4.0","9E4FE65D161741A19F1485051D58DDD0","0199b022-801f-746d-804d-38ddb2428837","0199b01c-1a5b-709e-b313-efa0fc87bfd4","[{""page_index"":0,""viewing_time"":10302}]","10303","","",""
"","","","","","html-keyboard-response","5","31778","0.0-5.0","9E4FE65D161741A19F1485051D58DDD0","0199b022-801f-746d-804d-38ddb2428837","0199b01c-1a5b-709e-b313-efa0fc87bfd4","","null","<div style=""display: flex; justify-content: center; align-items: center;"">
                     <img src=""images/causal/causal_series_5/causal_series_5_a.png"" style=""width: 300px; height: 300px;"" />
                   </div>","null",""
"","","","","","html-button-response","6","35404","0.0-6.0","9E4FE65D161741A19F1485051D58DDD0","0199b022-801f-746d-804d-38ddb2428837","0199b01c-1a5b-709e-b313-efa0fc87bfd4","","3622","
        <div style=""display: flex; justify-content: center; align-items: center;"">
          <img src=""images/red_deck_2.png"" style=""width: 300px; height: 300px; margin-right: 10px;"" />
          <img src=""images/blue_deck_1.png"" style=""width: 300px; height: 300px;"" />
        </div>","1","1"
"","","","","","html-keyboard-response","7","42421","0.0-7.0-1.0-0.0","9E4FE65D161741A19F1485051D58DDD0","0199b022-801f-746d-804d-38ddb2428837","0199b01c-1a5b-709e-b313-efa0fc87bfd4","","null","<div style=""display: flex; justify-content: center; align-items: center;"">
                     <img src=""images/semantic/semantic_series_5/semantic_series_5_b.png"" style=""width: 300px; height: 300px;"" />
                   </div>","null",""
"","","","","","html-keyboard-response","8","49436","0.0-7.0-1.0-1.0","9E4FE65D161741A19F1485051D58DDD0","0199b022-801f-746d-804d-38ddb2428837","0199b01c-1a5b-709e-b313-efa0fc87bfd4","","null","<div style=""display: flex; justify-content: center; align-items: center;"">
                     <img src=""images/semantic/semantic_series_5/semantic_series_5_c.png"" style=""width: 300px; height: 300px;"" />
                   </div>","null",""
"","","","","","html-keyboard-response","9","56452","0.0-7.0-1.0-2.0","9E4FE65D161741A19F1485051D58DDD0","0199b022-801f-746d-804d-38ddb2428837","0199b01c-1a5b-709e-b313-efa0fc87bfd4","","null","<div style=""display: flex; justify-content: center; align-items: center;"">
                     <img src=""images/semantic/semantic_series_5/semantic_series_5_d.png"" style=""width: 300px; height: 300px;"" />
                   </div>","null",""
"","","","","","html-keyboard-response","10","63460","0.0-8.0","9E4FE65D161741A19F1485051D58DDD0","0199b022-801f-746d-804d-38ddb2428837","0199b01c-1a5b-709e-b313-efa0fc87bfd4","","null","<div style=""display: flex; justify-content: center; align-items: center;"">
                     <img src=""images/other/blank.png"" style=""width: 300px; height: 300px;"" />
                   </div>","null",""
"","","","","","html-keyboard-response","11","70462","0.0-9.0","9E4FE65D161741A19F1485051D58DDD0","0199b022-801f-746d-804d-38ddb2428837","0199b01c-1a5b-709e-b313-efa0fc87bfd4","","null","<div style=""display: flex; justify-content: center; align-items: center;"">
                     <img src=""images/causal/causal_series_1/causal_series_1_a.png"" style=""width: 300px; height: 300px;"" />
                   </div>","null",""
"","","","","","html-button-response","12","72929","0.0-10.0","9E4FE65D161741A19F1485051D58DDD0","0199b022-801f-746d-804d-38ddb2428837","0199b01c-1a5b-709e-b313-efa0fc87bfd4","","2464","
        <div style=""display: flex; justify-content: center; align-items: center;"">
          <img src=""images/red_deck_2.png"" style=""width: 300px; height: 300px; margin-right: 10px;"" />
          <img src=""images/blue_deck_1.png"" style=""width: 300px; height: 300px;"" />
        </div>","0","0"
"","","","","","html-keyboard-response","13","79931","0.0-11.0-0.0-0.0","9E4FE65D161741A19F1485051D58DDD0","0199b022-801f-746d-804d-38ddb2428837","0199b01c-1a5b-709e-b313-efa0fc87bfd4","","null","<div style=""display: flex; justify-content: center; align-items: center;"">
                     <img src=""images/causal/causal_series_1/causal_series_1_b.png"" style=""width: 300px; height: 300px;"" />
                   </div>","null",""
"","","","","","html-keyboard-response","14","86933","0.0-11.0-0.0-1.0","9E4FE65D161741A19F1485051D58DDD0","0199b022-801f-746d-804d-38ddb2428837","0199b01c-1a5b-709e-b313-efa0fc87bfd4","","null","<div style=""display: flex; justify-content: center; align-items: center;"">
                     <img src=""images/causal/causal_series_1/causal_series_1_c.png"" style=""width: 300px; height: 300px;"" />
                   </div>","null",""
"","","","","","html-keyboard-response","15","93934","0.0-11.0-0.0-2.0","9E4FE65D161741A19F1485051D58DDD0","0199b022-801f-746d-804d-38ddb2428837","0199b01c-1a5b-709e-b313-efa0fc87bfd4","","null","<div style=""display: flex; justify-content: center; align-items: center;"">
                     <img src=""images/causal/causal_series_1/causal_series_1_d.png"" style=""width: 300px; height: 300px;"" />
                   </div>","null",""
"","","","","","html-keyboard-response","16","100939","0.0-12.0","9E4FE65D161741A19F1485051D58DDD0","0199b022-801f-746d-804d-38ddb2428837","0199b01c-1a5b-709e-b313-efa0fc87bfd4","","null","<div style=""display: flex; justify-content: center; align-items: center;"">
                     <img src=""images/other/blank.png"" style=""width: 300px; height: 300px;"" />
                   </div>","null",""
"","","","","","html-keyboard-response","17","107942","0.0-13.0","9E4FE65D161741A19F1485051D58DDD0","0199b022-801f-746d-804d-38ddb2428837","0199b01c-1a5b-709e-b313-efa0fc87bfd4","","null","<div style=""display: flex; justify-content: center; align-items: center;"">
                     <img src=""images/causal/causal_series_7/causal_series_7_a.png"" style=""width: 300px; height: 300px;"" />
                   </div>","null",""
"","","","","","html-button-response","18","110670","0.0-14.0","9E4FE65D161741A19F1485051D58DDD0","0199b022-801f-746d-804d-38ddb2428837","0199b01c-1a5b-709e-b313-efa0fc87bfd4","","2726","
        <div style=""display: flex; justify-content: center; align-items: center;"">
          <img src=""images/red_deck_2.png"" style=""width: 300px; height: 300px; margin-right: 10px;"" />
          <img src=""images/blue_deck_1.png"" style=""width: 300px; height: 300px;"" />
        </div>","1","1"
"","","","","","html-keyboard-response","19","117672","0.0-15.0-1.0-0.0","9E4FE65D161741A19F1485051D58DDD0","0199b022-801f-746d-804d-38ddb2428837","0199b01c-1a5b-709e-b313-efa0fc87bfd4","","null","<div style=""display: flex; justify-content: center; align-items: center;"">
                     <img src=""images/semantic/semantic_series_7/semantic_series_7_b.png"" style=""width: 300px; height: 300px;"" />
                   </div>","null",""
"","","","","","html-keyboard-response","20","124689","0.0-15.0-1.0-1.0","9E4FE65D161741A19F1485051D58DDD0","0199b022-801f-746d-804d-38ddb2428837","0199b01c-1a5b-709e-b313-efa0fc87bfd4","","null","<div style=""display: flex; justify-content: center; align-items: center;"">
                     <img src=""images/semantic/semantic_series_7/semantic_series_7_c.png"" style=""width: 300px; height: 300px;"" />
                   </div>","null",""
"","","","","","html-keyboard-response","21","131703","0.0-15.0-1.0-2.0","9E4FE65D161741A19F1485051D58DDD0","0199b022-801f-746d-804d-38ddb2428837","0199b01c-1a5b-709e-b313-efa0fc87bfd4","","null","<div style=""display: flex; justify-content: center; align-items: center;"">
                     <img src=""images/semantic/semantic_series_7/semantic_series_7_d.png"" style=""width: 300px; height: 300px;"" />
                   </div>","null",""
"","","","","","html-keyboard-response","22","138719","0.0-16.0","9E4FE65D161741A19F1485051D58DDD0","0199b022-801f-746d-804d-38ddb2428837","0199b01c-1a5b-709e-b313-efa0fc87bfd4","","null","<div style=""display: flex; justify-content: center; align-items: center;"">
                     <img src=""images/other/blank.png"" style=""width: 300px; height: 300px;"" />
                   </div>","null",""
"","","","","","html-keyboard-response","23","145736","0.0-17.0","9E4FE65D161741A19F1485051D58DDD0","0199b022-801f-746d-804d-38ddb2428837","0199b01c-1a5b-709e-b313-efa0fc87bfd4","","null","<div style=""display: flex; justify-content: center; align-items: center;"">
                     <img src=""images/causal/causal_series_9/causal_series_9_a.png"" style=""width: 300px; height: 300px;"" />
                   </div>","null",""
"","","","","","html-button-response","24","147014","0.0-18.0","9E4FE65D161741A19F1485051D58DDD0","0199b022-801f-746d-804d-38ddb2428837","0199b01c-1a5b-709e-b313-efa0fc87bfd4","","1276","
        <div style=""display: flex; justify-content: center; align-items: center;"">
          <img src=""images/red_deck_2.png"" style=""width: 300px; height: 300px; margin-right: 10px;"" />
          <img src=""images/blue_deck_1.png"" style=""width: 300px; height: 300px;"" />
        </div>","1","1"
"","","","","","html-keyboard-response","25","154017","0.0-19.0-1.0-0.0","9E4FE65D161741A19F1485051D58DDD0","0199b022-801f-746d-804d-38ddb2428837","0199b01c-1a5b-709e-b313-efa0fc87bfd4","","null","<div style=""display: flex; justify-content: center; align-items: center;"">
                     <img src=""images/semantic/semantic_series_9/semantic_series_9_b.png"" style=""width: 300px; height: 300px;"" />
                   </div>","null",""
"","","","","","html-keyboard-response","26","161019","0.0-19.0-1.0-1.0","9E4FE65D161741A19F1485051D58DDD0","0199b022-801f-746d-804d-38ddb2428837","0199b01c-1a5b-709e-b313-efa0fc87bfd4","","null","<div style=""display: flex; justify-content: center; align-items: center;"">
                     <img src=""images/semantic/semantic_series_9/semantic_series_9_c.png"" style=""width: 300px; height: 300px;"" />
                   </div>","null",""
"","","","","","html-keyboard-response","27","168030","0.0-19.0-1.0-2.0","9E4FE65D161741A19F1485051D58DDD0","0199b022-801f-746d-804d-38ddb2428837","0199b01c-1a5b-709e-b313-efa0fc87bfd4","","null","<div style=""display: flex; justify-content: center; align-items: center;"">
                     <img src=""images/semantic/semantic_series_9/semantic_series_9_d.png"" style=""width: 300px; height: 300px;"" />
                   </div>","null",""
"","","","","","html-keyboard-response","28","175032","0.0-20.0","9E4FE65D161741A19F1485051D58DDD0","0199b022-801f-746d-804d-38ddb2428837","0199b01c-1a5b-709e-b313-efa0fc87bfd4","","null","<div style=""display: flex; justify-content: center; align-items: center;"">
                     <img src=""images/other/blank.png"" style=""width: 300px; height: 300px;"" />
                   </div>","null",""
"","","","","","html-keyboard-response","29","182045","0.0-21.0","9E4FE65D161741A19F1485051D58DDD0","0199b022-801f-746d-804d-38ddb2428837","0199b01c-1a5b-709e-b313-efa0fc87bfd4","","null","<div style=""display: flex; justify-content: center; align-items: center;"">
                     <img src=""images/causal/causal_series_8/causal_series_8_a.png"" style=""width: 300px; height: 300px;"" />
                   </div>","null",""
"","","","","","html-button-response","30","183358","0.0-22.0","9E4FE65D161741A19F1485051D58DDD0","0199b022-801f-746d-804d-38ddb2428837","0199b01c-1a5b-709e-b313-efa0fc87bfd4","","1311","
        <div style=""display: flex; justify-content: center; align-items: center;"">
          <img src=""images/red_deck_2.png"" style=""width: 300px; height: 300px; margin-right: 10px;"" />
          <img src=""images/blue_deck_1.png"" style=""width: 300px; height: 300px;"" />
        </div>","0","0"
"","","","","","html-keyboard-response","31","190371","0.0-23.0-0.0-0.0","9E4FE65D161741A19F1485051D58DDD0","0199b022-801f-746d-804d-38ddb2428837","0199b01c-1a5b-709e-b313-efa0fc87bfd4","","null","<div style=""display: flex; justify-content: center; align-items: center;"">
                     <img src=""images/causal/causal_series_8/causal_series_8_b.png"" style=""width: 300px; height: 300px;"" />
                   </div>","null",""
"","","","","","html-keyboard-response","32","197389","0.0-23.0-0.0-1.0","9E4FE65D161741A19F1485051D58DDD0","0199b022-801f-746d-804d-38ddb2428837","0199b01c-1a5b-709e-b313-efa0fc87bfd4","","null","<div style=""display: flex; justify-content: center; align-items: center;"">
                     <img src=""images/causal/causal_series_8/causal_series_8_c.png"" style=""width: 300px; height: 300px;"" />
                   </div>","null",""
"","","","","","html-keyboard-response","33","204390","0.0-23.0-0.0-2.0","9E4FE65D161741A19F1485051D58DDD0","0199b022-801f-746d-804d-38ddb2428837","0199b01c-1a5b-709e-b313-efa0fc87bfd4","","null","<div style=""display: flex; justify-content: center; align-items: center;"">
                     <img src=""images/causal/causal_series_8/causal_series_8_d.png"" style=""width: 300px; height: 300px;"" />
                   </div>","null",""
"","","","","","html-keyboard-response","34","212212","0.0-24.0","9E4FE65D161741A19F1485051D58DDD0","0199b022-801f-746d-804d-38ddb2428837","0199b01c-1a5b-709e-b313-efa0fc87bfd4","","null","<div style=""display: flex; justify-content: center; align-items: center;"">
                     <img src=""images/other/blank.png"" style=""width: 300px; height: 300px;"" />
                   </div>","null",""
"","","","","","html-keyboard-response","35","219216","0.0-25.0","9E4FE65D161741A19F1485051D58DDD0","0199b022-801f-746d-804d-38ddb2428837","0199b01c-1a5b-709e-b313-efa0fc87bfd4","","null","<div style=""display: flex; justify-content: center; align-items: center;"">
                     <img src=""images/causal/causal_series_4/causal_series_4_a.png"" style=""width: 300px; height: 300px;"" />
                   </div>","null",""
"","","","","","html-button-response","36","222143","0.0-26.0","9E4FE65D161741A19F1485051D58DDD0","0199b022-801f-746d-804d-38ddb2428837","0199b01c-1a5b-709e-b313-efa0fc87bfd4","","2922","
        <div style=""display: flex; justify-content: center; align-items: center;"">
          <img src=""images/red_deck_2.png"" style=""width: 300px; height: 300px; margin-right: 10px;"" />
          <img src=""images/blue_deck_1.png"" style=""width: 300px; height: 300px;"" />
        </div>","1","1"
"","","","","","html-keyboard-response","37","229158","0.0-27.0-1.0-0.0","9E4FE65D161741A19F1485051D58DDD0","0199b022-801f-746d-804d-38ddb2428837","0199b01c-1a5b-709e-b313-efa0fc87bfd4","","null","<div style=""display: flex; justify-content: center; align-items: center;"">
                     <img src=""images/semantic/semantic_series_4/semantic_series_4_b.png"" style=""width: 300px; height: 300px;"" />
                   </div>","null",""
"","","","","","html-keyboard-response","38","236165","0.0-27.0-1.0-1.0","9E4FE65D161741A19F1485051D58DDD0","0199b022-801f-746d-804d-38ddb2428837","0199b01c-1a5b-709e-b313-efa0fc87bfd4","","null","<div style=""display: flex; justify-content: center; align-items: center;"">
                     <img src=""images/semantic/semantic_series_4/semantic_series_4_c.png"" style=""width: 300px; height: 300px;"" />
                   </div>","null",""
"","","","","","html-keyboard-response","39","243180","0.0-27.0-1.0-2.0","9E4FE65D161741A19F1485051D58DDD0","0199b022-801f-746d-804d-38ddb2428837","0199b01c-1a5b-709e-b313-efa0fc87bfd4","","null","<div style=""display: flex; justify-content: center; align-items: center;"">
                     <img src=""images/semantic/semantic_series_4/semantic_series_4_d.png"" style=""width: 300px; height: 300px;"" />
                   </div>","null",""
"","","","","","html-keyboard-response","40","250190","0.0-28.0","9E4FE65D161741A19F1485051D58DDD0","0199b022-801f-746d-804d-38ddb2428837","0199b01c-1a5b-709e-b313-efa0fc87bfd4","","null","<div style=""display: flex; justify-content: center; align-items: center;"">
                     <img src=""images/other/blank.png"" style=""width: 300px; height: 300px;"" />
                   </div>","null",""
"","","","","","html-keyboard-response","41","257192","0.0-29.0","9E4FE65D161741A19F1485051D58DDD0","0199b022-801f-746d-804d-38ddb2428837","0199b01c-1a5b-709e-b313-efa0fc87bfd4","","null","<div style=""display: flex; justify-content: center; align-items: center;"">
                     <img src=""images/causal/causal_series_3/causal_series_3_a.png"" style=""width: 300px; height: 300px;"" />
                   </div>","null",""
"","","","","","html-button-response","42","259702","0.0-30.0","9E4FE65D161741A19F1485051D58DDD0","0199b022-801f-746d-804d-38ddb2428837","0199b01c-1a5b-709e-b313-efa0fc87bfd4","","2508","
        <div style=""display: flex; justify-content: center; align-items: center;"">
          <img src=""images/red_deck_2.png"" style=""width: 300px; height: 300px; margin-right: 10px;"" />
          <img src=""images/blue_deck_1.png"" style=""width: 300px; height: 300px;"" />
        </div>","0","0"
"","","","","","html-keyboard-response","43","266712","0.0-31.0-0.0-0.0","9E4FE65D161741A19F1485051D58DDD0","0199b022-801f-746d-804d-38ddb2428837","0199b01c-1a5b-709e-b313-efa0fc87bfd4","","null","<div style=""display: flex; justify-content: center; align-items: center;"">
                     <img src=""images/causal/causal_series_3/causal_series_3_b.png"" style=""width: 300px; height: 300px;"" />
                   </div>","null",""
"","","","","","html-keyboard-response","44","273719","0.0-31.0-0.0-1.0","9E4FE65D161741A19F1485051D58DDD0","0199b022-801f-746d-804d-38ddb2428837","0199b01c-1a5b-709e-b313-efa0fc87bfd4","","null","<div style=""display: flex; justify-content: center; align-items: center;"">
                     <img src=""images/causal/causal_series_3/causal_series_3_c.png"" style=""width: 300px; height: 300px;"" />
                   </div>","null",""
"","","","","","html-keyboard-response","45","280722","0.0-31.0-0.0-2.0","9E4FE65D161741A19F1485051D58DDD0","0199b022-801f-746d-804d-38ddb2428837","0199b01c-1a5b-709e-b313-efa0fc87bfd4","","null","<div style=""display: flex; justify-content: center; align-items: center;"">
                     <img src=""images/causal/causal_series_3/causal_series_3_d.png"" style=""width: 300px; height: 300px;"" />
                   </div>","null",""
"","","","","","html-keyboard-response","46","287724","0.0-32.0","9E4FE65D161741A19F1485051D58DDD0","0199b022-801f-746d-804d-38ddb2428837","0199b01c-1a5b-709e-b313-efa0fc87bfd4","","null","<div style=""display: flex; justify-content: center; align-items: center;"">
                     <img src=""images/other/blank.png"" style=""width: 300px; height: 300px;"" />
                   </div>","null",""
"","","","","","html-keyboard-response","47","294726","0.0-33.0","9E4FE65D161741A19F1485051D58DDD0","0199b022-801f-746d-804d-38ddb2428837","0199b01c-1a5b-709e-b313-efa0fc87bfd4","","null","<div style=""display: flex; justify-content: center; align-items: center;"">
                     <img src=""images/causal/causal_series_6/causal_series_6_a.png"" style=""width: 300px; height: 300px;"" />
                   </div>","null",""
"","","","","","html-button-response","48","296363","0.0-34.0","9E4FE65D161741A19F1485051D58DDD0","0199b022-801f-746d-804d-38ddb2428837","0199b01c-1a5b-709e-b313-efa0fc87bfd4","","1635","
        <div style=""display: flex; justify-content: center; align-items: center;"">
          <img src=""images/red_deck_2.png"" style=""width: 300px; height: 300px; margin-right: 10px;"" />
          <img src=""images/blue_deck_1.png"" style=""width: 300px; height: 300px;"" />
        </div>","1","1"
"","","","","","html-keyboard-response","49","303373","0.0-35.0-1.0-0.0","9E4FE65D161741A19F1485051D58DDD0","0199b022-801f-746d-804d-38ddb2428837","0199b01c-1a5b-709e-b313-efa0fc87bfd4","","null","<div style=""display: flex; justify-content: center; align-items: center;"">
                     <img src=""images/semantic/semantic_series_6/semantic_series_6_b.png"" style=""width: 300px; height: 300px;"" />
                   </div>","null",""
"","","","","","html-keyboard-response","50","310375","0.0-35.0-1.0-1.0","9E4FE65D161741A19F1485051D58DDD0","0199b022-801f-746d-804d-38ddb2428837","0199b01c-1a5b-709e-b313-efa0fc87bfd4","","null","<div style=""display: flex; justify-content: center; align-items: center;"">
                     <img src=""images/semantic/semantic_series_6/semantic_series_6_c.png"" style=""width: 300px; height: 300px;"" />
                   </div>","null",""
"","","","","","html-keyboard-response","51","317381","0.0-35.0-1.0-2.0","9E4FE65D161741A19F1485051D58DDD0","0199b022-801f-746d-804d-38ddb2428837","0199b01c-1a5b-709e-b313-efa0fc87bfd4","","null","<div style=""display: flex; justify-content: center; align-items: center;"">
                     <img src=""images/semantic/semantic_series_6/semantic_series_6_d.png"" style=""width: 300px; height: 300px;"" />
                   </div>","null",""
"","","","","","html-keyboard-response","52","324383","0.0-36.0","9E4FE65D161741A19F1485051D58DDD0","0199b022-801f-746d-804d-38ddb2428837","0199b01c-1a5b-709e-b313-efa0fc87bfd4","","null","<div style=""display: flex; justify-content: center; align-items: center;"">
                     <img src=""images/other/blank.png"" style=""width: 300px; height: 300px;"" />
                   </div>","null",""
"","","","","","html-keyboard-response","53","331389","0.0-37.0","9E4FE65D161741A19F1485051D58DDD0","0199b022-801f-746d-804d-38ddb2428837","0199b01c-1a5b-709e-b313-efa0fc87bfd4","","null","<div style=""display: flex; justify-content: center; align-items: center;"">
                     <img src=""images/causal/causal_series_2/causal_series_2_a.png"" style=""width: 300px; height: 300px;"" />
                   </div>","null",""
"","","","","","html-button-response","54","332755","0.0-38.0","9E4FE65D161741A19F1485051D58DDD0","0199b022-801f-746d-804d-38ddb2428837","0199b01c-1a5b-709e-b313-efa0fc87bfd4","","1364","
        <div style=""display: flex; justify-content: center; align-items: center;"">
          <img src=""images/red_deck_2.png"" style=""width: 300px; height: 300px; margin-right: 10px;"" />
          <img src=""images/blue_deck_1.png"" style=""width: 300px; height: 300px;"" />
        </div>","1","1"
"","","","","","html-keyboard-response","55","339757","0.0-39.0-1.0-0.0","9E4FE65D161741A19F1485051D58DDD0","0199b022-801f-746d-804d-38ddb2428837","0199b01c-1a5b-709e-b313-efa0fc87bfd4","","null","<div style=""display: flex; justify-content: center; align-items: center;"">
                     <img src=""images/semantic/semantic_series_2/semantic_series_2_b.png"" style=""width: 300px; height: 300px;"" />
                   </div>","null",""
"","","","","","html-keyboard-response","56","346760","0.0-39.0-1.0-1.0","9E4FE65D161741A19F1485051D58DDD0","0199b022-801f-746d-804d-38ddb2428837","0199b01c-1a5b-709e-b313-efa0fc87bfd4","","null","<div style=""display: flex; justify-content: center; align-items: center;"">
                     <img src=""images/semantic/semantic_series_2/semantic_series_2_c.png"" style=""width: 300px; height: 300px;"" />
                   </div>","null",""
"","","","","","html-keyboard-response","57","353767","0.0-39.0-1.0-2.0","9E4FE65D161741A19F1485051D58DDD0","0199b022-801f-746d-804d-38ddb2428837","0199b01c-1a5b-709e-b313-efa0fc87bfd4","","null","<div style=""display: flex; justify-content: center; align-items: center;"">
                     <img src=""images/semantic/semantic_series_2/semantic_series_2_d.png"" style=""width: 300px; height: 300px;"" />
                   </div>","null",""
"","","","","","html-keyboard-response","58","360770","0.0-40.0","9E4FE65D161741A19F1485051D58DDD0","0199b022-801f-746d-804d-38ddb2428837","0199b01c-1a5b-709e-b313-efa0fc87bfd4","","null","<div style=""display: flex; justify-content: center; align-items: center;"">
                     <img src=""images/other/blank.png"" style=""width: 300px; height: 300px;"" />
                   </div>","null",""
"","","","","","html-keyboard-response","59","367774","0.0-41.0","9E4FE65D161741A19F1485051D58DDD0","0199b022-801f-746d-804d-38ddb2428837","0199b01c-1a5b-709e-b313-efa0fc87bfd4","","null","<div style=""display: flex; justify-content: center; align-items: center;"">
                     <img src=""images/causal/causal_series_10/causal_series_10_a.png"" style=""width: 300px; height: 300px;"" />
                   </div>","null",""
"","","","","","html-button-response","60","369067","0.0-42.0","9E4FE65D161741A19F1485051D58DDD0","0199b022-801f-746d-804d-38ddb2428837","0199b01c-1a5b-709e-b313-efa0fc87bfd4","","1291","
        <div style=""display: flex; justify-content: center; align-items: center;"">
          <img src=""images/red_deck_2.png"" style=""width: 300px; height: 300px; margin-right: 10px;"" />
          <img src=""images/blue_deck_1.png"" style=""width: 300px; height: 300px;"" />
        </div>","0","0"
"","","","","","html-keyboard-response","61","376069","0.0-43.0-0.0-0.0","9E4FE65D161741A19F1485051D58DDD0","0199b022-801f-746d-804d-38ddb2428837","0199b01c-1a5b-709e-b313-efa0fc87bfd4","","null","<div style=""display: flex; justify-content: center; align-items: center;"">
                     <img src=""images/causal/causal_series_10/causal_series_10_b.png"" style=""width: 300px; height: 300px;"" />
                   </div>","null",""
"","","","","","html-keyboard-response","62","383076","0.0-43.0-0.0-1.0","9E4FE65D161741A19F1485051D58DDD0","0199b022-801f-746d-804d-38ddb2428837","0199b01c-1a5b-709e-b313-efa0fc87bfd4","","null","<div style=""display: flex; justify-content: center; align-items: center;"">
                     <img src=""images/causal/causal_series_10/causal_series_10_c.png"" style=""width: 300px; height: 300px;"" />
                   </div>","null",""
"","","","","","html-keyboard-response","63","390080","0.0-43.0-0.0-2.0","9E4FE65D161741A19F1485051D58DDD0","0199b022-801f-746d-804d-38ddb2428837","0199b01c-1a5b-709e-b313-efa0fc87bfd4","","null","<div style=""display: flex; justify-content: center; align-items: center;"">
                     <img src=""images/causal/causal_series_10/causal_series_10_d.png"" style=""width: 300px; height: 300px;"" />
                   </div>","null",""
"","","","","","html-keyboard-response","64","397087","0.0-44.0","9E4FE65D161741A19F1485051D58DDD0","0199b022-801f-746d-804d-38ddb2428837","0199b01c-1a5b-709e-b313-efa0fc87bfd4","","null","<div style=""display: flex; justify-content: center; align-items: center;"">
                     <img src=""images/other/blank.png"" style=""width: 300px; height: 300px;"" />
                   </div>","null",""
"","","","","","survey-text","65","420691","0.0-45.0","9E4FE65D161741A19F1485051D58DDD0","0199b022-801f-746d-804d-38ddb2428837","0199b01c-1a5b-709e-b313-efa0fc87bfd4","","23597","","{""Q0"":""The red deck was more wholesome, the blue deck was more weird/chaotic""}",""
"","","","","","survey-text","66","426978","0.0-46.0","9E4FE65D161741A19F1485051D58DDD0","0199b022-801f-746d-804d-38ddb2428837","0199b01c-1a5b-709e-b313-efa0fc87bfd4","","6283","","{""Q0"":""The blue deck""}",""
"","","","","","html-button-response","67","439405","0.0-47.0","9E4FE65D161741A19F1485051D58DDD0","0199b022-801f-746d-804d-38ddb2428837","0199b01c-1a5b-709e-b313-efa0fc87bfd4","","12426","Which color deck does the following images continue the story from?","0",""
"","","","","","html-button-response","68","445289","0.0-48.0","9E4FE65D161741A19F1485051D58DDD0","0199b022-801f-746d-804d-38ddb2428837","0199b01c-1a5b-709e-b313-efa0fc87bfd4","","5883","Which color deck do the following images NOT follow the story from?","1",""
"","","","","","survey-text","69","454699","0.0-49.0","9E4FE65D161741A19F1485051D58DDD0","0199b022-801f-746d-804d-38ddb2428837","0199b01c-1a5b-709e-b313-efa0fc87bfd4","","9404","","{""Q0"":""Female"",""Q1"":""33""}",""
"","","","","","instructions","70","459513","0.0-50.0","9E4FE65D161741A19F1485051D58DDD0","0199b022-801f-746d-804d-38ddb2428837","0199b01c-1a5b-709e-b313-efa0fc87bfd4","[{""page_index"":0,""viewing_time"":4813}]","4814","","",""
