"success","timeout","failed_images","failed_audio","failed_video","trial_type","trial_index","time_elapsed","internal_node_id","subject_id","study_id","session_id","view_history","rt","stimulus","response","choice"
"true","false","[]","[]","[]","preload","0","2252","0.0-0.0","F0354D259CDC4481B3CC0B18BC7F5ECC","ad9f93ad-98a0-44a0-bb56-7766e79aacda","61e1ec61-13c7-4a8f-bf47-a91ec9909364","","","","",""
"","","","","","instructions","1","145018","0.0-1.0","F0354D259CDC4481B3CC0B18BC7F5ECC","ad9f93ad-98a0-44a0-bb56-7766e79aacda","61e1ec61-13c7-4a8f-bf47-a91ec9909364","[{""page_index"":0,""viewing_time"":142766}]","142766","","",""
"","","","","","instructions","2","152706","0.0-2.0","F0354D259CDC4481B3CC0B18BC7F5ECC","ad9f93ad-98a0-44a0-bb56-7766e79aacda","61e1ec61-13c7-4a8f-bf47-a91ec9909364","[{""page_index"":0,""viewing_time"":7686}]","7686","","",""
"true","","","","","fullscreen","3","155371","0.0-3.0","F0354D259CDC4481B3CC0B18BC7F5ECC","ad9f93ad-98a0-44a0-bb56-7766e79aacda","61e1ec61-13c7-4a8f-bf47-a91ec9909364","","1650","","",""
"","","","","","instructions","4","158530","0.0-4.0","F0354D259CDC4481B3CC0B18BC7F5ECC","ad9f93ad-98a0-44a0-bb56-7766e79aacda","61e1ec61-13c7-4a8f-bf47-a91ec9909364","[{""page_index"":0,""viewing_time"":3159}]","3159","","",""
"","","","","","html-keyboard-response","5","161540","0.0-5.0","F0354D259CDC4481B3CC0B18BC7F5ECC","ad9f93ad-98a0-44a0-bb56-7766e79aacda","61e1ec61-13c7-4a8f-bf47-a91ec9909364","","null","<div style=""display: flex; justify-content: center; align-items: center;"">
                <img src=""images/causal/causal_series_7/causal_series_7_a.jpg"" style=""width: 300px; height: 300px;"" />
              </div>","null",""
"","","","","","html-keyboard-response","6","164542","0.0-6.0","F0354D259CDC4481B3CC0B18BC7F5ECC","ad9f93ad-98a0-44a0-bb56-7766e79aacda","61e1ec61-13c7-4a8f-bf47-a91ec9909364","","null","<div style=""display: flex; justify-content: center; align-items: center;"">
                <img src=""images/causal/causal_series_7/causal_series_7_b.jpg"" style=""width: 300px; height: 300px;"" />
              </div>","null",""
"","","","","","html-keyboard-response","7","167545","0.0-7.0","F0354D259CDC4481B3CC0B18BC7F5ECC","ad9f93ad-98a0-44a0-bb56-7766e79aacda","61e1ec61-13c7-4a8f-bf47-a91ec9909364","","null","<div style=""display: flex; justify-content: center; align-items: center;"">
                <img src=""images/causal/causal_series_7/causal_series_7_c.jpg"" style=""width: 300px; height: 300px;"" />
              </div>","null",""
"","","","","","html-button-response","8","171263","0.0-8.0","F0354D259CDC4481B3CC0B18BC7F5ECC","ad9f93ad-98a0-44a0-bb56-7766e79aacda","61e1ec61-13c7-4a8f-bf47-a91ec9909364","","3716","
    <div style=""display: flex; justify-content: center; align-items: center;"">
      <img src=""images/red_deck_2.png"" style=""width: 300px; height: 300px; margin-right: 10px;"" />
      <img src=""images/blue_deck_1.png"" style=""width: 300px; height: 300px;"" />
    </div>","1","1"
"","","","","","html-keyboard-response","9","174267","0.0-9.0-1.0-0.0","F0354D259CDC4481B3CC0B18BC7F5ECC","ad9f93ad-98a0-44a0-bb56-7766e79aacda","61e1ec61-13c7-4a8f-bf47-a91ec9909364","","null","<div style=""display: flex; justify-content: center; align-items: center;"">
                <img src=""images/semantic/semantic_series_6/semantic_series_6_d.jpg"" style=""width: 300px; height: 300px;"" />
              </div>","null",""
"","","","","","html-keyboard-response","10","177281","0.0-10.0","F0354D259CDC4481B3CC0B18BC7F5ECC","ad9f93ad-98a0-44a0-bb56-7766e79aacda","61e1ec61-13c7-4a8f-bf47-a91ec9909364","","null","<div style=""display: flex; justify-content: center; align-items: center;"">
                <img src=""images/other/blank.jpg"" style=""width: 300px; height: 300px;"" />
              </div>","null",""
"","","","","","html-keyboard-response","11","180294","0.0-11.0","F0354D259CDC4481B3CC0B18BC7F5ECC","ad9f93ad-98a0-44a0-bb56-7766e79aacda","61e1ec61-13c7-4a8f-bf47-a91ec9909364","","null","<div style=""display: flex; justify-content: center; align-items: center;"">
                <img src=""images/causal/causal_series_13/causal_series_13_a.jpg"" style=""width: 300px; height: 300px;"" />
              </div>","null",""
"","","","","","html-keyboard-response","12","183309","0.0-12.0","F0354D259CDC4481B3CC0B18BC7F5ECC","ad9f93ad-98a0-44a0-bb56-7766e79aacda","61e1ec61-13c7-4a8f-bf47-a91ec9909364","","null","<div style=""display: flex; justify-content: center; align-items: center;"">
                <img src=""images/causal/causal_series_13/causal_series_13_b.jpg"" style=""width: 300px; height: 300px;"" />
              </div>","null",""
"","","","","","html-keyboard-response","13","186324","0.0-13.0","F0354D259CDC4481B3CC0B18BC7F5ECC","ad9f93ad-98a0-44a0-bb56-7766e79aacda","61e1ec61-13c7-4a8f-bf47-a91ec9909364","","null","<div style=""display: flex; justify-content: center; align-items: center;"">
                <img src=""images/causal/causal_series_13/causal_series_13_c.jpg"" style=""width: 300px; height: 300px;"" />
              </div>","null",""
"","","","","","html-button-response","14","187726","0.0-14.0","F0354D259CDC4481B3CC0B18BC7F5ECC","ad9f93ad-98a0-44a0-bb56-7766e79aacda","61e1ec61-13c7-4a8f-bf47-a91ec9909364","","1401","
    <div style=""display: flex; justify-content: center; align-items: center;"">
      <img src=""images/red_deck_2.png"" style=""width: 300px; height: 300px; margin-right: 10px;"" />
      <img src=""images/blue_deck_1.png"" style=""width: 300px; height: 300px;"" />
    </div>","0","0"
"","","","","","html-keyboard-response","15","190739","0.0-15.0-0.0-0.0","F0354D259CDC4481B3CC0B18BC7F5ECC","ad9f93ad-98a0-44a0-bb56-7766e79aacda","61e1ec61-13c7-4a8f-bf47-a91ec9909364","","null","<div style=""display: flex; justify-content: center; align-items: center;"">
                <img src=""images/causal/causal_series_13/causal_series_13_d.jpg"" style=""width: 300px; height: 300px;"" />
              </div>","null",""
"","","","","","html-keyboard-response","16","193741","0.0-16.0","F0354D259CDC4481B3CC0B18BC7F5ECC","ad9f93ad-98a0-44a0-bb56-7766e79aacda","61e1ec61-13c7-4a8f-bf47-a91ec9909364","","null","<div style=""display: flex; justify-content: center; align-items: center;"">
                <img src=""images/other/blank.jpg"" style=""width: 300px; height: 300px;"" />
              </div>","null",""
"","","","","","html-keyboard-response","17","196743","0.0-17.0","F0354D259CDC4481B3CC0B18BC7F5ECC","ad9f93ad-98a0-44a0-bb56-7766e79aacda","61e1ec61-13c7-4a8f-bf47-a91ec9909364","","null","<div style=""display: flex; justify-content: center; align-items: center;"">
                <img src=""images/causal/causal_series_5/causal_series_5_a.jpg"" style=""width: 300px; height: 300px;"" />
              </div>","null",""
"","","","","","html-keyboard-response","18","199749","0.0-18.0","F0354D259CDC4481B3CC0B18BC7F5ECC","ad9f93ad-98a0-44a0-bb56-7766e79aacda","61e1ec61-13c7-4a8f-bf47-a91ec9909364","","null","<div style=""display: flex; justify-content: center; align-items: center;"">
                <img src=""images/causal/causal_series_5/causal_series_5_b.jpg"" style=""width: 300px; height: 300px;"" />
              </div>","null",""
"","","","","","html-keyboard-response","19","202753","0.0-19.0","F0354D259CDC4481B3CC0B18BC7F5ECC","ad9f93ad-98a0-44a0-bb56-7766e79aacda","61e1ec61-13c7-4a8f-bf47-a91ec9909364","","null","<div style=""display: flex; justify-content: center; align-items: center;"">
                <img src=""images/causal/causal_series_5/causal_series_5_c.jpg"" style=""width: 300px; height: 300px;"" />
              </div>","null",""
"","","","","","html-button-response","20","204037","0.0-20.0","F0354D259CDC4481B3CC0B18BC7F5ECC","ad9f93ad-98a0-44a0-bb56-7766e79aacda","61e1ec61-13c7-4a8f-bf47-a91ec9909364","","1283","
    <div style=""display: flex; justify-content: center; align-items: center;"">
      <img src=""images/red_deck_2.png"" style=""width: 300px; height: 300px; margin-right: 10px;"" />
      <img src=""images/blue_deck_1.png"" style=""width: 300px; height: 300px;"" />
    </div>","1","1"
"","","","","","html-keyboard-response","21","207053","0.0-21.0-1.0-0.0","F0354D259CDC4481B3CC0B18BC7F5ECC","ad9f93ad-98a0-44a0-bb56-7766e79aacda","61e1ec61-13c7-4a8f-bf47-a91ec9909364","","null","<div style=""display: flex; justify-content: center; align-items: center;"">
                <img src=""images/semantic/semantic_series_4/semantic_series_4_d.jpg"" style=""width: 300px; height: 300px;"" />
              </div>","null",""
"","","","","","html-keyboard-response","22","210056","0.0-22.0","F0354D259CDC4481B3CC0B18BC7F5ECC","ad9f93ad-98a0-44a0-bb56-7766e79aacda","61e1ec61-13c7-4a8f-bf47-a91ec9909364","","null","<div style=""display: flex; justify-content: center; align-items: center;"">
                <img src=""images/other/blank.jpg"" style=""width: 300px; height: 300px;"" />
              </div>","null",""
"","","","","","html-keyboard-response","23","213057","0.0-23.0","F0354D259CDC4481B3CC0B18BC7F5ECC","ad9f93ad-98a0-44a0-bb56-7766e79aacda","61e1ec61-13c7-4a8f-bf47-a91ec9909364","","null","<div style=""display: flex; justify-content: center; align-items: center;"">
                <img src=""images/causal/causal_series_11/causal_series_11_a.jpg"" style=""width: 300px; height: 300px;"" />
              </div>","null",""
"","","","","","html-keyboard-response","24","216058","0.0-24.0","F0354D259CDC4481B3CC0B18BC7F5ECC","ad9f93ad-98a0-44a0-bb56-7766e79aacda","61e1ec61-13c7-4a8f-bf47-a91ec9909364","","null","<div style=""display: flex; justify-content: center; align-items: center;"">
                <img src=""images/causal/causal_series_11/causal_series_11_b.jpg"" style=""width: 300px; height: 300px;"" />
              </div>","null",""
"","","","","","html-keyboard-response","25","219073","0.0-25.0","F0354D259CDC4481B3CC0B18BC7F5ECC","ad9f93ad-98a0-44a0-bb56-7766e79aacda","61e1ec61-13c7-4a8f-bf47-a91ec9909364","","null","<div style=""display: flex; justify-content: center; align-items: center;"">
                <img src=""images/causal/causal_series_11/causal_series_11_c.jpg"" style=""width: 300px; height: 300px;"" />
              </div>","null",""
"","","","","","html-button-response","26","219951","0.0-26.0","F0354D259CDC4481B3CC0B18BC7F5ECC","ad9f93ad-98a0-44a0-bb56-7766e79aacda","61e1ec61-13c7-4a8f-bf47-a91ec9909364","","877","
    <div style=""display: flex; justify-content: center; align-items: center;"">
      <img src=""images/red_deck_2.png"" style=""width: 300px; height: 300px; margin-right: 10px;"" />
      <img src=""images/blue_deck_1.png"" style=""width: 300px; height: 300px;"" />
    </div>","1","1"
"","","","","","html-keyboard-response","27","222956","0.0-27.0-1.0-0.0","F0354D259CDC4481B3CC0B18BC7F5ECC","ad9f93ad-98a0-44a0-bb56-7766e79aacda","61e1ec61-13c7-4a8f-bf47-a91ec9909364","","null","<div style=""display: flex; justify-content: center; align-items: center;"">
                <img src=""images/semantic/semantic_series_10/semantic_series_10_d.jpg"" style=""width: 300px; height: 300px;"" />
              </div>","null",""
"","","","","","html-keyboard-response","28","225959","0.0-28.0","F0354D259CDC4481B3CC0B18BC7F5ECC","ad9f93ad-98a0-44a0-bb56-7766e79aacda","61e1ec61-13c7-4a8f-bf47-a91ec9909364","","null","<div style=""display: flex; justify-content: center; align-items: center;"">
                <img src=""images/other/blank.jpg"" style=""width: 300px; height: 300px;"" />
              </div>","null",""
"","","","","","html-keyboard-response","29","228963","0.0-29.0","F0354D259CDC4481B3CC0B18BC7F5ECC","ad9f93ad-98a0-44a0-bb56-7766e79aacda","61e1ec61-13c7-4a8f-bf47-a91ec9909364","","null","<div style=""display: flex; justify-content: center; align-items: center;"">
                <img src=""images/causal/causal_series_14/causal_series_14_a.jpg"" style=""width: 300px; height: 300px;"" />
              </div>","null",""
"","","","","","html-keyboard-response","30","231966","0.0-30.0","F0354D259CDC4481B3CC0B18BC7F5ECC","ad9f93ad-98a0-44a0-bb56-7766e79aacda","61e1ec61-13c7-4a8f-bf47-a91ec9909364","","null","<div style=""display: flex; justify-content: center; align-items: center;"">
                <img src=""images/causal/causal_series_14/causal_series_14_b.jpg"" style=""width: 300px; height: 300px;"" />
              </div>","null",""
"","","","","","html-keyboard-response","31","234973","0.0-31.0","F0354D259CDC4481B3CC0B18BC7F5ECC","ad9f93ad-98a0-44a0-bb56-7766e79aacda","61e1ec61-13c7-4a8f-bf47-a91ec9909364","","null","<div style=""display: flex; justify-content: center; align-items: center;"">
                <img src=""images/causal/causal_series_14/causal_series_14_c.jpg"" style=""width: 300px; height: 300px;"" />
              </div>","null",""
"","","","","","html-button-response","32","248699","0.0-32.0","F0354D259CDC4481B3CC0B18BC7F5ECC","ad9f93ad-98a0-44a0-bb56-7766e79aacda","61e1ec61-13c7-4a8f-bf47-a91ec9909364","","13725","
    <div style=""display: flex; justify-content: center; align-items: center;"">
      <img src=""images/red_deck_2.png"" style=""width: 300px; height: 300px; margin-right: 10px;"" />
      <img src=""images/blue_deck_1.png"" style=""width: 300px; height: 300px;"" />
    </div>","1","1"
"","","","","","html-keyboard-response","33","251706","0.0-33.0-1.0-0.0","F0354D259CDC4481B3CC0B18BC7F5ECC","ad9f93ad-98a0-44a0-bb56-7766e79aacda","61e1ec61-13c7-4a8f-bf47-a91ec9909364","","null","<div style=""display: flex; justify-content: center; align-items: center;"">
                <img src=""images/semantic/semantic_series_13/semantic_series_13_d.jpg"" style=""width: 300px; height: 300px;"" />
              </div>","null",""
"","","","","","html-keyboard-response","34","254712","0.0-34.0","F0354D259CDC4481B3CC0B18BC7F5ECC","ad9f93ad-98a0-44a0-bb56-7766e79aacda","61e1ec61-13c7-4a8f-bf47-a91ec9909364","","null","<div style=""display: flex; justify-content: center; align-items: center;"">
                <img src=""images/other/blank.jpg"" style=""width: 300px; height: 300px;"" />
              </div>","null",""
"","","","","","html-keyboard-response","35","257717","0.0-35.0","F0354D259CDC4481B3CC0B18BC7F5ECC","ad9f93ad-98a0-44a0-bb56-7766e79aacda","61e1ec61-13c7-4a8f-bf47-a91ec9909364","","null","<div style=""display: flex; justify-content: center; align-items: center;"">
                <img src=""images/causal/causal_series_8/causal_series_8_a.jpg"" style=""width: 300px; height: 300px;"" />
              </div>","null",""
"","","","","","html-keyboard-response","36","260723","0.0-36.0","F0354D259CDC4481B3CC0B18BC7F5ECC","ad9f93ad-98a0-44a0-bb56-7766e79aacda","61e1ec61-13c7-4a8f-bf47-a91ec9909364","","null","<div style=""display: flex; justify-content: center; align-items: center;"">
                <img src=""images/causal/causal_series_8/causal_series_8_b.jpg"" style=""width: 300px; height: 300px;"" />
              </div>","null",""
"","","","","","html-keyboard-response","37","263726","0.0-37.0","F0354D259CDC4481B3CC0B18BC7F5ECC","ad9f93ad-98a0-44a0-bb56-7766e79aacda","61e1ec61-13c7-4a8f-bf47-a91ec9909364","","null","<div style=""display: flex; justify-content: center; align-items: center;"">
                <img src=""images/causal/causal_series_8/causal_series_8_c.jpg"" style=""width: 300px; height: 300px;"" />
              </div>","null",""
"","","","","","html-button-response","38","271557","0.0-38.0","F0354D259CDC4481B3CC0B18BC7F5ECC","ad9f93ad-98a0-44a0-bb56-7766e79aacda","61e1ec61-13c7-4a8f-bf47-a91ec9909364","","7830","
    <div style=""display: flex; justify-content: center; align-items: center;"">
      <img src=""images/red_deck_2.png"" style=""width: 300px; height: 300px; margin-right: 10px;"" />
      <img src=""images/blue_deck_1.png"" style=""width: 300px; height: 300px;"" />
    </div>","1","1"
"","","","","","html-keyboard-response","39","274568","0.0-39.0-1.0-0.0","F0354D259CDC4481B3CC0B18BC7F5ECC","ad9f93ad-98a0-44a0-bb56-7766e79aacda","61e1ec61-13c7-4a8f-bf47-a91ec9909364","","null","<div style=""display: flex; justify-content: center; align-items: center;"">
                <img src=""images/semantic/semantic_series_7/semantic_series_7_d.jpg"" style=""width: 300px; height: 300px;"" />
              </div>","null",""
"","","","","","html-keyboard-response","40","277570","0.0-40.0","F0354D259CDC4481B3CC0B18BC7F5ECC","ad9f93ad-98a0-44a0-bb56-7766e79aacda","61e1ec61-13c7-4a8f-bf47-a91ec9909364","","null","<div style=""display: flex; justify-content: center; align-items: center;"">
                <img src=""images/other/blank.jpg"" style=""width: 300px; height: 300px;"" />
              </div>","null",""
"","","","","","html-keyboard-response","41","280574","0.0-41.0","F0354D259CDC4481B3CC0B18BC7F5ECC","ad9f93ad-98a0-44a0-bb56-7766e79aacda","61e1ec61-13c7-4a8f-bf47-a91ec9909364","","null","<div style=""display: flex; justify-content: center; align-items: center;"">
                <img src=""images/causal/causal_series_15/causal_series_15_a.jpg"" style=""width: 300px; height: 300px;"" />
              </div>","null",""
"","","","","","html-keyboard-response","42","283582","0.0-42.0","F0354D259CDC4481B3CC0B18BC7F5ECC","ad9f93ad-98a0-44a0-bb56-7766e79aacda","61e1ec61-13c7-4a8f-bf47-a91ec9909364","","null","<div style=""display: flex; justify-content: center; align-items: center;"">
                <img src=""images/causal/causal_series_15/causal_series_15_b.jpg"" style=""width: 300px; height: 300px;"" />
              </div>","null",""
"","","","","","html-keyboard-response","43","286589","0.0-43.0","F0354D259CDC4481B3CC0B18BC7F5ECC","ad9f93ad-98a0-44a0-bb56-7766e79aacda","61e1ec61-13c7-4a8f-bf47-a91ec9909364","","null","<div style=""display: flex; justify-content: center; align-items: center;"">
                <img src=""images/causal/causal_series_15/causal_series_15_c.jpg"" style=""width: 300px; height: 300px;"" />
              </div>","null",""
"","","","","","html-button-response","44","294118","0.0-44.0","F0354D259CDC4481B3CC0B18BC7F5ECC","ad9f93ad-98a0-44a0-bb56-7766e79aacda","61e1ec61-13c7-4a8f-bf47-a91ec9909364","","7529","
    <div style=""display: flex; justify-content: center; align-items: center;"">
      <img src=""images/red_deck_2.png"" style=""width: 300px; height: 300px; margin-right: 10px;"" />
      <img src=""images/blue_deck_1.png"" style=""width: 300px; height: 300px;"" />
    </div>","1","1"
"","","","","","html-keyboard-response","45","297133","0.0-45.0-1.0-0.0","F0354D259CDC4481B3CC0B18BC7F5ECC","ad9f93ad-98a0-44a0-bb56-7766e79aacda","61e1ec61-13c7-4a8f-bf47-a91ec9909364","","null","<div style=""display: flex; justify-content: center; align-items: center;"">
                <img src=""images/semantic/semantic_series_14/semantic_series_14_d.jpg"" style=""width: 300px; height: 300px;"" />
              </div>","null",""
"","","","","","html-keyboard-response","46","300146","0.0-46.0","F0354D259CDC4481B3CC0B18BC7F5ECC","ad9f93ad-98a0-44a0-bb56-7766e79aacda","61e1ec61-13c7-4a8f-bf47-a91ec9909364","","null","<div style=""display: flex; justify-content: center; align-items: center;"">
                <img src=""images/other/blank.jpg"" style=""width: 300px; height: 300px;"" />
              </div>","null",""
"","","","","","html-keyboard-response","47","303152","0.0-47.0","F0354D259CDC4481B3CC0B18BC7F5ECC","ad9f93ad-98a0-44a0-bb56-7766e79aacda","61e1ec61-13c7-4a8f-bf47-a91ec9909364","","null","<div style=""display: flex; justify-content: center; align-items: center;"">
                <img src=""images/causal/causal_series_6/causal_series_6_a.jpg"" style=""width: 300px; height: 300px;"" />
              </div>","null",""
"","","","","","html-keyboard-response","48","306155","0.0-48.0","F0354D259CDC4481B3CC0B18BC7F5ECC","ad9f93ad-98a0-44a0-bb56-7766e79aacda","61e1ec61-13c7-4a8f-bf47-a91ec9909364","","null","<div style=""display: flex; justify-content: center; align-items: center;"">
                <img src=""images/causal/causal_series_6/causal_series_6_b.jpg"" style=""width: 300px; height: 300px;"" />
              </div>","null",""
"","","","","","html-keyboard-response","49","309161","0.0-49.0","F0354D259CDC4481B3CC0B18BC7F5ECC","ad9f93ad-98a0-44a0-bb56-7766e79aacda","61e1ec61-13c7-4a8f-bf47-a91ec9909364","","null","<div style=""display: flex; justify-content: center; align-items: center;"">
                <img src=""images/causal/causal_series_6/causal_series_6_c.jpg"" style=""width: 300px; height: 300px;"" />
              </div>","null",""
"","","","","","html-button-response","50","310858","0.0-50.0","F0354D259CDC4481B3CC0B18BC7F5ECC","ad9f93ad-98a0-44a0-bb56-7766e79aacda","61e1ec61-13c7-4a8f-bf47-a91ec9909364","","1697","
    <div style=""display: flex; justify-content: center; align-items: center;"">
      <img src=""images/red_deck_2.png"" style=""width: 300px; height: 300px; margin-right: 10px;"" />
      <img src=""images/blue_deck_1.png"" style=""width: 300px; height: 300px;"" />
    </div>","1","1"
"","","","","","html-keyboard-response","51","313867","0.0-51.0-1.0-0.0","F0354D259CDC4481B3CC0B18BC7F5ECC","ad9f93ad-98a0-44a0-bb56-7766e79aacda","61e1ec61-13c7-4a8f-bf47-a91ec9909364","","null","<div style=""display: flex; justify-content: center; align-items: center;"">
                <img src=""images/semantic/semantic_series_5/semantic_series_5_d.jpg"" style=""width: 300px; height: 300px;"" />
              </div>","null",""
"","","","","","html-keyboard-response","52","316882","0.0-52.0","F0354D259CDC4481B3CC0B18BC7F5ECC","ad9f93ad-98a0-44a0-bb56-7766e79aacda","61e1ec61-13c7-4a8f-bf47-a91ec9909364","","null","<div style=""display: flex; justify-content: center; align-items: center;"">
                <img src=""images/other/blank.jpg"" style=""width: 300px; height: 300px;"" />
              </div>","null",""
"","","","","","html-keyboard-response","53","319887","0.0-53.0","F0354D259CDC4481B3CC0B18BC7F5ECC","ad9f93ad-98a0-44a0-bb56-7766e79aacda","61e1ec61-13c7-4a8f-bf47-a91ec9909364","","null","<div style=""display: flex; justify-content: center; align-items: center;"">
                <img src=""images/causal/causal_series_17/causal_series_17_a.jpg"" style=""width: 300px; height: 300px;"" />
              </div>","null",""
"","","","","","html-keyboard-response","54","322889","0.0-54.0","F0354D259CDC4481B3CC0B18BC7F5ECC","ad9f93ad-98a0-44a0-bb56-7766e79aacda","61e1ec61-13c7-4a8f-bf47-a91ec9909364","","null","<div style=""display: flex; justify-content: center; align-items: center;"">
                <img src=""images/causal/causal_series_17/causal_series_17_b.jpg"" style=""width: 300px; height: 300px;"" />
              </div>","null",""
"","","","","","html-keyboard-response","55","325904","0.0-55.0","F0354D259CDC4481B3CC0B18BC7F5ECC","ad9f93ad-98a0-44a0-bb56-7766e79aacda","61e1ec61-13c7-4a8f-bf47-a91ec9909364","","null","<div style=""display: flex; justify-content: center; align-items: center;"">
                <img src=""images/causal/causal_series_17/causal_series_17_c.jpg"" style=""width: 300px; height: 300px;"" />
              </div>","null",""
"","","","","","html-button-response","56","327696","0.0-56.0","F0354D259CDC4481B3CC0B18BC7F5ECC","ad9f93ad-98a0-44a0-bb56-7766e79aacda","61e1ec61-13c7-4a8f-bf47-a91ec9909364","","1790","
    <div style=""display: flex; justify-content: center; align-items: center;"">
      <img src=""images/red_deck_2.png"" style=""width: 300px; height: 300px; margin-right: 10px;"" />
      <img src=""images/blue_deck_1.png"" style=""width: 300px; height: 300px;"" />
    </div>","1","1"
"","","","","","html-keyboard-response","57","330705","0.0-57.0-1.0-0.0","F0354D259CDC4481B3CC0B18BC7F5ECC","ad9f93ad-98a0-44a0-bb56-7766e79aacda","61e1ec61-13c7-4a8f-bf47-a91ec9909364","","null","<div style=""display: flex; justify-content: center; align-items: center;"">
                <img src=""images/semantic/semantic_series_16/semantic_series_16_d.jpg"" style=""width: 300px; height: 300px;"" />
              </div>","null",""
"","","","","","html-keyboard-response","58","333708","0.0-58.0","F0354D259CDC4481B3CC0B18BC7F5ECC","ad9f93ad-98a0-44a0-bb56-7766e79aacda","61e1ec61-13c7-4a8f-bf47-a91ec9909364","","null","<div style=""display: flex; justify-content: center; align-items: center;"">
                <img src=""images/other/blank.jpg"" style=""width: 300px; height: 300px;"" />
              </div>","null",""
"","","","","","html-keyboard-response","59","336722","0.0-59.0","F0354D259CDC4481B3CC0B18BC7F5ECC","ad9f93ad-98a0-44a0-bb56-7766e79aacda","61e1ec61-13c7-4a8f-bf47-a91ec9909364","","null","<div style=""display: flex; justify-content: center; align-items: center;"">
                <img src=""images/causal/causal_series_2/causal_series_2_a.jpg"" style=""width: 300px; height: 300px;"" />
              </div>","null",""
"","","","","","html-keyboard-response","60","339723","0.0-60.0","F0354D259CDC4481B3CC0B18BC7F5ECC","ad9f93ad-98a0-44a0-bb56-7766e79aacda","61e1ec61-13c7-4a8f-bf47-a91ec9909364","","null","<div style=""display: flex; justify-content: center; align-items: center;"">
                <img src=""images/causal/causal_series_2/causal_series_2_b.jpg"" style=""width: 300px; height: 300px;"" />
              </div>","null",""
"","","","","","html-keyboard-response","61","342725","0.0-61.0","F0354D259CDC4481B3CC0B18BC7F5ECC","ad9f93ad-98a0-44a0-bb56-7766e79aacda","61e1ec61-13c7-4a8f-bf47-a91ec9909364","","null","<div style=""display: flex; justify-content: center; align-items: center;"">
                <img src=""images/causal/causal_series_2/causal_series_2_c.jpg"" style=""width: 300px; height: 300px;"" />
              </div>","null",""
"","","","","","html-button-response","62","344742","0.0-62.0","F0354D259CDC4481B3CC0B18BC7F5ECC","ad9f93ad-98a0-44a0-bb56-7766e79aacda","61e1ec61-13c7-4a8f-bf47-a91ec9909364","","2016","
    <div style=""display: flex; justify-content: center; align-items: center;"">
      <img src=""images/red_deck_2.png"" style=""width: 300px; height: 300px; margin-right: 10px;"" />
      <img src=""images/blue_deck_1.png"" style=""width: 300px; height: 300px;"" />
    </div>","1","1"
"","","","","","html-keyboard-response","63","347750","0.0-63.0-1.0-0.0","F0354D259CDC4481B3CC0B18BC7F5ECC","ad9f93ad-98a0-44a0-bb56-7766e79aacda","61e1ec61-13c7-4a8f-bf47-a91ec9909364","","null","<div style=""display: flex; justify-content: center; align-items: center;"">
                <img src=""images/semantic/semantic_series_1/semantic_series_1_d.jpg"" style=""width: 300px; height: 300px;"" />
              </div>","null",""
"","","","","","html-keyboard-response","64","350764","0.0-64.0","F0354D259CDC4481B3CC0B18BC7F5ECC","ad9f93ad-98a0-44a0-bb56-7766e79aacda","61e1ec61-13c7-4a8f-bf47-a91ec9909364","","null","<div style=""display: flex; justify-content: center; align-items: center;"">
                <img src=""images/other/blank.jpg"" style=""width: 300px; height: 300px;"" />
              </div>","null",""
"","","","","","html-keyboard-response","65","353778","0.0-65.0","F0354D259CDC4481B3CC0B18BC7F5ECC","ad9f93ad-98a0-44a0-bb56-7766e79aacda","61e1ec61-13c7-4a8f-bf47-a91ec9909364","","null","<div style=""display: flex; justify-content: center; align-items: center;"">
                <img src=""images/causal/causal_series_10/causal_series_10_a.jpg"" style=""width: 300px; height: 300px;"" />
              </div>","null",""
"","","","","","html-keyboard-response","66","356793","0.0-66.0","F0354D259CDC4481B3CC0B18BC7F5ECC","ad9f93ad-98a0-44a0-bb56-7766e79aacda","61e1ec61-13c7-4a8f-bf47-a91ec9909364","","null","<div style=""display: flex; justify-content: center; align-items: center;"">
                <img src=""images/causal/causal_series_10/causal_series_10_b.jpg"" style=""width: 300px; height: 300px;"" />
              </div>","null",""
"","","","","","html-keyboard-response","67","359795","0.0-67.0","F0354D259CDC4481B3CC0B18BC7F5ECC","ad9f93ad-98a0-44a0-bb56-7766e79aacda","61e1ec61-13c7-4a8f-bf47-a91ec9909364","","null","<div style=""display: flex; justify-content: center; align-items: center;"">
                <img src=""images/causal/causal_series_10/causal_series_10_c.jpg"" style=""width: 300px; height: 300px;"" />
              </div>","null",""
"","","","","","html-button-response","68","361432","0.0-68.0","F0354D259CDC4481B3CC0B18BC7F5ECC","ad9f93ad-98a0-44a0-bb56-7766e79aacda","61e1ec61-13c7-4a8f-bf47-a91ec9909364","","1636","
    <div style=""display: flex; justify-content: center; align-items: center;"">
      <img src=""images/red_deck_2.png"" style=""width: 300px; height: 300px; margin-right: 10px;"" />
      <img src=""images/blue_deck_1.png"" style=""width: 300px; height: 300px;"" />
    </div>","1","1"
"","","","","","html-keyboard-response","69","364443","0.0-69.0-1.0-0.0","F0354D259CDC4481B3CC0B18BC7F5ECC","ad9f93ad-98a0-44a0-bb56-7766e79aacda","61e1ec61-13c7-4a8f-bf47-a91ec9909364","","null","<div style=""display: flex; justify-content: center; align-items: center;"">
                <img src=""images/semantic/semantic_series_9/semantic_series_9_d.jpg"" style=""width: 300px; height: 300px;"" />
              </div>","null",""
"","","","","","html-keyboard-response","70","367458","0.0-70.0","F0354D259CDC4481B3CC0B18BC7F5ECC","ad9f93ad-98a0-44a0-bb56-7766e79aacda","61e1ec61-13c7-4a8f-bf47-a91ec9909364","","null","<div style=""display: flex; justify-content: center; align-items: center;"">
                <img src=""images/other/blank.jpg"" style=""width: 300px; height: 300px;"" />
              </div>","null",""
"","","","","","html-keyboard-response","71","370474","0.0-71.0","F0354D259CDC4481B3CC0B18BC7F5ECC","ad9f93ad-98a0-44a0-bb56-7766e79aacda","61e1ec61-13c7-4a8f-bf47-a91ec9909364","","null","<div style=""display: flex; justify-content: center; align-items: center;"">
                <img src=""images/causal/causal_series_16/causal_series_16_a.jpg"" style=""width: 300px; height: 300px;"" />
              </div>","null",""
"","","","","","html-keyboard-response","72","373477","0.0-72.0","F0354D259CDC4481B3CC0B18BC7F5ECC","ad9f93ad-98a0-44a0-bb56-7766e79aacda","61e1ec61-13c7-4a8f-bf47-a91ec9909364","","null","<div style=""display: flex; justify-content: center; align-items: center;"">
                <img src=""images/causal/causal_series_16/causal_series_16_b.jpg"" style=""width: 300px; height: 300px;"" />
              </div>","null",""
"","","","","","html-keyboard-response","73","376492","0.0-73.0","F0354D259CDC4481B3CC0B18BC7F5ECC","ad9f93ad-98a0-44a0-bb56-7766e79aacda","61e1ec61-13c7-4a8f-bf47-a91ec9909364","","null","<div style=""display: flex; justify-content: center; align-items: center;"">
                <img src=""images/causal/causal_series_16/causal_series_16_c.jpg"" style=""width: 300px; height: 300px;"" />
              </div>","null",""
"","","","","","html-button-response","74","380054","0.0-74.0","F0354D259CDC4481B3CC0B18BC7F5ECC","ad9f93ad-98a0-44a0-bb56-7766e79aacda","61e1ec61-13c7-4a8f-bf47-a91ec9909364","","3561","
    <div style=""display: flex; justify-content: center; align-items: center;"">
      <img src=""images/red_deck_2.png"" style=""width: 300px; height: 300px; margin-right: 10px;"" />
      <img src=""images/blue_deck_1.png"" style=""width: 300px; height: 300px;"" />
    </div>","1","1"
"","","","","","html-keyboard-response","75","383070","0.0-75.0-1.0-0.0","F0354D259CDC4481B3CC0B18BC7F5ECC","ad9f93ad-98a0-44a0-bb56-7766e79aacda","61e1ec61-13c7-4a8f-bf47-a91ec9909364","","null","<div style=""display: flex; justify-content: center; align-items: center;"">
                <img src=""images/semantic/semantic_series_15/semantic_series_15_d.jpg"" style=""width: 300px; height: 300px;"" />
              </div>","null",""
"","","","","","html-keyboard-response","76","386072","0.0-76.0","F0354D259CDC4481B3CC0B18BC7F5ECC","ad9f93ad-98a0-44a0-bb56-7766e79aacda","61e1ec61-13c7-4a8f-bf47-a91ec9909364","","null","<div style=""display: flex; justify-content: center; align-items: center;"">
                <img src=""images/other/blank.jpg"" style=""width: 300px; height: 300px;"" />
              </div>","null",""
"","","","","","html-keyboard-response","77","389077","0.0-77.0","F0354D259CDC4481B3CC0B18BC7F5ECC","ad9f93ad-98a0-44a0-bb56-7766e79aacda","61e1ec61-13c7-4a8f-bf47-a91ec9909364","","null","<div style=""display: flex; justify-content: center; align-items: center;"">
                <img src=""images/causal/causal_series_1/causal_series_1_a.jpg"" style=""width: 300px; height: 300px;"" />
              </div>","null",""
"","","","","","html-keyboard-response","78","392083","0.0-78.0","F0354D259CDC4481B3CC0B18BC7F5ECC","ad9f93ad-98a0-44a0-bb56-7766e79aacda","61e1ec61-13c7-4a8f-bf47-a91ec9909364","","null","<div style=""display: flex; justify-content: center; align-items: center;"">
                <img src=""images/causal/causal_series_1/causal_series_1_b.jpg"" style=""width: 300px; height: 300px;"" />
              </div>","null",""
"","","","","","html-keyboard-response","79","395089","0.0-79.0","F0354D259CDC4481B3CC0B18BC7F5ECC","ad9f93ad-98a0-44a0-bb56-7766e79aacda","61e1ec61-13c7-4a8f-bf47-a91ec9909364","","null","<div style=""display: flex; justify-content: center; align-items: center;"">
                <img src=""images/causal/causal_series_1/causal_series_1_c.jpg"" style=""width: 300px; height: 300px;"" />
              </div>","null",""
"","","","","","html-button-response","80","407897","0.0-80.0","F0354D259CDC4481B3CC0B18BC7F5ECC","ad9f93ad-98a0-44a0-bb56-7766e79aacda","61e1ec61-13c7-4a8f-bf47-a91ec9909364","","12808","
    <div style=""display: flex; justify-content: center; align-items: center;"">
      <img src=""images/red_deck_2.png"" style=""width: 300px; height: 300px; margin-right: 10px;"" />
      <img src=""images/blue_deck_1.png"" style=""width: 300px; height: 300px;"" />
    </div>","1","1"
"","","","","","html-keyboard-response","81","410912","0.0-81.0-1.0-0.0","F0354D259CDC4481B3CC0B18BC7F5ECC","ad9f93ad-98a0-44a0-bb56-7766e79aacda","61e1ec61-13c7-4a8f-bf47-a91ec9909364","","null","<div style=""display: flex; justify-content: center; align-items: center;"">
                <img src=""images/semantic/semantic_series_18/semantic_series_18_d.jpg"" style=""width: 300px; height: 300px;"" />
              </div>","null",""
"","","","","","html-keyboard-response","82","413926","0.0-82.0","F0354D259CDC4481B3CC0B18BC7F5ECC","ad9f93ad-98a0-44a0-bb56-7766e79aacda","61e1ec61-13c7-4a8f-bf47-a91ec9909364","","null","<div style=""display: flex; justify-content: center; align-items: center;"">
                <img src=""images/other/blank.jpg"" style=""width: 300px; height: 300px;"" />
              </div>","null",""
"","","","","","html-keyboard-response","83","416929","0.0-83.0","F0354D259CDC4481B3CC0B18BC7F5ECC","ad9f93ad-98a0-44a0-bb56-7766e79aacda","61e1ec61-13c7-4a8f-bf47-a91ec9909364","","null","<div style=""display: flex; justify-content: center; align-items: center;"">
                <img src=""images/causal/causal_series_3/causal_series_3_a.jpg"" style=""width: 300px; height: 300px;"" />
              </div>","null",""
"","","","","","html-keyboard-response","84","419933","0.0-84.0","F0354D259CDC4481B3CC0B18BC7F5ECC","ad9f93ad-98a0-44a0-bb56-7766e79aacda","61e1ec61-13c7-4a8f-bf47-a91ec9909364","","null","<div style=""display: flex; justify-content: center; align-items: center;"">
                <img src=""images/causal/causal_series_3/causal_series_3_b.jpg"" style=""width: 300px; height: 300px;"" />
              </div>","null",""
"","","","","","html-keyboard-response","85","422949","0.0-85.0","F0354D259CDC4481B3CC0B18BC7F5ECC","ad9f93ad-98a0-44a0-bb56-7766e79aacda","61e1ec61-13c7-4a8f-bf47-a91ec9909364","","null","<div style=""display: flex; justify-content: center; align-items: center;"">
                <img src=""images/causal/causal_series_3/causal_series_3_c.jpg"" style=""width: 300px; height: 300px;"" />
              </div>","null",""
"","","","","","html-button-response","86","432798","0.0-86.0","F0354D259CDC4481B3CC0B18BC7F5ECC","ad9f93ad-98a0-44a0-bb56-7766e79aacda","61e1ec61-13c7-4a8f-bf47-a91ec9909364","","9849","
    <div style=""display: flex; justify-content: center; align-items: center;"">
      <img src=""images/red_deck_2.png"" style=""width: 300px; height: 300px; margin-right: 10px;"" />
      <img src=""images/blue_deck_1.png"" style=""width: 300px; height: 300px;"" />
    </div>","0","0"
"","","","","","html-keyboard-response","87","435803","0.0-87.0-0.0-0.0","F0354D259CDC4481B3CC0B18BC7F5ECC","ad9f93ad-98a0-44a0-bb56-7766e79aacda","61e1ec61-13c7-4a8f-bf47-a91ec9909364","","null","<div style=""display: flex; justify-content: center; align-items: center;"">
                <img src=""images/causal/causal_series_3/causal_series_3_d.jpg"" style=""width: 300px; height: 300px;"" />
              </div>","null",""
"","","","","","html-keyboard-response","88","438809","0.0-88.0","F0354D259CDC4481B3CC0B18BC7F5ECC","ad9f93ad-98a0-44a0-bb56-7766e79aacda","61e1ec61-13c7-4a8f-bf47-a91ec9909364","","null","<div style=""display: flex; justify-content: center; align-items: center;"">
                <img src=""images/other/blank.jpg"" style=""width: 300px; height: 300px;"" />
              </div>","null",""
"","","","","","html-keyboard-response","89","441813","0.0-89.0","F0354D259CDC4481B3CC0B18BC7F5ECC","ad9f93ad-98a0-44a0-bb56-7766e79aacda","61e1ec61-13c7-4a8f-bf47-a91ec9909364","","null","<div style=""display: flex; justify-content: center; align-items: center;"">
                <img src=""images/causal/causal_series_9/causal_series_9_a.jpg"" style=""width: 300px; height: 300px;"" />
              </div>","null",""
"","","","","","html-keyboard-response","90","444819","0.0-90.0","F0354D259CDC4481B3CC0B18BC7F5ECC","ad9f93ad-98a0-44a0-bb56-7766e79aacda","61e1ec61-13c7-4a8f-bf47-a91ec9909364","","null","<div style=""display: flex; justify-content: center; align-items: center;"">
                <img src=""images/causal/causal_series_9/causal_series_9_b.jpg"" style=""width: 300px; height: 300px;"" />
              </div>","null",""
"","","","","","html-keyboard-response","91","447821","0.0-91.0","F0354D259CDC4481B3CC0B18BC7F5ECC","ad9f93ad-98a0-44a0-bb56-7766e79aacda","61e1ec61-13c7-4a8f-bf47-a91ec9909364","","null","<div style=""display: flex; justify-content: center; align-items: center;"">
                <img src=""images/causal/causal_series_9/causal_series_9_c.jpg"" style=""width: 300px; height: 300px;"" />
              </div>","null",""
"","","","","","html-button-response","92","456277","0.0-92.0","F0354D259CDC4481B3CC0B18BC7F5ECC","ad9f93ad-98a0-44a0-bb56-7766e79aacda","61e1ec61-13c7-4a8f-bf47-a91ec9909364","","8455","
    <div style=""display: flex; justify-content: center; align-items: center;"">
      <img src=""images/red_deck_2.png"" style=""width: 300px; height: 300px; margin-right: 10px;"" />
      <img src=""images/blue_deck_1.png"" style=""width: 300px; height: 300px;"" />
    </div>","0","0"
"","","","","","html-keyboard-response","93","459286","0.0-93.0-0.0-0.0","F0354D259CDC4481B3CC0B18BC7F5ECC","ad9f93ad-98a0-44a0-bb56-7766e79aacda","61e1ec61-13c7-4a8f-bf47-a91ec9909364","","null","<div style=""display: flex; justify-content: center; align-items: center;"">
                <img src=""images/causal/causal_series_9/causal_series_9_d.jpg"" style=""width: 300px; height: 300px;"" />
              </div>","null",""
"","","","","","html-keyboard-response","94","462296","0.0-94.0","F0354D259CDC4481B3CC0B18BC7F5ECC","ad9f93ad-98a0-44a0-bb56-7766e79aacda","61e1ec61-13c7-4a8f-bf47-a91ec9909364","","null","<div style=""display: flex; justify-content: center; align-items: center;"">
                <img src=""images/other/blank.jpg"" style=""width: 300px; height: 300px;"" />
              </div>","null",""
"","","","","","html-keyboard-response","95","465310","0.0-95.0","F0354D259CDC4481B3CC0B18BC7F5ECC","ad9f93ad-98a0-44a0-bb56-7766e79aacda","61e1ec61-13c7-4a8f-bf47-a91ec9909364","","null","<div style=""display: flex; justify-content: center; align-items: center;"">
                <img src=""images/causal/causal_series_12/causal_series_12_a.jpg"" style=""width: 300px; height: 300px;"" />
              </div>","null",""
"","","","","","html-keyboard-response","96","468318","0.0-96.0","F0354D259CDC4481B3CC0B18BC7F5ECC","ad9f93ad-98a0-44a0-bb56-7766e79aacda","61e1ec61-13c7-4a8f-bf47-a91ec9909364","","null","<div style=""display: flex; justify-content: center; align-items: center;"">
                <img src=""images/causal/causal_series_12/causal_series_12_b.jpg"" style=""width: 300px; height: 300px;"" />
              </div>","null",""
"","","","","","html-keyboard-response","97","471319","0.0-97.0","F0354D259CDC4481B3CC0B18BC7F5ECC","ad9f93ad-98a0-44a0-bb56-7766e79aacda","61e1ec61-13c7-4a8f-bf47-a91ec9909364","","null","<div style=""display: flex; justify-content: center; align-items: center;"">
                <img src=""images/causal/causal_series_12/causal_series_12_c.jpg"" style=""width: 300px; height: 300px;"" />
              </div>","null",""
"","","","","","html-button-response","98","473030","0.0-98.0","F0354D259CDC4481B3CC0B18BC7F5ECC","ad9f93ad-98a0-44a0-bb56-7766e79aacda","61e1ec61-13c7-4a8f-bf47-a91ec9909364","","1710","
    <div style=""display: flex; justify-content: center; align-items: center;"">
      <img src=""images/red_deck_2.png"" style=""width: 300px; height: 300px; margin-right: 10px;"" />
      <img src=""images/blue_deck_1.png"" style=""width: 300px; height: 300px;"" />
    </div>","0","0"
"","","","","","html-keyboard-response","99","476044","0.0-99.0-0.0-0.0","F0354D259CDC4481B3CC0B18BC7F5ECC","ad9f93ad-98a0-44a0-bb56-7766e79aacda","61e1ec61-13c7-4a8f-bf47-a91ec9909364","","null","<div style=""display: flex; justify-content: center; align-items: center;"">
                <img src=""images/causal/causal_series_12/causal_series_12_d.jpg"" style=""width: 300px; height: 300px;"" />
              </div>","null",""
"","","","","","html-keyboard-response","100","479048","0.0-100.0","F0354D259CDC4481B3CC0B18BC7F5ECC","ad9f93ad-98a0-44a0-bb56-7766e79aacda","61e1ec61-13c7-4a8f-bf47-a91ec9909364","","null","<div style=""display: flex; justify-content: center; align-items: center;"">
                <img src=""images/other/blank.jpg"" style=""width: 300px; height: 300px;"" />
              </div>","null",""
"","","","","","html-keyboard-response","101","482052","0.0-101.0","F0354D259CDC4481B3CC0B18BC7F5ECC","ad9f93ad-98a0-44a0-bb56-7766e79aacda","61e1ec61-13c7-4a8f-bf47-a91ec9909364","","null","<div style=""display: flex; justify-content: center; align-items: center;"">
                <img src=""images/causal/causal_series_18/causal_series_18_a.jpg"" style=""width: 300px; height: 300px;"" />
              </div>","null",""
"","","","","","html-keyboard-response","102","485059","0.0-102.0","F0354D259CDC4481B3CC0B18BC7F5ECC","ad9f93ad-98a0-44a0-bb56-7766e79aacda","61e1ec61-13c7-4a8f-bf47-a91ec9909364","","null","<div style=""display: flex; justify-content: center; align-items: center;"">
                <img src=""images/causal/causal_series_18/causal_series_18_b.jpg"" style=""width: 300px; height: 300px;"" />
              </div>","null",""
"","","","","","html-keyboard-response","103","488064","0.0-103.0","F0354D259CDC4481B3CC0B18BC7F5ECC","ad9f93ad-98a0-44a0-bb56-7766e79aacda","61e1ec61-13c7-4a8f-bf47-a91ec9909364","","null","<div style=""display: flex; justify-content: center; align-items: center;"">
                <img src=""images/causal/causal_series_18/causal_series_18_c.jpg"" style=""width: 300px; height: 300px;"" />
              </div>","null",""
"","","","","","html-button-response","104","489941","0.0-104.0","F0354D259CDC4481B3CC0B18BC7F5ECC","ad9f93ad-98a0-44a0-bb56-7766e79aacda","61e1ec61-13c7-4a8f-bf47-a91ec9909364","","1876","
    <div style=""display: flex; justify-content: center; align-items: center;"">
      <img src=""images/red_deck_2.png"" style=""width: 300px; height: 300px; margin-right: 10px;"" />
      <img src=""images/blue_deck_1.png"" style=""width: 300px; height: 300px;"" />
    </div>","0","0"
"","","","","","html-keyboard-response","105","492957","0.0-105.0-0.0-0.0","F0354D259CDC4481B3CC0B18BC7F5ECC","ad9f93ad-98a0-44a0-bb56-7766e79aacda","61e1ec61-13c7-4a8f-bf47-a91ec9909364","","null","<div style=""display: flex; justify-content: center; align-items: center;"">
                <img src=""images/causal/causal_series_18/causal_series_18_d.jpg"" style=""width: 300px; height: 300px;"" />
              </div>","null",""
"","","","","","html-keyboard-response","106","495958","0.0-106.0","F0354D259CDC4481B3CC0B18BC7F5ECC","ad9f93ad-98a0-44a0-bb56-7766e79aacda","61e1ec61-13c7-4a8f-bf47-a91ec9909364","","null","<div style=""display: flex; justify-content: center; align-items: center;"">
                <img src=""images/other/blank.jpg"" style=""width: 300px; height: 300px;"" />
              </div>","null",""
"","","","","","html-keyboard-response","107","498964","0.0-107.0","F0354D259CDC4481B3CC0B18BC7F5ECC","ad9f93ad-98a0-44a0-bb56-7766e79aacda","61e1ec61-13c7-4a8f-bf47-a91ec9909364","","null","<div style=""display: flex; justify-content: center; align-items: center;"">
                <img src=""images/causal/causal_series_4/causal_series_4_a.jpg"" style=""width: 300px; height: 300px;"" />
              </div>","null",""
"","","","","","html-keyboard-response","108","501970","0.0-108.0","F0354D259CDC4481B3CC0B18BC7F5ECC","ad9f93ad-98a0-44a0-bb56-7766e79aacda","61e1ec61-13c7-4a8f-bf47-a91ec9909364","","null","<div style=""display: flex; justify-content: center; align-items: center;"">
                <img src=""images/causal/causal_series_4/causal_series_4_b.jpg"" style=""width: 300px; height: 300px;"" />
              </div>","null",""
"","","","","","html-keyboard-response","109","504975","0.0-109.0","F0354D259CDC4481B3CC0B18BC7F5ECC","ad9f93ad-98a0-44a0-bb56-7766e79aacda","61e1ec61-13c7-4a8f-bf47-a91ec9909364","","null","<div style=""display: flex; justify-content: center; align-items: center;"">
                <img src=""images/causal/causal_series_4/causal_series_4_c.jpg"" style=""width: 300px; height: 300px;"" />
              </div>","null",""
"","","","","","html-button-response","110","507245","0.0-110.0","F0354D259CDC4481B3CC0B18BC7F5ECC","ad9f93ad-98a0-44a0-bb56-7766e79aacda","61e1ec61-13c7-4a8f-bf47-a91ec9909364","","2269","
    <div style=""display: flex; justify-content: center; align-items: center;"">
      <img src=""images/red_deck_2.png"" style=""width: 300px; height: 300px; margin-right: 10px;"" />
      <img src=""images/blue_deck_1.png"" style=""width: 300px; height: 300px;"" />
    </div>","0","0"
"","","","","","html-keyboard-response","111","510258","0.0-111.0-0.0-0.0","F0354D259CDC4481B3CC0B18BC7F5ECC","ad9f93ad-98a0-44a0-bb56-7766e79aacda","61e1ec61-13c7-4a8f-bf47-a91ec9909364","","null","<div style=""display: flex; justify-content: center; align-items: center;"">
                <img src=""images/causal/causal_series_4/causal_series_4_d.jpg"" style=""width: 300px; height: 300px;"" />
              </div>","null",""
"","","","","","html-keyboard-response","112","513260","0.0-112.0","F0354D259CDC4481B3CC0B18BC7F5ECC","ad9f93ad-98a0-44a0-bb56-7766e79aacda","61e1ec61-13c7-4a8f-bf47-a91ec9909364","","null","<div style=""display: flex; justify-content: center; align-items: center;"">
                <img src=""images/other/blank.jpg"" style=""width: 300px; height: 300px;"" />
              </div>","null",""
"","","","","","survey-text","113","545148","0.0-113.0","F0354D259CDC4481B3CC0B18BC7F5ECC","ad9f93ad-98a0-44a0-bb56-7766e79aacda","61e1ec61-13c7-4a8f-bf47-a91ec9909364","","31883","","{""Q0"":""one deck of cards had real life images that were probably AI created with stories the other was just images without stories all draw.""}",""
"","","","","","survey-text","114","563642","0.0-114.0","F0354D259CDC4481B3CC0B18BC7F5ECC","ad9f93ad-98a0-44a0-bb56-7766e79aacda","61e1ec61-13c7-4a8f-bf47-a91ec9909364","","18490","","{""Q0"":""I think the deck without the stories was more interesting because I was trying to figure out what was happening.""}",""
"","","","","","html-button-response","115","575652","0.0-115.0","F0354D259CDC4481B3CC0B18BC7F5ECC","ad9f93ad-98a0-44a0-bb56-7766e79aacda","61e1ec61-13c7-4a8f-bf47-a91ec9909364","","12009","Which color deck does the fourth image continue the story from the series?","0",""
"","","","","","html-button-response","116","577608","0.0-116.0","F0354D259CDC4481B3CC0B18BC7F5ECC","ad9f93ad-98a0-44a0-bb56-7766e79aacda","61e1ec61-13c7-4a8f-bf47-a91ec9909364","","1955","Which color deck does the fourth image not follow the story from the series?","1",""
"","","","","","survey-text","117","582266","0.0-117.0","F0354D259CDC4481B3CC0B18BC7F5ECC","ad9f93ad-98a0-44a0-bb56-7766e79aacda","61e1ec61-13c7-4a8f-bf47-a91ec9909364","","4653","","{""Q0"":""Male"",""Q1"":""24""}",""
"","","","","","instructions","118","590555","0.0-118.0","F0354D259CDC4481B3CC0B18BC7F5ECC","ad9f93ad-98a0-44a0-bb56-7766e79aacda","61e1ec61-13c7-4a8f-bf47-a91ec9909364","[{""page_index"":0,""viewing_time"":8289}]","8289","","",""
