"success","timeout","failed_images","failed_audio","failed_video","trial_type","trial_index","time_elapsed","internal_node_id","subject_id","study_id","session_id","view_history","rt","stimulus","response","choice"
"true","false","[]","[]","[]","preload","0","1126","0.0-0.0","6D87F2B153954ACC8A746A48872AE6B1","f37e90be-2a9a-4a8f-a808-9586d33a76c0","23db58b9-63b0-4bce-8714-07ce439e665e","","","","",""
"","","","","","instructions","1","2322","0.0-1.0","6D87F2B153954ACC8A746A48872AE6B1","f37e90be-2a9a-4a8f-a808-9586d33a76c0","23db58b9-63b0-4bce-8714-07ce439e665e","[{""page_index"":0,""viewing_time"":1196}]","1196","","",""
"","","","","","instructions","2","4542","0.0-2.0","6D87F2B153954ACC8A746A48872AE6B1","f37e90be-2a9a-4a8f-a808-9586d33a76c0","23db58b9-63b0-4bce-8714-07ce439e665e","[{""page_index"":0,""viewing_time"":2219}]","2219","","",""
"true","","","","","fullscreen","3","6895","0.0-3.0","6D87F2B153954ACC8A746A48872AE6B1","f37e90be-2a9a-4a8f-a808-9586d33a76c0","23db58b9-63b0-4bce-8714-07ce439e665e","","1349","","",""
"","","","","","instructions","4","14772","0.0-4.0","6D87F2B153954ACC8A746A48872AE6B1","f37e90be-2a9a-4a8f-a808-9586d33a76c0","23db58b9-63b0-4bce-8714-07ce439e665e","[{""page_index"":0,""viewing_time"":7876}]","7877","","",""
"","","","","","html-keyboard-response","5","17783","0.0-5.0","6D87F2B153954ACC8A746A48872AE6B1","f37e90be-2a9a-4a8f-a808-9586d33a76c0","23db58b9-63b0-4bce-8714-07ce439e665e","","null","<div style=""display: flex; justify-content: center; align-items: center;"">
                <img src=""images/causal/causal_series_9/causal_series_9_a.jpg"" style=""width: 300px; height: 300px;"" />
              </div>","null",""
"","","","","","html-button-response","6","21132","0.0-6.0","6D87F2B153954ACC8A746A48872AE6B1","f37e90be-2a9a-4a8f-a808-9586d33a76c0","23db58b9-63b0-4bce-8714-07ce439e665e","","3348","
    <div style=""display: flex; justify-content: center; align-items: center;"">
      <img src=""images/red_deck_2.png"" style=""width: 300px; height: 300px; margin-right: 10px;"" />
      <img src=""images/blue_deck_1.png"" style=""width: 300px; height: 300px;"" />
    </div>","0","0"
"","","","","","html-keyboard-response","7","24140","0.0-7.0-0.0-0.0","6D87F2B153954ACC8A746A48872AE6B1","f37e90be-2a9a-4a8f-a808-9586d33a76c0","23db58b9-63b0-4bce-8714-07ce439e665e","","null","<div style=""display: flex; justify-content: center; align-items: center;"">
                <img src=""images/causal/causal_series_9/causal_series_9_b.jpg"" style=""width: 300px; height: 300px;"" />
              </div>","null",""
"","","","","","html-keyboard-response","8","27145","0.0-7.0-0.0-1.0","6D87F2B153954ACC8A746A48872AE6B1","f37e90be-2a9a-4a8f-a808-9586d33a76c0","23db58b9-63b0-4bce-8714-07ce439e665e","","null","<div style=""display: flex; justify-content: center; align-items: center;"">
                <img src=""images/causal/causal_series_9/causal_series_9_c.jpg"" style=""width: 300px; height: 300px;"" />
              </div>","null",""
"","","","","","html-keyboard-response","9","30304","0.0-7.0-0.0-2.0","6D87F2B153954ACC8A746A48872AE6B1","f37e90be-2a9a-4a8f-a808-9586d33a76c0","23db58b9-63b0-4bce-8714-07ce439e665e","","null","<div style=""display: flex; justify-content: center; align-items: center;"">
                <img src=""images/causal/causal_series_9/causal_series_9_d.jpg"" style=""width: 300px; height: 300px;"" />
              </div>","null",""
"","","","","","html-keyboard-response","10","33317","0.0-8.0","6D87F2B153954ACC8A746A48872AE6B1","f37e90be-2a9a-4a8f-a808-9586d33a76c0","23db58b9-63b0-4bce-8714-07ce439e665e","","null","<div style=""display: flex; justify-content: center; align-items: center;"">
                <img src=""images/other/blank.jpg"" style=""width: 300px; height: 300px;"" />
              </div>","null",""
"","","","","","html-keyboard-response","11","36643","0.0-9.0","6D87F2B153954ACC8A746A48872AE6B1","f37e90be-2a9a-4a8f-a808-9586d33a76c0","23db58b9-63b0-4bce-8714-07ce439e665e","","null","<div style=""display: flex; justify-content: center; align-items: center;"">
                <img src=""images/causal/causal_series_14/causal_series_14_a.jpg"" style=""width: 300px; height: 300px;"" />
              </div>","null",""
"","","","","","html-button-response","12","38902","0.0-10.0","6D87F2B153954ACC8A746A48872AE6B1","f37e90be-2a9a-4a8f-a808-9586d33a76c0","23db58b9-63b0-4bce-8714-07ce439e665e","","2257","
    <div style=""display: flex; justify-content: center; align-items: center;"">
      <img src=""images/red_deck_2.png"" style=""width: 300px; height: 300px; margin-right: 10px;"" />
      <img src=""images/blue_deck_1.png"" style=""width: 300px; height: 300px;"" />
    </div>","1","1"
"","","","","","html-keyboard-response","13","41946","0.0-11.0-1.0-0.0","6D87F2B153954ACC8A746A48872AE6B1","f37e90be-2a9a-4a8f-a808-9586d33a76c0","23db58b9-63b0-4bce-8714-07ce439e665e","","null","<div style=""display: flex; justify-content: center; align-items: center;"">
                <img src=""images/semantic/semantic_series_3/semantic_series_3_d.jpg"" style=""width: 300px; height: 300px;"" />
              </div>","null",""
"","","","","","html-keyboard-response","14","44951","0.0-11.0-1.0-1.0","6D87F2B153954ACC8A746A48872AE6B1","f37e90be-2a9a-4a8f-a808-9586d33a76c0","23db58b9-63b0-4bce-8714-07ce439e665e","","null","<div style=""display: flex; justify-content: center; align-items: center;"">
                <img src=""images/semantic/semantic_series_4/semantic_series_4_d.jpg"" style=""width: 300px; height: 300px;"" />
              </div>","null",""
"","","","","","html-keyboard-response","15","47959","0.0-11.0-1.0-2.0","6D87F2B153954ACC8A746A48872AE6B1","f37e90be-2a9a-4a8f-a808-9586d33a76c0","23db58b9-63b0-4bce-8714-07ce439e665e","","null","<div style=""display: flex; justify-content: center; align-items: center;"">
                <img src=""images/semantic/semantic_series_5/semantic_series_5_d.jpg"" style=""width: 300px; height: 300px;"" />
              </div>","null",""
"","","","","","html-keyboard-response","16","51004","0.0-12.0","6D87F2B153954ACC8A746A48872AE6B1","f37e90be-2a9a-4a8f-a808-9586d33a76c0","23db58b9-63b0-4bce-8714-07ce439e665e","","null","<div style=""display: flex; justify-content: center; align-items: center;"">
                <img src=""images/other/blank.jpg"" style=""width: 300px; height: 300px;"" />
              </div>","null",""
"","","","","","html-keyboard-response","17","54005","0.0-13.0","6D87F2B153954ACC8A746A48872AE6B1","f37e90be-2a9a-4a8f-a808-9586d33a76c0","23db58b9-63b0-4bce-8714-07ce439e665e","","null","<div style=""display: flex; justify-content: center; align-items: center;"">
                <img src=""images/causal/causal_series_7/causal_series_7_a.jpg"" style=""width: 300px; height: 300px;"" />
              </div>","null",""
"","","","","","html-button-response","18","55253","0.0-14.0","6D87F2B153954ACC8A746A48872AE6B1","f37e90be-2a9a-4a8f-a808-9586d33a76c0","23db58b9-63b0-4bce-8714-07ce439e665e","","1246","
    <div style=""display: flex; justify-content: center; align-items: center;"">
      <img src=""images/red_deck_2.png"" style=""width: 300px; height: 300px; margin-right: 10px;"" />
      <img src=""images/blue_deck_1.png"" style=""width: 300px; height: 300px;"" />
    </div>","0","0"
"","","","","","html-keyboard-response","19","58267","0.0-15.0-0.0-0.0","6D87F2B153954ACC8A746A48872AE6B1","f37e90be-2a9a-4a8f-a808-9586d33a76c0","23db58b9-63b0-4bce-8714-07ce439e665e","","null","<div style=""display: flex; justify-content: center; align-items: center;"">
                <img src=""images/causal/causal_series_7/causal_series_7_b.jpg"" style=""width: 300px; height: 300px;"" />
              </div>","null",""
"","","","","","html-keyboard-response","20","61269","0.0-15.0-0.0-1.0","6D87F2B153954ACC8A746A48872AE6B1","f37e90be-2a9a-4a8f-a808-9586d33a76c0","23db58b9-63b0-4bce-8714-07ce439e665e","","null","<div style=""display: flex; justify-content: center; align-items: center;"">
                <img src=""images/causal/causal_series_7/causal_series_7_c.jpg"" style=""width: 300px; height: 300px;"" />
              </div>","null",""
"","","","","","html-keyboard-response","21","64283","0.0-15.0-0.0-2.0","6D87F2B153954ACC8A746A48872AE6B1","f37e90be-2a9a-4a8f-a808-9586d33a76c0","23db58b9-63b0-4bce-8714-07ce439e665e","","null","<div style=""display: flex; justify-content: center; align-items: center;"">
                <img src=""images/causal/causal_series_7/causal_series_7_d.jpg"" style=""width: 300px; height: 300px;"" />
              </div>","null",""
"","","","","","html-keyboard-response","22","67290","0.0-16.0","6D87F2B153954ACC8A746A48872AE6B1","f37e90be-2a9a-4a8f-a808-9586d33a76c0","23db58b9-63b0-4bce-8714-07ce439e665e","","null","<div style=""display: flex; justify-content: center; align-items: center;"">
                <img src=""images/other/blank.jpg"" style=""width: 300px; height: 300px;"" />
              </div>","null",""
"","","","","","html-keyboard-response","23","70648","0.0-17.0","6D87F2B153954ACC8A746A48872AE6B1","f37e90be-2a9a-4a8f-a808-9586d33a76c0","23db58b9-63b0-4bce-8714-07ce439e665e","","null","<div style=""display: flex; justify-content: center; align-items: center;"">
                <img src=""images/causal/causal_series_10/causal_series_10_a.jpg"" style=""width: 300px; height: 300px;"" />
              </div>","null",""
"","","","","","html-button-response","24","71422","0.0-18.0","6D87F2B153954ACC8A746A48872AE6B1","f37e90be-2a9a-4a8f-a808-9586d33a76c0","23db58b9-63b0-4bce-8714-07ce439e665e","","773","
    <div style=""display: flex; justify-content: center; align-items: center;"">
      <img src=""images/red_deck_2.png"" style=""width: 300px; height: 300px; margin-right: 10px;"" />
      <img src=""images/blue_deck_1.png"" style=""width: 300px; height: 300px;"" />
    </div>","0","0"
"","","","","","html-keyboard-response","25","74698","0.0-19.0-0.0-0.0","6D87F2B153954ACC8A746A48872AE6B1","f37e90be-2a9a-4a8f-a808-9586d33a76c0","23db58b9-63b0-4bce-8714-07ce439e665e","","null","<div style=""display: flex; justify-content: center; align-items: center;"">
                <img src=""images/causal/causal_series_10/causal_series_10_b.jpg"" style=""width: 300px; height: 300px;"" />
              </div>","null",""
"","","","","","html-keyboard-response","26","77705","0.0-19.0-0.0-1.0","6D87F2B153954ACC8A746A48872AE6B1","f37e90be-2a9a-4a8f-a808-9586d33a76c0","23db58b9-63b0-4bce-8714-07ce439e665e","","null","<div style=""display: flex; justify-content: center; align-items: center;"">
                <img src=""images/causal/causal_series_10/causal_series_10_c.jpg"" style=""width: 300px; height: 300px;"" />
              </div>","null",""
"","","","","","html-keyboard-response","27","80715","0.0-19.0-0.0-2.0","6D87F2B153954ACC8A746A48872AE6B1","f37e90be-2a9a-4a8f-a808-9586d33a76c0","23db58b9-63b0-4bce-8714-07ce439e665e","","null","<div style=""display: flex; justify-content: center; align-items: center;"">
                <img src=""images/causal/causal_series_10/causal_series_10_d.jpg"" style=""width: 300px; height: 300px;"" />
              </div>","null",""
"","","","","","html-keyboard-response","28","83720","0.0-20.0","6D87F2B153954ACC8A746A48872AE6B1","f37e90be-2a9a-4a8f-a808-9586d33a76c0","23db58b9-63b0-4bce-8714-07ce439e665e","","null","<div style=""display: flex; justify-content: center; align-items: center;"">
                <img src=""images/other/blank.jpg"" style=""width: 300px; height: 300px;"" />
              </div>","null",""
"","","","","","html-keyboard-response","29","86754","0.0-21.0","6D87F2B153954ACC8A746A48872AE6B1","f37e90be-2a9a-4a8f-a808-9586d33a76c0","23db58b9-63b0-4bce-8714-07ce439e665e","","null","<div style=""display: flex; justify-content: center; align-items: center;"">
                <img src=""images/causal/causal_series_1/causal_series_1_a.jpg"" style=""width: 300px; height: 300px;"" />
              </div>","null",""
"","","","","","html-button-response","30","88552","0.0-22.0","6D87F2B153954ACC8A746A48872AE6B1","f37e90be-2a9a-4a8f-a808-9586d33a76c0","23db58b9-63b0-4bce-8714-07ce439e665e","","1799","
    <div style=""display: flex; justify-content: center; align-items: center;"">
      <img src=""images/red_deck_2.png"" style=""width: 300px; height: 300px; margin-right: 10px;"" />
      <img src=""images/blue_deck_1.png"" style=""width: 300px; height: 300px;"" />
    </div>","1","1"
"","","","","","html-keyboard-response","31","91565","0.0-23.0-1.0-0.0","6D87F2B153954ACC8A746A48872AE6B1","f37e90be-2a9a-4a8f-a808-9586d33a76c0","23db58b9-63b0-4bce-8714-07ce439e665e","","null","<div style=""display: flex; justify-content: center; align-items: center;"">
                <img src=""images/semantic/semantic_series_18/semantic_series_18_d.jpg"" style=""width: 300px; height: 300px;"" />
              </div>","null",""
"","","","","","html-keyboard-response","32","94579","0.0-23.0-1.0-1.0","6D87F2B153954ACC8A746A48872AE6B1","f37e90be-2a9a-4a8f-a808-9586d33a76c0","23db58b9-63b0-4bce-8714-07ce439e665e","","null","<div style=""display: flex; justify-content: center; align-items: center;"">
                <img src=""images/semantic/semantic_series_1/semantic_series_1_d.jpg"" style=""width: 300px; height: 300px;"" />
              </div>","null",""
"","","","","","html-keyboard-response","33","97875","0.0-23.0-1.0-2.0","6D87F2B153954ACC8A746A48872AE6B1","f37e90be-2a9a-4a8f-a808-9586d33a76c0","23db58b9-63b0-4bce-8714-07ce439e665e","","null","<div style=""display: flex; justify-content: center; align-items: center;"">
                <img src=""images/semantic/semantic_series_2/semantic_series_2_d.jpg"" style=""width: 300px; height: 300px;"" />
              </div>","null",""
"","","","","","html-keyboard-response","34","100889","0.0-24.0","6D87F2B153954ACC8A746A48872AE6B1","f37e90be-2a9a-4a8f-a808-9586d33a76c0","23db58b9-63b0-4bce-8714-07ce439e665e","","null","<div style=""display: flex; justify-content: center; align-items: center;"">
                <img src=""images/other/blank.jpg"" style=""width: 300px; height: 300px;"" />
              </div>","null",""
"","","","","","html-keyboard-response","35","103892","0.0-25.0","6D87F2B153954ACC8A746A48872AE6B1","f37e90be-2a9a-4a8f-a808-9586d33a76c0","23db58b9-63b0-4bce-8714-07ce439e665e","","null","<div style=""display: flex; justify-content: center; align-items: center;"">
                <img src=""images/causal/causal_series_8/causal_series_8_a.jpg"" style=""width: 300px; height: 300px;"" />
              </div>","null",""
"","","","","","html-button-response","36","105362","0.0-26.0","6D87F2B153954ACC8A746A48872AE6B1","f37e90be-2a9a-4a8f-a808-9586d33a76c0","23db58b9-63b0-4bce-8714-07ce439e665e","","1470","
    <div style=""display: flex; justify-content: center; align-items: center;"">
      <img src=""images/red_deck_2.png"" style=""width: 300px; height: 300px; margin-right: 10px;"" />
      <img src=""images/blue_deck_1.png"" style=""width: 300px; height: 300px;"" />
    </div>","0","0"
"","","","","","html-keyboard-response","37","108367","0.0-27.0-0.0-0.0","6D87F2B153954ACC8A746A48872AE6B1","f37e90be-2a9a-4a8f-a808-9586d33a76c0","23db58b9-63b0-4bce-8714-07ce439e665e","","null","<div style=""display: flex; justify-content: center; align-items: center;"">
                <img src=""images/causal/causal_series_8/causal_series_8_b.jpg"" style=""width: 300px; height: 300px;"" />
              </div>","null",""
"","","","","","html-keyboard-response","38","111635","0.0-27.0-0.0-1.0","6D87F2B153954ACC8A746A48872AE6B1","f37e90be-2a9a-4a8f-a808-9586d33a76c0","23db58b9-63b0-4bce-8714-07ce439e665e","","null","<div style=""display: flex; justify-content: center; align-items: center;"">
                <img src=""images/causal/causal_series_8/causal_series_8_c.jpg"" style=""width: 300px; height: 300px;"" />
              </div>","null",""
"","","","","","html-keyboard-response","39","114651","0.0-27.0-0.0-2.0","6D87F2B153954ACC8A746A48872AE6B1","f37e90be-2a9a-4a8f-a808-9586d33a76c0","23db58b9-63b0-4bce-8714-07ce439e665e","","null","<div style=""display: flex; justify-content: center; align-items: center;"">
                <img src=""images/causal/causal_series_8/causal_series_8_d.jpg"" style=""width: 300px; height: 300px;"" />
              </div>","null",""
"","","","","","html-keyboard-response","40","117657","0.0-28.0","6D87F2B153954ACC8A746A48872AE6B1","f37e90be-2a9a-4a8f-a808-9586d33a76c0","23db58b9-63b0-4bce-8714-07ce439e665e","","null","<div style=""display: flex; justify-content: center; align-items: center;"">
                <img src=""images/other/blank.jpg"" style=""width: 300px; height: 300px;"" />
              </div>","null",""
"","","","","","html-keyboard-response","41","120718","0.0-29.0","6D87F2B153954ACC8A746A48872AE6B1","f37e90be-2a9a-4a8f-a808-9586d33a76c0","23db58b9-63b0-4bce-8714-07ce439e665e","","null","<div style=""display: flex; justify-content: center; align-items: center;"">
                <img src=""images/causal/causal_series_2/causal_series_2_a.jpg"" style=""width: 300px; height: 300px;"" />
              </div>","null",""
"","","","","","html-button-response","42","122023","0.0-30.0","6D87F2B153954ACC8A746A48872AE6B1","f37e90be-2a9a-4a8f-a808-9586d33a76c0","23db58b9-63b0-4bce-8714-07ce439e665e","","1304","
    <div style=""display: flex; justify-content: center; align-items: center;"">
      <img src=""images/red_deck_2.png"" style=""width: 300px; height: 300px; margin-right: 10px;"" />
      <img src=""images/blue_deck_1.png"" style=""width: 300px; height: 300px;"" />
    </div>","0","0"
"","","","","","html-keyboard-response","43","125031","0.0-31.0-0.0-0.0","6D87F2B153954ACC8A746A48872AE6B1","f37e90be-2a9a-4a8f-a808-9586d33a76c0","23db58b9-63b0-4bce-8714-07ce439e665e","","null","<div style=""display: flex; justify-content: center; align-items: center;"">
                <img src=""images/causal/causal_series_2/causal_series_2_b.jpg"" style=""width: 300px; height: 300px;"" />
              </div>","null",""
"","","","","","html-keyboard-response","44","128036","0.0-31.0-0.0-1.0","6D87F2B153954ACC8A746A48872AE6B1","f37e90be-2a9a-4a8f-a808-9586d33a76c0","23db58b9-63b0-4bce-8714-07ce439e665e","","null","<div style=""display: flex; justify-content: center; align-items: center;"">
                <img src=""images/causal/causal_series_2/causal_series_2_c.jpg"" style=""width: 300px; height: 300px;"" />
              </div>","null",""
"","","","","","html-keyboard-response","45","131048","0.0-31.0-0.0-2.0","6D87F2B153954ACC8A746A48872AE6B1","f37e90be-2a9a-4a8f-a808-9586d33a76c0","23db58b9-63b0-4bce-8714-07ce439e665e","","null","<div style=""display: flex; justify-content: center; align-items: center;"">
                <img src=""images/causal/causal_series_2/causal_series_2_d.jpg"" style=""width: 300px; height: 300px;"" />
              </div>","null",""
"","","","","","html-keyboard-response","46","134062","0.0-32.0","6D87F2B153954ACC8A746A48872AE6B1","f37e90be-2a9a-4a8f-a808-9586d33a76c0","23db58b9-63b0-4bce-8714-07ce439e665e","","null","<div style=""display: flex; justify-content: center; align-items: center;"">
                <img src=""images/other/blank.jpg"" style=""width: 300px; height: 300px;"" />
              </div>","null",""
"","","","","","html-keyboard-response","47","137063","0.0-33.0","6D87F2B153954ACC8A746A48872AE6B1","f37e90be-2a9a-4a8f-a808-9586d33a76c0","23db58b9-63b0-4bce-8714-07ce439e665e","","null","<div style=""display: flex; justify-content: center; align-items: center;"">
                <img src=""images/causal/causal_series_13/causal_series_13_a.jpg"" style=""width: 300px; height: 300px;"" />
              </div>","null",""
"","","","","","html-button-response","48","138221","0.0-34.0","6D87F2B153954ACC8A746A48872AE6B1","f37e90be-2a9a-4a8f-a808-9586d33a76c0","23db58b9-63b0-4bce-8714-07ce439e665e","","1157","
    <div style=""display: flex; justify-content: center; align-items: center;"">
      <img src=""images/red_deck_2.png"" style=""width: 300px; height: 300px; margin-right: 10px;"" />
      <img src=""images/blue_deck_1.png"" style=""width: 300px; height: 300px;"" />
    </div>","0","0"
"","","","","","html-keyboard-response","49","141232","0.0-35.0-0.0-0.0","6D87F2B153954ACC8A746A48872AE6B1","f37e90be-2a9a-4a8f-a808-9586d33a76c0","23db58b9-63b0-4bce-8714-07ce439e665e","","null","<div style=""display: flex; justify-content: center; align-items: center;"">
                <img src=""images/causal/causal_series_13/causal_series_13_b.jpg"" style=""width: 300px; height: 300px;"" />
              </div>","null",""
"","","","","","html-keyboard-response","50","144235","0.0-35.0-0.0-1.0","6D87F2B153954ACC8A746A48872AE6B1","f37e90be-2a9a-4a8f-a808-9586d33a76c0","23db58b9-63b0-4bce-8714-07ce439e665e","","null","<div style=""display: flex; justify-content: center; align-items: center;"">
                <img src=""images/causal/causal_series_13/causal_series_13_c.jpg"" style=""width: 300px; height: 300px;"" />
              </div>","null",""
"","","","","","html-keyboard-response","51","147238","0.0-35.0-0.0-2.0","6D87F2B153954ACC8A746A48872AE6B1","f37e90be-2a9a-4a8f-a808-9586d33a76c0","23db58b9-63b0-4bce-8714-07ce439e665e","","null","<div style=""display: flex; justify-content: center; align-items: center;"">
                <img src=""images/causal/causal_series_13/causal_series_13_d.jpg"" style=""width: 300px; height: 300px;"" />
              </div>","null",""
"","","","","","html-keyboard-response","52","150244","0.0-36.0","6D87F2B153954ACC8A746A48872AE6B1","f37e90be-2a9a-4a8f-a808-9586d33a76c0","23db58b9-63b0-4bce-8714-07ce439e665e","","null","<div style=""display: flex; justify-content: center; align-items: center;"">
                <img src=""images/other/blank.jpg"" style=""width: 300px; height: 300px;"" />
              </div>","null",""
"","","","","","html-keyboard-response","53","153256","0.0-37.0","6D87F2B153954ACC8A746A48872AE6B1","f37e90be-2a9a-4a8f-a808-9586d33a76c0","23db58b9-63b0-4bce-8714-07ce439e665e","","null","<div style=""display: flex; justify-content: center; align-items: center;"">
                <img src=""images/causal/causal_series_17/causal_series_17_a.jpg"" style=""width: 300px; height: 300px;"" />
              </div>","null",""
"","","","","","html-button-response","54","168531","0.0-38.0","6D87F2B153954ACC8A746A48872AE6B1","f37e90be-2a9a-4a8f-a808-9586d33a76c0","23db58b9-63b0-4bce-8714-07ce439e665e","","15275","
    <div style=""display: flex; justify-content: center; align-items: center;"">
      <img src=""images/red_deck_2.png"" style=""width: 300px; height: 300px; margin-right: 10px;"" />
      <img src=""images/blue_deck_1.png"" style=""width: 300px; height: 300px;"" />
    </div>","1","1"
"","","","","","html-keyboard-response","55","171556","0.0-39.0-1.0-0.0","6D87F2B153954ACC8A746A48872AE6B1","f37e90be-2a9a-4a8f-a808-9586d33a76c0","23db58b9-63b0-4bce-8714-07ce439e665e","","null","<div style=""display: flex; justify-content: center; align-items: center;"">
                <img src=""images/semantic/semantic_series_12/semantic_series_12_d.jpg"" style=""width: 300px; height: 300px;"" />
              </div>","null",""
"","","","","","html-keyboard-response","56","174567","0.0-39.0-1.0-1.0","6D87F2B153954ACC8A746A48872AE6B1","f37e90be-2a9a-4a8f-a808-9586d33a76c0","23db58b9-63b0-4bce-8714-07ce439e665e","","null","<div style=""display: flex; justify-content: center; align-items: center;"">
                <img src=""images/semantic/semantic_series_13/semantic_series_13_d.jpg"" style=""width: 300px; height: 300px;"" />
              </div>","null",""
"","","","","","html-keyboard-response","57","177583","0.0-39.0-1.0-2.0","6D87F2B153954ACC8A746A48872AE6B1","f37e90be-2a9a-4a8f-a808-9586d33a76c0","23db58b9-63b0-4bce-8714-07ce439e665e","","null","<div style=""display: flex; justify-content: center; align-items: center;"">
                <img src=""images/semantic/semantic_series_14/semantic_series_14_d.jpg"" style=""width: 300px; height: 300px;"" />
              </div>","null",""
"","","","","","html-keyboard-response","58","180599","0.0-40.0","6D87F2B153954ACC8A746A48872AE6B1","f37e90be-2a9a-4a8f-a808-9586d33a76c0","23db58b9-63b0-4bce-8714-07ce439e665e","","null","<div style=""display: flex; justify-content: center; align-items: center;"">
                <img src=""images/other/blank.jpg"" style=""width: 300px; height: 300px;"" />
              </div>","null",""
"","","","","","html-keyboard-response","59","183607","0.0-41.0","6D87F2B153954ACC8A746A48872AE6B1","f37e90be-2a9a-4a8f-a808-9586d33a76c0","23db58b9-63b0-4bce-8714-07ce439e665e","","null","<div style=""display: flex; justify-content: center; align-items: center;"">
                <img src=""images/causal/causal_series_5/causal_series_5_a.jpg"" style=""width: 300px; height: 300px;"" />
              </div>","null",""
"","","","","","html-button-response","60","185341","0.0-42.0","6D87F2B153954ACC8A746A48872AE6B1","f37e90be-2a9a-4a8f-a808-9586d33a76c0","23db58b9-63b0-4bce-8714-07ce439e665e","","1732","
    <div style=""display: flex; justify-content: center; align-items: center;"">
      <img src=""images/red_deck_2.png"" style=""width: 300px; height: 300px; margin-right: 10px;"" />
      <img src=""images/blue_deck_1.png"" style=""width: 300px; height: 300px;"" />
    </div>","0","0"
"","","","","","html-keyboard-response","61","188342","0.0-43.0-0.0-0.0","6D87F2B153954ACC8A746A48872AE6B1","f37e90be-2a9a-4a8f-a808-9586d33a76c0","23db58b9-63b0-4bce-8714-07ce439e665e","","null","<div style=""display: flex; justify-content: center; align-items: center;"">
                <img src=""images/causal/causal_series_5/causal_series_5_b.jpg"" style=""width: 300px; height: 300px;"" />
              </div>","null",""
"","","","","","html-keyboard-response","62","191352","0.0-43.0-0.0-1.0","6D87F2B153954ACC8A746A48872AE6B1","f37e90be-2a9a-4a8f-a808-9586d33a76c0","23db58b9-63b0-4bce-8714-07ce439e665e","","null","<div style=""display: flex; justify-content: center; align-items: center;"">
                <img src=""images/causal/causal_series_5/causal_series_5_c.jpg"" style=""width: 300px; height: 300px;"" />
              </div>","null",""
"","","","","","html-keyboard-response","63","194550","0.0-43.0-0.0-2.0","6D87F2B153954ACC8A746A48872AE6B1","f37e90be-2a9a-4a8f-a808-9586d33a76c0","23db58b9-63b0-4bce-8714-07ce439e665e","","null","<div style=""display: flex; justify-content: center; align-items: center;"">
                <img src=""images/causal/causal_series_5/causal_series_5_d.jpg"" style=""width: 300px; height: 300px;"" />
              </div>","null",""
"","","","","","html-keyboard-response","64","197560","0.0-44.0","6D87F2B153954ACC8A746A48872AE6B1","f37e90be-2a9a-4a8f-a808-9586d33a76c0","23db58b9-63b0-4bce-8714-07ce439e665e","","null","<div style=""display: flex; justify-content: center; align-items: center;"">
                <img src=""images/other/blank.jpg"" style=""width: 300px; height: 300px;"" />
              </div>","null",""
"","","","","","html-keyboard-response","65","200561","0.0-45.0","6D87F2B153954ACC8A746A48872AE6B1","f37e90be-2a9a-4a8f-a808-9586d33a76c0","23db58b9-63b0-4bce-8714-07ce439e665e","","null","<div style=""display: flex; justify-content: center; align-items: center;"">
                <img src=""images/causal/causal_series_12/causal_series_12_a.jpg"" style=""width: 300px; height: 300px;"" />
              </div>","null",""
"","","","","","html-button-response","66","204262","0.0-46.0","6D87F2B153954ACC8A746A48872AE6B1","f37e90be-2a9a-4a8f-a808-9586d33a76c0","23db58b9-63b0-4bce-8714-07ce439e665e","","3699","
    <div style=""display: flex; justify-content: center; align-items: center;"">
      <img src=""images/red_deck_2.png"" style=""width: 300px; height: 300px; margin-right: 10px;"" />
      <img src=""images/blue_deck_1.png"" style=""width: 300px; height: 300px;"" />
    </div>","0","0"
"","","","","","html-keyboard-response","67","207273","0.0-47.0-0.0-0.0","6D87F2B153954ACC8A746A48872AE6B1","f37e90be-2a9a-4a8f-a808-9586d33a76c0","23db58b9-63b0-4bce-8714-07ce439e665e","","null","<div style=""display: flex; justify-content: center; align-items: center;"">
                <img src=""images/causal/causal_series_12/causal_series_12_b.jpg"" style=""width: 300px; height: 300px;"" />
              </div>","null",""
"","","","","","html-keyboard-response","68","210288","0.0-47.0-0.0-1.0","6D87F2B153954ACC8A746A48872AE6B1","f37e90be-2a9a-4a8f-a808-9586d33a76c0","23db58b9-63b0-4bce-8714-07ce439e665e","","null","<div style=""display: flex; justify-content: center; align-items: center;"">
                <img src=""images/causal/causal_series_12/causal_series_12_c.jpg"" style=""width: 300px; height: 300px;"" />
              </div>","null",""
"","","","","","html-keyboard-response","69","213297","0.0-47.0-0.0-2.0","6D87F2B153954ACC8A746A48872AE6B1","f37e90be-2a9a-4a8f-a808-9586d33a76c0","23db58b9-63b0-4bce-8714-07ce439e665e","","null","<div style=""display: flex; justify-content: center; align-items: center;"">
                <img src=""images/causal/causal_series_12/causal_series_12_d.jpg"" style=""width: 300px; height: 300px;"" />
              </div>","null",""
"","","","","","html-keyboard-response","70","216305","0.0-48.0","6D87F2B153954ACC8A746A48872AE6B1","f37e90be-2a9a-4a8f-a808-9586d33a76c0","23db58b9-63b0-4bce-8714-07ce439e665e","","null","<div style=""display: flex; justify-content: center; align-items: center;"">
                <img src=""images/other/blank.jpg"" style=""width: 300px; height: 300px;"" />
              </div>","null",""
"","","","","","html-keyboard-response","71","219307","0.0-49.0","6D87F2B153954ACC8A746A48872AE6B1","f37e90be-2a9a-4a8f-a808-9586d33a76c0","23db58b9-63b0-4bce-8714-07ce439e665e","","null","<div style=""display: flex; justify-content: center; align-items: center;"">
                <img src=""images/causal/causal_series_16/causal_series_16_a.jpg"" style=""width: 300px; height: 300px;"" />
              </div>","null",""
"","","","","","html-button-response","72","220660","0.0-50.0","6D87F2B153954ACC8A746A48872AE6B1","f37e90be-2a9a-4a8f-a808-9586d33a76c0","23db58b9-63b0-4bce-8714-07ce439e665e","","1352","
    <div style=""display: flex; justify-content: center; align-items: center;"">
      <img src=""images/red_deck_2.png"" style=""width: 300px; height: 300px; margin-right: 10px;"" />
      <img src=""images/blue_deck_1.png"" style=""width: 300px; height: 300px;"" />
    </div>","1","1"
"","","","","","html-keyboard-response","73","223669","0.0-51.0-1.0-0.0","6D87F2B153954ACC8A746A48872AE6B1","f37e90be-2a9a-4a8f-a808-9586d33a76c0","23db58b9-63b0-4bce-8714-07ce439e665e","","null","<div style=""display: flex; justify-content: center; align-items: center;"">
                <img src=""images/semantic/semantic_series_9/semantic_series_9_d.jpg"" style=""width: 300px; height: 300px;"" />
              </div>","null",""
"","","","","","html-keyboard-response","74","226671","0.0-51.0-1.0-1.0","6D87F2B153954ACC8A746A48872AE6B1","f37e90be-2a9a-4a8f-a808-9586d33a76c0","23db58b9-63b0-4bce-8714-07ce439e665e","","null","<div style=""display: flex; justify-content: center; align-items: center;"">
                <img src=""images/semantic/semantic_series_10/semantic_series_10_d.jpg"" style=""width: 300px; height: 300px;"" />
              </div>","null",""
"","","","","","html-keyboard-response","75","229685","0.0-51.0-1.0-2.0","6D87F2B153954ACC8A746A48872AE6B1","f37e90be-2a9a-4a8f-a808-9586d33a76c0","23db58b9-63b0-4bce-8714-07ce439e665e","","null","<div style=""display: flex; justify-content: center; align-items: center;"">
                <img src=""images/semantic/semantic_series_11/semantic_series_11_d.jpg"" style=""width: 300px; height: 300px;"" />
              </div>","null",""
"","","","","","html-keyboard-response","76","232689","0.0-52.0","6D87F2B153954ACC8A746A48872AE6B1","f37e90be-2a9a-4a8f-a808-9586d33a76c0","23db58b9-63b0-4bce-8714-07ce439e665e","","null","<div style=""display: flex; justify-content: center; align-items: center;"">
                <img src=""images/other/blank.jpg"" style=""width: 300px; height: 300px;"" />
              </div>","null",""
"","","","","","html-keyboard-response","77","235691","0.0-53.0","6D87F2B153954ACC8A746A48872AE6B1","f37e90be-2a9a-4a8f-a808-9586d33a76c0","23db58b9-63b0-4bce-8714-07ce439e665e","","null","<div style=""display: flex; justify-content: center; align-items: center;"">
                <img src=""images/causal/causal_series_3/causal_series_3_a.jpg"" style=""width: 300px; height: 300px;"" />
              </div>","null",""
"","","","","","html-button-response","78","237469","0.0-54.0","6D87F2B153954ACC8A746A48872AE6B1","f37e90be-2a9a-4a8f-a808-9586d33a76c0","23db58b9-63b0-4bce-8714-07ce439e665e","","1778","
    <div style=""display: flex; justify-content: center; align-items: center;"">
      <img src=""images/red_deck_2.png"" style=""width: 300px; height: 300px; margin-right: 10px;"" />
      <img src=""images/blue_deck_1.png"" style=""width: 300px; height: 300px;"" />
    </div>","0","0"
"","","","","","html-keyboard-response","79","240471","0.0-55.0-0.0-0.0","6D87F2B153954ACC8A746A48872AE6B1","f37e90be-2a9a-4a8f-a808-9586d33a76c0","23db58b9-63b0-4bce-8714-07ce439e665e","","null","<div style=""display: flex; justify-content: center; align-items: center;"">
                <img src=""images/causal/causal_series_3/causal_series_3_b.jpg"" style=""width: 300px; height: 300px;"" />
              </div>","null",""
"","","","","","html-keyboard-response","80","243482","0.0-55.0-0.0-1.0","6D87F2B153954ACC8A746A48872AE6B1","f37e90be-2a9a-4a8f-a808-9586d33a76c0","23db58b9-63b0-4bce-8714-07ce439e665e","","null","<div style=""display: flex; justify-content: center; align-items: center;"">
                <img src=""images/causal/causal_series_3/causal_series_3_c.jpg"" style=""width: 300px; height: 300px;"" />
              </div>","null",""
"","","","","","html-keyboard-response","81","246659","0.0-55.0-0.0-2.0","6D87F2B153954ACC8A746A48872AE6B1","f37e90be-2a9a-4a8f-a808-9586d33a76c0","23db58b9-63b0-4bce-8714-07ce439e665e","","null","<div style=""display: flex; justify-content: center; align-items: center;"">
                <img src=""images/causal/causal_series_3/causal_series_3_d.jpg"" style=""width: 300px; height: 300px;"" />
              </div>","null",""
"","","","","","html-keyboard-response","82","249666","0.0-56.0","6D87F2B153954ACC8A746A48872AE6B1","f37e90be-2a9a-4a8f-a808-9586d33a76c0","23db58b9-63b0-4bce-8714-07ce439e665e","","null","<div style=""display: flex; justify-content: center; align-items: center;"">
                <img src=""images/other/blank.jpg"" style=""width: 300px; height: 300px;"" />
              </div>","null",""
"","","","","","html-keyboard-response","83","252941","0.0-57.0","6D87F2B153954ACC8A746A48872AE6B1","f37e90be-2a9a-4a8f-a808-9586d33a76c0","23db58b9-63b0-4bce-8714-07ce439e665e","","null","<div style=""display: flex; justify-content: center; align-items: center;"">
                <img src=""images/causal/causal_series_18/causal_series_18_a.jpg"" style=""width: 300px; height: 300px;"" />
              </div>","null",""
"","","","","","html-button-response","84","254150","0.0-58.0","6D87F2B153954ACC8A746A48872AE6B1","f37e90be-2a9a-4a8f-a808-9586d33a76c0","23db58b9-63b0-4bce-8714-07ce439e665e","","1208","
    <div style=""display: flex; justify-content: center; align-items: center;"">
      <img src=""images/red_deck_2.png"" style=""width: 300px; height: 300px; margin-right: 10px;"" />
      <img src=""images/blue_deck_1.png"" style=""width: 300px; height: 300px;"" />
    </div>","0","0"
"","","","","","html-keyboard-response","85","257157","0.0-59.0-0.0-0.0","6D87F2B153954ACC8A746A48872AE6B1","f37e90be-2a9a-4a8f-a808-9586d33a76c0","23db58b9-63b0-4bce-8714-07ce439e665e","","null","<div style=""display: flex; justify-content: center; align-items: center;"">
                <img src=""images/causal/causal_series_18/causal_series_18_b.jpg"" style=""width: 300px; height: 300px;"" />
              </div>","null",""
"","","","","","html-keyboard-response","86","260159","0.0-59.0-0.0-1.0","6D87F2B153954ACC8A746A48872AE6B1","f37e90be-2a9a-4a8f-a808-9586d33a76c0","23db58b9-63b0-4bce-8714-07ce439e665e","","null","<div style=""display: flex; justify-content: center; align-items: center;"">
                <img src=""images/causal/causal_series_18/causal_series_18_c.jpg"" style=""width: 300px; height: 300px;"" />
              </div>","null",""
"","","","","","html-keyboard-response","87","263161","0.0-59.0-0.0-2.0","6D87F2B153954ACC8A746A48872AE6B1","f37e90be-2a9a-4a8f-a808-9586d33a76c0","23db58b9-63b0-4bce-8714-07ce439e665e","","null","<div style=""display: flex; justify-content: center; align-items: center;"">
                <img src=""images/causal/causal_series_18/causal_series_18_d.jpg"" style=""width: 300px; height: 300px;"" />
              </div>","null",""
"","","","","","html-keyboard-response","88","266173","0.0-60.0","6D87F2B153954ACC8A746A48872AE6B1","f37e90be-2a9a-4a8f-a808-9586d33a76c0","23db58b9-63b0-4bce-8714-07ce439e665e","","null","<div style=""display: flex; justify-content: center; align-items: center;"">
                <img src=""images/other/blank.jpg"" style=""width: 300px; height: 300px;"" />
              </div>","null",""
"","","","","","html-keyboard-response","89","269188","0.0-61.0","6D87F2B153954ACC8A746A48872AE6B1","f37e90be-2a9a-4a8f-a808-9586d33a76c0","23db58b9-63b0-4bce-8714-07ce439e665e","","null","<div style=""display: flex; justify-content: center; align-items: center;"">
                <img src=""images/causal/causal_series_11/causal_series_11_a.jpg"" style=""width: 300px; height: 300px;"" />
              </div>","null",""
"","","","","","html-button-response","90","271250","0.0-62.0","6D87F2B153954ACC8A746A48872AE6B1","f37e90be-2a9a-4a8f-a808-9586d33a76c0","23db58b9-63b0-4bce-8714-07ce439e665e","","2062","
    <div style=""display: flex; justify-content: center; align-items: center;"">
      <img src=""images/red_deck_2.png"" style=""width: 300px; height: 300px; margin-right: 10px;"" />
      <img src=""images/blue_deck_1.png"" style=""width: 300px; height: 300px;"" />
    </div>","1","1"
"","","","","","html-keyboard-response","91","274263","0.0-63.0-1.0-0.0","6D87F2B153954ACC8A746A48872AE6B1","f37e90be-2a9a-4a8f-a808-9586d33a76c0","23db58b9-63b0-4bce-8714-07ce439e665e","","null","<div style=""display: flex; justify-content: center; align-items: center;"">
                <img src=""images/semantic/semantic_series_12/semantic_series_12_d.jpg"" style=""width: 300px; height: 300px;"" />
              </div>","null",""
"","","","","","html-keyboard-response","92","277277","0.0-63.0-1.0-1.0","6D87F2B153954ACC8A746A48872AE6B1","f37e90be-2a9a-4a8f-a808-9586d33a76c0","23db58b9-63b0-4bce-8714-07ce439e665e","","null","<div style=""display: flex; justify-content: center; align-items: center;"">
                <img src=""images/semantic/semantic_series_13/semantic_series_13_d.jpg"" style=""width: 300px; height: 300px;"" />
              </div>","null",""
"","","","","","html-keyboard-response","93","280286","0.0-63.0-1.0-2.0","6D87F2B153954ACC8A746A48872AE6B1","f37e90be-2a9a-4a8f-a808-9586d33a76c0","23db58b9-63b0-4bce-8714-07ce439e665e","","null","<div style=""display: flex; justify-content: center; align-items: center;"">
                <img src=""images/semantic/semantic_series_14/semantic_series_14_d.jpg"" style=""width: 300px; height: 300px;"" />
              </div>","null",""
"","","","","","html-keyboard-response","94","283297","0.0-64.0","6D87F2B153954ACC8A746A48872AE6B1","f37e90be-2a9a-4a8f-a808-9586d33a76c0","23db58b9-63b0-4bce-8714-07ce439e665e","","null","<div style=""display: flex; justify-content: center; align-items: center;"">
                <img src=""images/other/blank.jpg"" style=""width: 300px; height: 300px;"" />
              </div>","null",""
"","","","","","html-keyboard-response","95","286308","0.0-65.0","6D87F2B153954ACC8A746A48872AE6B1","f37e90be-2a9a-4a8f-a808-9586d33a76c0","23db58b9-63b0-4bce-8714-07ce439e665e","","null","<div style=""display: flex; justify-content: center; align-items: center;"">
                <img src=""images/causal/causal_series_4/causal_series_4_a.jpg"" style=""width: 300px; height: 300px;"" />
              </div>","null",""
"","","","","","html-button-response","96","292340","0.0-66.0","6D87F2B153954ACC8A746A48872AE6B1","f37e90be-2a9a-4a8f-a808-9586d33a76c0","23db58b9-63b0-4bce-8714-07ce439e665e","","6030","
    <div style=""display: flex; justify-content: center; align-items: center;"">
      <img src=""images/red_deck_2.png"" style=""width: 300px; height: 300px; margin-right: 10px;"" />
      <img src=""images/blue_deck_1.png"" style=""width: 300px; height: 300px;"" />
    </div>","0","0"
"","","","","","html-keyboard-response","97","295342","0.0-67.0-0.0-0.0","6D87F2B153954ACC8A746A48872AE6B1","f37e90be-2a9a-4a8f-a808-9586d33a76c0","23db58b9-63b0-4bce-8714-07ce439e665e","","null","<div style=""display: flex; justify-content: center; align-items: center;"">
                <img src=""images/causal/causal_series_4/causal_series_4_b.jpg"" style=""width: 300px; height: 300px;"" />
              </div>","null",""
"","","","","","html-keyboard-response","98","298346","0.0-67.0-0.0-1.0","6D87F2B153954ACC8A746A48872AE6B1","f37e90be-2a9a-4a8f-a808-9586d33a76c0","23db58b9-63b0-4bce-8714-07ce439e665e","","null","<div style=""display: flex; justify-content: center; align-items: center;"">
                <img src=""images/causal/causal_series_4/causal_series_4_c.jpg"" style=""width: 300px; height: 300px;"" />
              </div>","null",""
"","","","","","html-keyboard-response","99","301354","0.0-67.0-0.0-2.0","6D87F2B153954ACC8A746A48872AE6B1","f37e90be-2a9a-4a8f-a808-9586d33a76c0","23db58b9-63b0-4bce-8714-07ce439e665e","","null","<div style=""display: flex; justify-content: center; align-items: center;"">
                <img src=""images/causal/causal_series_4/causal_series_4_d.jpg"" style=""width: 300px; height: 300px;"" />
              </div>","null",""
"","","","","","html-keyboard-response","100","304358","0.0-68.0","6D87F2B153954ACC8A746A48872AE6B1","f37e90be-2a9a-4a8f-a808-9586d33a76c0","23db58b9-63b0-4bce-8714-07ce439e665e","","null","<div style=""display: flex; justify-content: center; align-items: center;"">
                <img src=""images/other/blank.jpg"" style=""width: 300px; height: 300px;"" />
              </div>","null",""
"","","","","","html-keyboard-response","101","307359","0.0-69.0","6D87F2B153954ACC8A746A48872AE6B1","f37e90be-2a9a-4a8f-a808-9586d33a76c0","23db58b9-63b0-4bce-8714-07ce439e665e","","null","<div style=""display: flex; justify-content: center; align-items: center;"">
                <img src=""images/causal/causal_series_15/causal_series_15_a.jpg"" style=""width: 300px; height: 300px;"" />
              </div>","null",""
"","","","","","html-button-response","102","310991","0.0-70.0","6D87F2B153954ACC8A746A48872AE6B1","f37e90be-2a9a-4a8f-a808-9586d33a76c0","23db58b9-63b0-4bce-8714-07ce439e665e","","3631","
    <div style=""display: flex; justify-content: center; align-items: center;"">
      <img src=""images/red_deck_2.png"" style=""width: 300px; height: 300px; margin-right: 10px;"" />
      <img src=""images/blue_deck_1.png"" style=""width: 300px; height: 300px;"" />
    </div>","0","0"
"","","","","","html-keyboard-response","103","314007","0.0-71.0-0.0-0.0","6D87F2B153954ACC8A746A48872AE6B1","f37e90be-2a9a-4a8f-a808-9586d33a76c0","23db58b9-63b0-4bce-8714-07ce439e665e","","null","<div style=""display: flex; justify-content: center; align-items: center;"">
                <img src=""images/causal/causal_series_15/causal_series_15_b.jpg"" style=""width: 300px; height: 300px;"" />
              </div>","null",""
"","","","","","html-keyboard-response","104","317291","0.0-71.0-0.0-1.0","6D87F2B153954ACC8A746A48872AE6B1","f37e90be-2a9a-4a8f-a808-9586d33a76c0","23db58b9-63b0-4bce-8714-07ce439e665e","","null","<div style=""display: flex; justify-content: center; align-items: center;"">
                <img src=""images/causal/causal_series_15/causal_series_15_c.jpg"" style=""width: 300px; height: 300px;"" />
              </div>","null",""
"","","","","","html-keyboard-response","105","320298","0.0-71.0-0.0-2.0","6D87F2B153954ACC8A746A48872AE6B1","f37e90be-2a9a-4a8f-a808-9586d33a76c0","23db58b9-63b0-4bce-8714-07ce439e665e","","null","<div style=""display: flex; justify-content: center; align-items: center;"">
                <img src=""images/causal/causal_series_15/causal_series_15_d.jpg"" style=""width: 300px; height: 300px;"" />
              </div>","null",""
"","","","","","html-keyboard-response","106","323308","0.0-72.0","6D87F2B153954ACC8A746A48872AE6B1","f37e90be-2a9a-4a8f-a808-9586d33a76c0","23db58b9-63b0-4bce-8714-07ce439e665e","","null","<div style=""display: flex; justify-content: center; align-items: center;"">
                <img src=""images/other/blank.jpg"" style=""width: 300px; height: 300px;"" />
              </div>","null",""
"","","","","","html-keyboard-response","107","326309","0.0-73.0","6D87F2B153954ACC8A746A48872AE6B1","f37e90be-2a9a-4a8f-a808-9586d33a76c0","23db58b9-63b0-4bce-8714-07ce439e665e","","null","<div style=""display: flex; justify-content: center; align-items: center;"">
                <img src=""images/causal/causal_series_6/causal_series_6_a.jpg"" style=""width: 300px; height: 300px;"" />
              </div>","null",""
"","","","","","html-button-response","108","330429","0.0-74.0","6D87F2B153954ACC8A746A48872AE6B1","f37e90be-2a9a-4a8f-a808-9586d33a76c0","23db58b9-63b0-4bce-8714-07ce439e665e","","4119","
    <div style=""display: flex; justify-content: center; align-items: center;"">
      <img src=""images/red_deck_2.png"" style=""width: 300px; height: 300px; margin-right: 10px;"" />
      <img src=""images/blue_deck_1.png"" style=""width: 300px; height: 300px;"" />
    </div>","1","1"
"","","","","","html-keyboard-response","109","333434","0.0-75.0-1.0-0.0","6D87F2B153954ACC8A746A48872AE6B1","f37e90be-2a9a-4a8f-a808-9586d33a76c0","23db58b9-63b0-4bce-8714-07ce439e665e","","null","<div style=""display: flex; justify-content: center; align-items: center;"">
                <img src=""images/semantic/semantic_series_15/semantic_series_15_d.jpg"" style=""width: 300px; height: 300px;"" />
              </div>","null",""
"","","","","","html-keyboard-response","110","336440","0.0-75.0-1.0-1.0","6D87F2B153954ACC8A746A48872AE6B1","f37e90be-2a9a-4a8f-a808-9586d33a76c0","23db58b9-63b0-4bce-8714-07ce439e665e","","null","<div style=""display: flex; justify-content: center; align-items: center;"">
                <img src=""images/semantic/semantic_series_16/semantic_series_16_d.jpg"" style=""width: 300px; height: 300px;"" />
              </div>","null",""
"","","","","","html-keyboard-response","111","339552","0.0-75.0-1.0-2.0","6D87F2B153954ACC8A746A48872AE6B1","f37e90be-2a9a-4a8f-a808-9586d33a76c0","23db58b9-63b0-4bce-8714-07ce439e665e","","null","<div style=""display: flex; justify-content: center; align-items: center;"">
                <img src=""images/semantic/semantic_series_17/semantic_series_17_d.jpg"" style=""width: 300px; height: 300px;"" />
              </div>","null",""
"","","","","","html-keyboard-response","112","342554","0.0-76.0","6D87F2B153954ACC8A746A48872AE6B1","f37e90be-2a9a-4a8f-a808-9586d33a76c0","23db58b9-63b0-4bce-8714-07ce439e665e","","null","<div style=""display: flex; justify-content: center; align-items: center;"">
                <img src=""images/other/blank.jpg"" style=""width: 300px; height: 300px;"" />
              </div>","null",""
"","","","","","survey-text","113","372671","0.0-77.0","6D87F2B153954ACC8A746A48872AE6B1","f37e90be-2a9a-4a8f-a808-9586d33a76c0","23db58b9-63b0-4bce-8714-07ce439e665e","","30115","","{""Q0"":""Besides the color, the only difference I can imagine is cartoons vs. real life pictures.""}",""
"","","","","","survey-text","114","379459","0.0-78.0","6D87F2B153954ACC8A746A48872AE6B1","f37e90be-2a9a-4a8f-a808-9586d33a76c0","23db58b9-63b0-4bce-8714-07ce439e665e","","6784","","{""Q0"":""I liked both decks.""}",""
"","","","","","html-button-response","115","386398","0.0-79.0","6D87F2B153954ACC8A746A48872AE6B1","f37e90be-2a9a-4a8f-a808-9586d33a76c0","23db58b9-63b0-4bce-8714-07ce439e665e","","6939","Which color deck does the fourth image continue the story from the series?","0",""
"","","","","","html-button-response","116","388658","0.0-80.0","6D87F2B153954ACC8A746A48872AE6B1","f37e90be-2a9a-4a8f-a808-9586d33a76c0","23db58b9-63b0-4bce-8714-07ce439e665e","","2259","Which color deck does the fourth image not follow the story from the series?","1",""
"","","","","","survey-text","117","393540","0.0-81.0","6D87F2B153954ACC8A746A48872AE6B1","f37e90be-2a9a-4a8f-a808-9586d33a76c0","23db58b9-63b0-4bce-8714-07ce439e665e","","4871","","{""Q0"":""MALE"",""Q1"":""32""}",""
"","","","","","instructions","118","401439","0.0-82.0","6D87F2B153954ACC8A746A48872AE6B1","f37e90be-2a9a-4a8f-a808-9586d33a76c0","23db58b9-63b0-4bce-8714-07ce439e665e","[{""page_index"":0,""viewing_time"":7897}]","7897","","",""
