"success","timeout","failed_images","failed_audio","failed_video","trial_type","trial_index","time_elapsed","internal_node_id","subject_id","study_id","session_id","view_history","rt","stimulus","response","choice"
"true","false","[]","[]","[]","preload","0","247","0.0-0.0","13C2E6D9E7A143B8B960A930322C9C2B","0199ad14-365e-76a6-8b8a-fa7cce8558ae","0199acf4-d136-78a0-864c-108c630c63d5","","","","",""
"","","","","","instructions","1","5510","0.0-1.0","13C2E6D9E7A143B8B960A930322C9C2B","0199ad14-365e-76a6-8b8a-fa7cce8558ae","0199acf4-d136-78a0-864c-108c630c63d5","[{""page_index"":0,""viewing_time"":5264}]","5264","","",""
"","","","","","instructions","2","8792","0.0-2.0","13C2E6D9E7A143B8B960A930322C9C2B","0199ad14-365e-76a6-8b8a-fa7cce8558ae","0199acf4-d136-78a0-864c-108c630c63d5","[{""page_index"":0,""viewing_time"":3281}]","3281","","",""
"true","","","","","fullscreen","3","11861","0.0-3.0","13C2E6D9E7A143B8B960A930322C9C2B","0199ad14-365e-76a6-8b8a-fa7cce8558ae","0199acf4-d136-78a0-864c-108c630c63d5","","2054","","",""
"","","","","","instructions","4","41144","0.0-4.0","13C2E6D9E7A143B8B960A930322C9C2B","0199ad14-365e-76a6-8b8a-fa7cce8558ae","0199acf4-d136-78a0-864c-108c630c63d5","[{""page_index"":0,""viewing_time"":29282}]","29282","","",""
"","","","","","html-keyboard-response","5","48155","0.0-5.0","13C2E6D9E7A143B8B960A930322C9C2B","0199ad14-365e-76a6-8b8a-fa7cce8558ae","0199acf4-d136-78a0-864c-108c630c63d5","","null","<div style=""display: flex; justify-content: center; align-items: center;"">
                     <img src=""images/causal/causal_series_7/causal_series_7_a.png"" style=""width: 300px; height: 300px;"" />
                   </div>","null",""
"","","","","","html-keyboard-response","6","55163","0.0-6.0","13C2E6D9E7A143B8B960A930322C9C2B","0199ad14-365e-76a6-8b8a-fa7cce8558ae","0199acf4-d136-78a0-864c-108c630c63d5","","null","<div style=""display: flex; justify-content: center; align-items: center;"">
                     <img src=""images/causal/causal_series_7/causal_series_7_b.png"" style=""width: 300px; height: 300px;"" />
                   </div>","null",""
"","","","","","html-keyboard-response","7","62178","0.0-7.0","13C2E6D9E7A143B8B960A930322C9C2B","0199ad14-365e-76a6-8b8a-fa7cce8558ae","0199acf4-d136-78a0-864c-108c630c63d5","","null","<div style=""display: flex; justify-content: center; align-items: center;"">
                     <img src=""images/causal/causal_series_7/causal_series_7_c.png"" style=""width: 300px; height: 300px;"" />
                   </div>","null",""
"","","","","","html-button-response","8","66384","0.0-8.0","13C2E6D9E7A143B8B960A930322C9C2B","0199ad14-365e-76a6-8b8a-fa7cce8558ae","0199acf4-d136-78a0-864c-108c630c63d5","","4205","
        <div style=""display: flex; justify-content: center; align-items: center;"">
          <img src=""images/red_deck_2.png"" style=""width: 300px; height: 300px; margin-right: 10px;"" />
          <img src=""images/blue_deck_1.png"" style=""width: 300px; height: 300px;"" />
        </div>","0","0"
"","","","","","html-keyboard-response","9","73388","0.0-9.0-0.0-0.0","13C2E6D9E7A143B8B960A930322C9C2B","0199ad14-365e-76a6-8b8a-fa7cce8558ae","0199acf4-d136-78a0-864c-108c630c63d5","","null","<div style=""display: flex; justify-content: center; align-items: center;"">
                     <img src=""images/causal/causal_series_7/causal_series_7_d.png"" style=""width: 300px; height: 300px;"" />
                   </div>","null",""
"","","","","","html-keyboard-response","10","80390","0.0-10.0","13C2E6D9E7A143B8B960A930322C9C2B","0199ad14-365e-76a6-8b8a-fa7cce8558ae","0199acf4-d136-78a0-864c-108c630c63d5","","null","<div style=""display: flex; justify-content: center; align-items: center;"">
                     <img src=""images/other/blank.png"" style=""width: 300px; height: 300px;"" />
                   </div>","null",""
"","","","","","html-keyboard-response","11","87394","0.0-11.0","13C2E6D9E7A143B8B960A930322C9C2B","0199ad14-365e-76a6-8b8a-fa7cce8558ae","0199acf4-d136-78a0-864c-108c630c63d5","","null","<div style=""display: flex; justify-content: center; align-items: center;"">
                     <img src=""images/causal/causal_series_4/causal_series_4_a.png"" style=""width: 300px; height: 300px;"" />
                   </div>","null",""
"","","","","","html-keyboard-response","12","94398","0.0-12.0","13C2E6D9E7A143B8B960A930322C9C2B","0199ad14-365e-76a6-8b8a-fa7cce8558ae","0199acf4-d136-78a0-864c-108c630c63d5","","null","<div style=""display: flex; justify-content: center; align-items: center;"">
                     <img src=""images/causal/causal_series_4/causal_series_4_b.png"" style=""width: 300px; height: 300px;"" />
                   </div>","null",""
"","","","","","html-keyboard-response","13","101411","0.0-13.0","13C2E6D9E7A143B8B960A930322C9C2B","0199ad14-365e-76a6-8b8a-fa7cce8558ae","0199acf4-d136-78a0-864c-108c630c63d5","","null","<div style=""display: flex; justify-content: center; align-items: center;"">
                     <img src=""images/causal/causal_series_4/causal_series_4_c.png"" style=""width: 300px; height: 300px;"" />
                   </div>","null",""
"","","","","","html-button-response","14","103761","0.0-14.0","13C2E6D9E7A143B8B960A930322C9C2B","0199ad14-365e-76a6-8b8a-fa7cce8558ae","0199acf4-d136-78a0-864c-108c630c63d5","","2351","
        <div style=""display: flex; justify-content: center; align-items: center;"">
          <img src=""images/red_deck_2.png"" style=""width: 300px; height: 300px; margin-right: 10px;"" />
          <img src=""images/blue_deck_1.png"" style=""width: 300px; height: 300px;"" />
        </div>","1","1"
"","","","","","html-keyboard-response","15","110769","0.0-15.0-1.0-0.0","13C2E6D9E7A143B8B960A930322C9C2B","0199ad14-365e-76a6-8b8a-fa7cce8558ae","0199acf4-d136-78a0-864c-108c630c63d5","","null","<div style=""display: flex; justify-content: center; align-items: center;"">
                     <img src=""images/semantic/semantic_series_4/semantic_series_4_d.png"" style=""width: 300px; height: 300px;"" />
                   </div>","null",""
"","","","","","html-keyboard-response","16","117773","0.0-16.0","13C2E6D9E7A143B8B960A930322C9C2B","0199ad14-365e-76a6-8b8a-fa7cce8558ae","0199acf4-d136-78a0-864c-108c630c63d5","","null","<div style=""display: flex; justify-content: center; align-items: center;"">
                     <img src=""images/other/blank.png"" style=""width: 300px; height: 300px;"" />
                   </div>","null",""
"","","","","","html-keyboard-response","17","124779","0.0-17.0","13C2E6D9E7A143B8B960A930322C9C2B","0199ad14-365e-76a6-8b8a-fa7cce8558ae","0199acf4-d136-78a0-864c-108c630c63d5","","null","<div style=""display: flex; justify-content: center; align-items: center;"">
                     <img src=""images/causal/causal_series_3/causal_series_3_a.png"" style=""width: 300px; height: 300px;"" />
                   </div>","null",""
"","","","","","html-keyboard-response","18","131780","0.0-18.0","13C2E6D9E7A143B8B960A930322C9C2B","0199ad14-365e-76a6-8b8a-fa7cce8558ae","0199acf4-d136-78a0-864c-108c630c63d5","","null","<div style=""display: flex; justify-content: center; align-items: center;"">
                     <img src=""images/causal/causal_series_3/causal_series_3_b.png"" style=""width: 300px; height: 300px;"" />
                   </div>","null",""
"","","","","","html-keyboard-response","19","138792","0.0-19.0","13C2E6D9E7A143B8B960A930322C9C2B","0199ad14-365e-76a6-8b8a-fa7cce8558ae","0199acf4-d136-78a0-864c-108c630c63d5","","null","<div style=""display: flex; justify-content: center; align-items: center;"">
                     <img src=""images/causal/causal_series_3/causal_series_3_c.png"" style=""width: 300px; height: 300px;"" />
                   </div>","null",""
"","","","","","html-button-response","20","140947","0.0-20.0","13C2E6D9E7A143B8B960A930322C9C2B","0199ad14-365e-76a6-8b8a-fa7cce8558ae","0199acf4-d136-78a0-864c-108c630c63d5","","2155","
        <div style=""display: flex; justify-content: center; align-items: center;"">
          <img src=""images/red_deck_2.png"" style=""width: 300px; height: 300px; margin-right: 10px;"" />
          <img src=""images/blue_deck_1.png"" style=""width: 300px; height: 300px;"" />
        </div>","1","1"
"","","","","","html-keyboard-response","21","147965","0.0-21.0-1.0-0.0","13C2E6D9E7A143B8B960A930322C9C2B","0199ad14-365e-76a6-8b8a-fa7cce8558ae","0199acf4-d136-78a0-864c-108c630c63d5","","null","<div style=""display: flex; justify-content: center; align-items: center;"">
                     <img src=""images/semantic/semantic_series_3/semantic_series_3_d.png"" style=""width: 300px; height: 300px;"" />
                   </div>","null",""
"","","","","","html-keyboard-response","22","154971","0.0-22.0","13C2E6D9E7A143B8B960A930322C9C2B","0199ad14-365e-76a6-8b8a-fa7cce8558ae","0199acf4-d136-78a0-864c-108c630c63d5","","null","<div style=""display: flex; justify-content: center; align-items: center;"">
                     <img src=""images/other/blank.png"" style=""width: 300px; height: 300px;"" />
                   </div>","null",""
"","","","","","html-keyboard-response","23","161972","0.0-23.0","13C2E6D9E7A143B8B960A930322C9C2B","0199ad14-365e-76a6-8b8a-fa7cce8558ae","0199acf4-d136-78a0-864c-108c630c63d5","","null","<div style=""display: flex; justify-content: center; align-items: center;"">
                     <img src=""images/causal/causal_series_2/causal_series_2_a.png"" style=""width: 300px; height: 300px;"" />
                   </div>","null",""
"","","","","","html-keyboard-response","24","168987","0.0-24.0","13C2E6D9E7A143B8B960A930322C9C2B","0199ad14-365e-76a6-8b8a-fa7cce8558ae","0199acf4-d136-78a0-864c-108c630c63d5","","null","<div style=""display: flex; justify-content: center; align-items: center;"">
                     <img src=""images/causal/causal_series_2/causal_series_2_b.png"" style=""width: 300px; height: 300px;"" />
                   </div>","null",""
"","","","","","html-keyboard-response","25","175994","0.0-25.0","13C2E6D9E7A143B8B960A930322C9C2B","0199ad14-365e-76a6-8b8a-fa7cce8558ae","0199acf4-d136-78a0-864c-108c630c63d5","","null","<div style=""display: flex; justify-content: center; align-items: center;"">
                     <img src=""images/causal/causal_series_2/causal_series_2_c.png"" style=""width: 300px; height: 300px;"" />
                   </div>","null",""
"","","","","","html-button-response","26","179960","0.0-26.0","13C2E6D9E7A143B8B960A930322C9C2B","0199ad14-365e-76a6-8b8a-fa7cce8558ae","0199acf4-d136-78a0-864c-108c630c63d5","","3966","
        <div style=""display: flex; justify-content: center; align-items: center;"">
          <img src=""images/red_deck_2.png"" style=""width: 300px; height: 300px; margin-right: 10px;"" />
          <img src=""images/blue_deck_1.png"" style=""width: 300px; height: 300px;"" />
        </div>","0","0"
"","","","","","html-keyboard-response","27","186966","0.0-27.0-0.0-0.0","13C2E6D9E7A143B8B960A930322C9C2B","0199ad14-365e-76a6-8b8a-fa7cce8558ae","0199acf4-d136-78a0-864c-108c630c63d5","","null","<div style=""display: flex; justify-content: center; align-items: center;"">
                     <img src=""images/causal/causal_series_2/causal_series_2_d.png"" style=""width: 300px; height: 300px;"" />
                   </div>","null",""
"","","","","","html-keyboard-response","28","193975","0.0-28.0","13C2E6D9E7A143B8B960A930322C9C2B","0199ad14-365e-76a6-8b8a-fa7cce8558ae","0199acf4-d136-78a0-864c-108c630c63d5","","null","<div style=""display: flex; justify-content: center; align-items: center;"">
                     <img src=""images/other/blank.png"" style=""width: 300px; height: 300px;"" />
                   </div>","null",""
"","","","","","html-keyboard-response","29","200989","0.0-29.0","13C2E6D9E7A143B8B960A930322C9C2B","0199ad14-365e-76a6-8b8a-fa7cce8558ae","0199acf4-d136-78a0-864c-108c630c63d5","","null","<div style=""display: flex; justify-content: center; align-items: center;"">
                     <img src=""images/causal/causal_series_10/causal_series_10_a.png"" style=""width: 300px; height: 300px;"" />
                   </div>","null",""
"","","","","","html-keyboard-response","30","208004","0.0-30.0","13C2E6D9E7A143B8B960A930322C9C2B","0199ad14-365e-76a6-8b8a-fa7cce8558ae","0199acf4-d136-78a0-864c-108c630c63d5","","null","<div style=""display: flex; justify-content: center; align-items: center;"">
                     <img src=""images/causal/causal_series_10/causal_series_10_b.png"" style=""width: 300px; height: 300px;"" />
                   </div>","null",""
"","","","","","html-keyboard-response","31","215011","0.0-31.0","13C2E6D9E7A143B8B960A930322C9C2B","0199ad14-365e-76a6-8b8a-fa7cce8558ae","0199acf4-d136-78a0-864c-108c630c63d5","","null","<div style=""display: flex; justify-content: center; align-items: center;"">
                     <img src=""images/causal/causal_series_10/causal_series_10_c.png"" style=""width: 300px; height: 300px;"" />
                   </div>","null",""
"","","","","","html-button-response","32","217506","0.0-32.0","13C2E6D9E7A143B8B960A930322C9C2B","0199ad14-365e-76a6-8b8a-fa7cce8558ae","0199acf4-d136-78a0-864c-108c630c63d5","","2494","
        <div style=""display: flex; justify-content: center; align-items: center;"">
          <img src=""images/red_deck_2.png"" style=""width: 300px; height: 300px; margin-right: 10px;"" />
          <img src=""images/blue_deck_1.png"" style=""width: 300px; height: 300px;"" />
        </div>","1","1"
"","","","","","html-keyboard-response","33","224510","0.0-33.0-1.0-0.0","13C2E6D9E7A143B8B960A930322C9C2B","0199ad14-365e-76a6-8b8a-fa7cce8558ae","0199acf4-d136-78a0-864c-108c630c63d5","","null","<div style=""display: flex; justify-content: center; align-items: center;"">
                     <img src=""images/semantic/semantic_series_10/semantic_series_10_d.png"" style=""width: 300px; height: 300px;"" />
                   </div>","null",""
"","","","","","html-keyboard-response","34","231525","0.0-34.0","13C2E6D9E7A143B8B960A930322C9C2B","0199ad14-365e-76a6-8b8a-fa7cce8558ae","0199acf4-d136-78a0-864c-108c630c63d5","","null","<div style=""display: flex; justify-content: center; align-items: center;"">
                     <img src=""images/other/blank.png"" style=""width: 300px; height: 300px;"" />
                   </div>","null",""
"","","","","","html-keyboard-response","35","238534","0.0-35.0","13C2E6D9E7A143B8B960A930322C9C2B","0199ad14-365e-76a6-8b8a-fa7cce8558ae","0199acf4-d136-78a0-864c-108c630c63d5","","null","<div style=""display: flex; justify-content: center; align-items: center;"">
                     <img src=""images/causal/causal_series_9/causal_series_9_a.png"" style=""width: 300px; height: 300px;"" />
                   </div>","null",""
"","","","","","html-keyboard-response","36","245549","0.0-36.0","13C2E6D9E7A143B8B960A930322C9C2B","0199ad14-365e-76a6-8b8a-fa7cce8558ae","0199acf4-d136-78a0-864c-108c630c63d5","","null","<div style=""display: flex; justify-content: center; align-items: center;"">
                     <img src=""images/causal/causal_series_9/causal_series_9_b.png"" style=""width: 300px; height: 300px;"" />
                   </div>","null",""
"","","","","","html-keyboard-response","37","252560","0.0-37.0","13C2E6D9E7A143B8B960A930322C9C2B","0199ad14-365e-76a6-8b8a-fa7cce8558ae","0199acf4-d136-78a0-864c-108c630c63d5","","null","<div style=""display: flex; justify-content: center; align-items: center;"">
                     <img src=""images/causal/causal_series_9/causal_series_9_c.png"" style=""width: 300px; height: 300px;"" />
                   </div>","null",""
"","","","","","html-button-response","38","256765","0.0-38.0","13C2E6D9E7A143B8B960A930322C9C2B","0199ad14-365e-76a6-8b8a-fa7cce8558ae","0199acf4-d136-78a0-864c-108c630c63d5","","4204","
        <div style=""display: flex; justify-content: center; align-items: center;"">
          <img src=""images/red_deck_2.png"" style=""width: 300px; height: 300px; margin-right: 10px;"" />
          <img src=""images/blue_deck_1.png"" style=""width: 300px; height: 300px;"" />
        </div>","1","1"
"","","","","","html-keyboard-response","39","263768","0.0-39.0-1.0-0.0","13C2E6D9E7A143B8B960A930322C9C2B","0199ad14-365e-76a6-8b8a-fa7cce8558ae","0199acf4-d136-78a0-864c-108c630c63d5","","null","<div style=""display: flex; justify-content: center; align-items: center;"">
                     <img src=""images/semantic/semantic_series_9/semantic_series_9_d.png"" style=""width: 300px; height: 300px;"" />
                   </div>","null",""
"","","","","","html-keyboard-response","40","270811","0.0-40.0","13C2E6D9E7A143B8B960A930322C9C2B","0199ad14-365e-76a6-8b8a-fa7cce8558ae","0199acf4-d136-78a0-864c-108c630c63d5","","null","<div style=""display: flex; justify-content: center; align-items: center;"">
                     <img src=""images/other/blank.png"" style=""width: 300px; height: 300px;"" />
                   </div>","null",""
"","","","","","html-keyboard-response","41","277825","0.0-41.0","13C2E6D9E7A143B8B960A930322C9C2B","0199ad14-365e-76a6-8b8a-fa7cce8558ae","0199acf4-d136-78a0-864c-108c630c63d5","","null","<div style=""display: flex; justify-content: center; align-items: center;"">
                     <img src=""images/causal/causal_series_8/causal_series_8_a.png"" style=""width: 300px; height: 300px;"" />
                   </div>","null",""
"","","","","","html-keyboard-response","42","284836","0.0-42.0","13C2E6D9E7A143B8B960A930322C9C2B","0199ad14-365e-76a6-8b8a-fa7cce8558ae","0199acf4-d136-78a0-864c-108c630c63d5","","null","<div style=""display: flex; justify-content: center; align-items: center;"">
                     <img src=""images/causal/causal_series_8/causal_series_8_b.png"" style=""width: 300px; height: 300px;"" />
                   </div>","null",""
"","","","","","html-keyboard-response","43","291847","0.0-43.0","13C2E6D9E7A143B8B960A930322C9C2B","0199ad14-365e-76a6-8b8a-fa7cce8558ae","0199acf4-d136-78a0-864c-108c630c63d5","","null","<div style=""display: flex; justify-content: center; align-items: center;"">
                     <img src=""images/causal/causal_series_8/causal_series_8_c.png"" style=""width: 300px; height: 300px;"" />
                   </div>","null",""
"","","","","","html-button-response","44","293550","0.0-44.0","13C2E6D9E7A143B8B960A930322C9C2B","0199ad14-365e-76a6-8b8a-fa7cce8558ae","0199acf4-d136-78a0-864c-108c630c63d5","","1703","
        <div style=""display: flex; justify-content: center; align-items: center;"">
          <img src=""images/red_deck_2.png"" style=""width: 300px; height: 300px; margin-right: 10px;"" />
          <img src=""images/blue_deck_1.png"" style=""width: 300px; height: 300px;"" />
        </div>","0","0"
"","","","","","html-keyboard-response","45","300560","0.0-45.0-0.0-0.0","13C2E6D9E7A143B8B960A930322C9C2B","0199ad14-365e-76a6-8b8a-fa7cce8558ae","0199acf4-d136-78a0-864c-108c630c63d5","","null","<div style=""display: flex; justify-content: center; align-items: center;"">
                     <img src=""images/causal/causal_series_8/causal_series_8_d.png"" style=""width: 300px; height: 300px;"" />
                   </div>","null",""
"","","","","","html-keyboard-response","46","307569","0.0-46.0","13C2E6D9E7A143B8B960A930322C9C2B","0199ad14-365e-76a6-8b8a-fa7cce8558ae","0199acf4-d136-78a0-864c-108c630c63d5","","null","<div style=""display: flex; justify-content: center; align-items: center;"">
                     <img src=""images/other/blank.png"" style=""width: 300px; height: 300px;"" />
                   </div>","null",""
"","","","","","html-keyboard-response","47","314578","0.0-47.0","13C2E6D9E7A143B8B960A930322C9C2B","0199ad14-365e-76a6-8b8a-fa7cce8558ae","0199acf4-d136-78a0-864c-108c630c63d5","","null","<div style=""display: flex; justify-content: center; align-items: center;"">
                     <img src=""images/causal/causal_series_1/causal_series_1_a.png"" style=""width: 300px; height: 300px;"" />
                   </div>","null",""
"","","","","","html-keyboard-response","48","321584","0.0-48.0","13C2E6D9E7A143B8B960A930322C9C2B","0199ad14-365e-76a6-8b8a-fa7cce8558ae","0199acf4-d136-78a0-864c-108c630c63d5","","null","<div style=""display: flex; justify-content: center; align-items: center;"">
                     <img src=""images/causal/causal_series_1/causal_series_1_b.png"" style=""width: 300px; height: 300px;"" />
                   </div>","null",""
"","","","","","html-keyboard-response","49","328590","0.0-49.0","13C2E6D9E7A143B8B960A930322C9C2B","0199ad14-365e-76a6-8b8a-fa7cce8558ae","0199acf4-d136-78a0-864c-108c630c63d5","","null","<div style=""display: flex; justify-content: center; align-items: center;"">
                     <img src=""images/causal/causal_series_1/causal_series_1_c.png"" style=""width: 300px; height: 300px;"" />
                   </div>","null",""
"","","","","","html-button-response","50","331102","0.0-50.0","13C2E6D9E7A143B8B960A930322C9C2B","0199ad14-365e-76a6-8b8a-fa7cce8558ae","0199acf4-d136-78a0-864c-108c630c63d5","","2512","
        <div style=""display: flex; justify-content: center; align-items: center;"">
          <img src=""images/red_deck_2.png"" style=""width: 300px; height: 300px; margin-right: 10px;"" />
          <img src=""images/blue_deck_1.png"" style=""width: 300px; height: 300px;"" />
        </div>","0","0"
"","","","","","html-keyboard-response","51","338105","0.0-51.0-0.0-0.0","13C2E6D9E7A143B8B960A930322C9C2B","0199ad14-365e-76a6-8b8a-fa7cce8558ae","0199acf4-d136-78a0-864c-108c630c63d5","","null","<div style=""display: flex; justify-content: center; align-items: center;"">
                     <img src=""images/causal/causal_series_1/causal_series_1_d.png"" style=""width: 300px; height: 300px;"" />
                   </div>","null",""
"","","","","","html-keyboard-response","52","345110","0.0-52.0","13C2E6D9E7A143B8B960A930322C9C2B","0199ad14-365e-76a6-8b8a-fa7cce8558ae","0199acf4-d136-78a0-864c-108c630c63d5","","null","<div style=""display: flex; justify-content: center; align-items: center;"">
                     <img src=""images/other/blank.png"" style=""width: 300px; height: 300px;"" />
                   </div>","null",""
"","","","","","html-keyboard-response","53","352116","0.0-53.0","13C2E6D9E7A143B8B960A930322C9C2B","0199ad14-365e-76a6-8b8a-fa7cce8558ae","0199acf4-d136-78a0-864c-108c630c63d5","","null","<div style=""display: flex; justify-content: center; align-items: center;"">
                     <img src=""images/causal/causal_series_5/causal_series_5_a.png"" style=""width: 300px; height: 300px;"" />
                   </div>","null",""
"","","","","","html-keyboard-response","54","359128","0.0-54.0","13C2E6D9E7A143B8B960A930322C9C2B","0199ad14-365e-76a6-8b8a-fa7cce8558ae","0199acf4-d136-78a0-864c-108c630c63d5","","null","<div style=""display: flex; justify-content: center; align-items: center;"">
                     <img src=""images/causal/causal_series_5/causal_series_5_b.png"" style=""width: 300px; height: 300px;"" />
                   </div>","null",""
"","","","","","html-keyboard-response","55","366133","0.0-55.0","13C2E6D9E7A143B8B960A930322C9C2B","0199ad14-365e-76a6-8b8a-fa7cce8558ae","0199acf4-d136-78a0-864c-108c630c63d5","","null","<div style=""display: flex; justify-content: center; align-items: center;"">
                     <img src=""images/causal/causal_series_5/causal_series_5_c.png"" style=""width: 300px; height: 300px;"" />
                   </div>","null",""
"","","","","","html-button-response","56","367960","0.0-56.0","13C2E6D9E7A143B8B960A930322C9C2B","0199ad14-365e-76a6-8b8a-fa7cce8558ae","0199acf4-d136-78a0-864c-108c630c63d5","","1827","
        <div style=""display: flex; justify-content: center; align-items: center;"">
          <img src=""images/red_deck_2.png"" style=""width: 300px; height: 300px; margin-right: 10px;"" />
          <img src=""images/blue_deck_1.png"" style=""width: 300px; height: 300px;"" />
        </div>","1","1"
"","","","","","html-keyboard-response","57","374975","0.0-57.0-1.0-0.0","13C2E6D9E7A143B8B960A930322C9C2B","0199ad14-365e-76a6-8b8a-fa7cce8558ae","0199acf4-d136-78a0-864c-108c630c63d5","","null","<div style=""display: flex; justify-content: center; align-items: center;"">
                     <img src=""images/semantic/semantic_series_5/semantic_series_5_d.png"" style=""width: 300px; height: 300px;"" />
                   </div>","null",""
"","","","","","html-keyboard-response","58","381990","0.0-58.0","13C2E6D9E7A143B8B960A930322C9C2B","0199ad14-365e-76a6-8b8a-fa7cce8558ae","0199acf4-d136-78a0-864c-108c630c63d5","","null","<div style=""display: flex; justify-content: center; align-items: center;"">
                     <img src=""images/other/blank.png"" style=""width: 300px; height: 300px;"" />
                   </div>","null",""
"","","","","","html-keyboard-response","59","388997","0.0-59.0","13C2E6D9E7A143B8B960A930322C9C2B","0199ad14-365e-76a6-8b8a-fa7cce8558ae","0199acf4-d136-78a0-864c-108c630c63d5","","null","<div style=""display: flex; justify-content: center; align-items: center;"">
                     <img src=""images/causal/causal_series_6/causal_series_6_a.png"" style=""width: 300px; height: 300px;"" />
                   </div>","null",""
"","","","","","html-keyboard-response","60","395998","0.0-60.0","13C2E6D9E7A143B8B960A930322C9C2B","0199ad14-365e-76a6-8b8a-fa7cce8558ae","0199acf4-d136-78a0-864c-108c630c63d5","","null","<div style=""display: flex; justify-content: center; align-items: center;"">
                     <img src=""images/causal/causal_series_6/causal_series_6_b.png"" style=""width: 300px; height: 300px;"" />
                   </div>","null",""
"","","","","","html-keyboard-response","61","403049","0.0-61.0","13C2E6D9E7A143B8B960A930322C9C2B","0199ad14-365e-76a6-8b8a-fa7cce8558ae","0199acf4-d136-78a0-864c-108c630c63d5","","null","<div style=""display: flex; justify-content: center; align-items: center;"">
                     <img src=""images/causal/causal_series_6/causal_series_6_c.png"" style=""width: 300px; height: 300px;"" />
                   </div>","null",""
"","","","","","html-button-response","62","404877","0.0-62.0","13C2E6D9E7A143B8B960A930322C9C2B","0199ad14-365e-76a6-8b8a-fa7cce8558ae","0199acf4-d136-78a0-864c-108c630c63d5","","1828","
        <div style=""display: flex; justify-content: center; align-items: center;"">
          <img src=""images/red_deck_2.png"" style=""width: 300px; height: 300px; margin-right: 10px;"" />
          <img src=""images/blue_deck_1.png"" style=""width: 300px; height: 300px;"" />
        </div>","0","0"
"","","","","","html-keyboard-response","63","411877","0.0-63.0-0.0-0.0","13C2E6D9E7A143B8B960A930322C9C2B","0199ad14-365e-76a6-8b8a-fa7cce8558ae","0199acf4-d136-78a0-864c-108c630c63d5","","null","<div style=""display: flex; justify-content: center; align-items: center;"">
                     <img src=""images/causal/causal_series_6/causal_series_6_d.png"" style=""width: 300px; height: 300px;"" />
                   </div>","null",""
"","","","","","html-keyboard-response","64","418890","0.0-64.0","13C2E6D9E7A143B8B960A930322C9C2B","0199ad14-365e-76a6-8b8a-fa7cce8558ae","0199acf4-d136-78a0-864c-108c630c63d5","","null","<div style=""display: flex; justify-content: center; align-items: center;"">
                     <img src=""images/other/blank.png"" style=""width: 300px; height: 300px;"" />
                   </div>","null",""
"","","","","","survey-text","65","445235","0.0-65.0","13C2E6D9E7A143B8B960A930322C9C2B","0199ad14-365e-76a6-8b8a-fa7cce8558ae","0199acf4-d136-78a0-864c-108c630c63d5","","26343","","{""Q0"":""The red card is more realistic, and the blue one is more imaginative and random.""}",""
"","","","","","survey-text","66","456612","0.0-66.0","13C2E6D9E7A143B8B960A930322C9C2B","0199ad14-365e-76a6-8b8a-fa7cce8558ae","0199acf4-d136-78a0-864c-108c630c63d5","","11374","","{""Q0"":""Blue.""}",""
"","","","","","html-button-response","67","470892","0.0-67.0","13C2E6D9E7A143B8B960A930322C9C2B","0199ad14-365e-76a6-8b8a-fa7cce8558ae","0199acf4-d136-78a0-864c-108c630c63d5","","14278","Which color deck does the fourth image continue the story from?","1",""
"","","","","","html-button-response","68","484061","0.0-68.0","13C2E6D9E7A143B8B960A930322C9C2B","0199ad14-365e-76a6-8b8a-fa7cce8558ae","0199acf4-d136-78a0-864c-108c630c63d5","","13168","Which color deck does the fourth image NOT follow the story from?","0",""
"","","","","","survey-text","69","491605","0.0-69.0","13C2E6D9E7A143B8B960A930322C9C2B","0199ad14-365e-76a6-8b8a-fa7cce8558ae","0199acf4-d136-78a0-864c-108c630c63d5","","7544","","{""Q0"":""MALE"",""Q1"":""20""}",""
"","","","","","instructions","70","496972","0.0-70.0","13C2E6D9E7A143B8B960A930322C9C2B","0199ad14-365e-76a6-8b8a-fa7cce8558ae","0199acf4-d136-78a0-864c-108c630c63d5","[{""page_index"":0,""viewing_time"":5367}]","5367","","",""
