"success","timeout","failed_images","failed_audio","failed_video","trial_type","trial_index","time_elapsed","internal_node_id","subject_id","study_id","session_id","view_history","rt","stimulus","response","choice"
"true","false","[]","[]","[]","preload","0","6493","0.0-0.0","E1898818E2D345DD814150CB3E199FA0","aa26526d-653a-4deb-bb2e-7be270f22684","61e1ec61-13c7-4a8f-bf47-a91ec9909364","","","","",""
"","","","","","instructions","1","8739","0.0-1.0","E1898818E2D345DD814150CB3E199FA0","aa26526d-653a-4deb-bb2e-7be270f22684","61e1ec61-13c7-4a8f-bf47-a91ec9909364","[{""page_index"":0,""viewing_time"":2245}]","2245","","",""
"","","","","","instructions","2","11887","0.0-2.0","E1898818E2D345DD814150CB3E199FA0","aa26526d-653a-4deb-bb2e-7be270f22684","61e1ec61-13c7-4a8f-bf47-a91ec9909364","[{""page_index"":0,""viewing_time"":3148}]","3148","","",""
"true","","","","","fullscreen","3","14574","0.0-3.0","E1898818E2D345DD814150CB3E199FA0","aa26526d-653a-4deb-bb2e-7be270f22684","61e1ec61-13c7-4a8f-bf47-a91ec9909364","","1674","","",""
"","","","","","instructions","4","23904","0.0-4.0","E1898818E2D345DD814150CB3E199FA0","aa26526d-653a-4deb-bb2e-7be270f22684","61e1ec61-13c7-4a8f-bf47-a91ec9909364","[{""page_index"":0,""viewing_time"":9328}]","9329","","",""
"","","","","","html-keyboard-response","5","26914","0.0-5.0","E1898818E2D345DD814150CB3E199FA0","aa26526d-653a-4deb-bb2e-7be270f22684","61e1ec61-13c7-4a8f-bf47-a91ec9909364","","null","<div style=""display: flex; justify-content: center; align-items: center;"">
                <img src=""images/causal/causal_series_16/causal_series_16_a.jpg"" style=""width: 300px; height: 300px;"" />
              </div>","null",""
"","","","","","html-keyboard-response","6","29921","0.0-6.0","E1898818E2D345DD814150CB3E199FA0","aa26526d-653a-4deb-bb2e-7be270f22684","61e1ec61-13c7-4a8f-bf47-a91ec9909364","","null","<div style=""display: flex; justify-content: center; align-items: center;"">
                <img src=""images/causal/causal_series_16/causal_series_16_b.jpg"" style=""width: 300px; height: 300px;"" />
              </div>","null",""
"","","","","","html-keyboard-response","7","32927","0.0-7.0","E1898818E2D345DD814150CB3E199FA0","aa26526d-653a-4deb-bb2e-7be270f22684","61e1ec61-13c7-4a8f-bf47-a91ec9909364","","null","<div style=""display: flex; justify-content: center; align-items: center;"">
                <img src=""images/causal/causal_series_16/causal_series_16_c.jpg"" style=""width: 300px; height: 300px;"" />
              </div>","null",""
"","","","","","html-button-response","8","34140","0.0-8.0","E1898818E2D345DD814150CB3E199FA0","aa26526d-653a-4deb-bb2e-7be270f22684","61e1ec61-13c7-4a8f-bf47-a91ec9909364","","1208","
    <div style=""display: flex; justify-content: center; align-items: center;"">
      <img src=""images/red_deck_2.png"" style=""width: 300px; height: 300px; margin-right: 10px;"" />
      <img src=""images/blue_deck_1.png"" style=""width: 300px; height: 300px;"" />
    </div>","1","1"
"","","","","","html-keyboard-response","9","37146","0.0-9.0-1.0-0.0","E1898818E2D345DD814150CB3E199FA0","aa26526d-653a-4deb-bb2e-7be270f22684","61e1ec61-13c7-4a8f-bf47-a91ec9909364","","null","<div style=""display: flex; justify-content: center; align-items: center;"">
                <img src=""images/semantic/semantic_series_15/semantic_series_15_d.jpg"" style=""width: 300px; height: 300px;"" />
              </div>","null",""
"","","","","","html-keyboard-response","10","40159","0.0-10.0","E1898818E2D345DD814150CB3E199FA0","aa26526d-653a-4deb-bb2e-7be270f22684","61e1ec61-13c7-4a8f-bf47-a91ec9909364","","null","<div style=""display: flex; justify-content: center; align-items: center;"">
                <img src=""images/other/blank.jpg"" style=""width: 300px; height: 300px;"" />
              </div>","null",""
"","","","","","html-keyboard-response","11","43170","0.0-11.0","E1898818E2D345DD814150CB3E199FA0","aa26526d-653a-4deb-bb2e-7be270f22684","61e1ec61-13c7-4a8f-bf47-a91ec9909364","","null","<div style=""display: flex; justify-content: center; align-items: center;"">
                <img src=""images/causal/causal_series_6/causal_series_6_a.jpg"" style=""width: 300px; height: 300px;"" />
              </div>","null",""
"","","","","","html-keyboard-response","12","46180","0.0-12.0","E1898818E2D345DD814150CB3E199FA0","aa26526d-653a-4deb-bb2e-7be270f22684","61e1ec61-13c7-4a8f-bf47-a91ec9909364","","null","<div style=""display: flex; justify-content: center; align-items: center;"">
                <img src=""images/causal/causal_series_6/causal_series_6_b.jpg"" style=""width: 300px; height: 300px;"" />
              </div>","null",""
"","","","","","html-keyboard-response","13","49189","0.0-13.0","E1898818E2D345DD814150CB3E199FA0","aa26526d-653a-4deb-bb2e-7be270f22684","61e1ec61-13c7-4a8f-bf47-a91ec9909364","","null","<div style=""display: flex; justify-content: center; align-items: center;"">
                <img src=""images/causal/causal_series_6/causal_series_6_c.jpg"" style=""width: 300px; height: 300px;"" />
              </div>","null",""
"","","","","","html-button-response","14","76707","0.0-14.0","E1898818E2D345DD814150CB3E199FA0","aa26526d-653a-4deb-bb2e-7be270f22684","61e1ec61-13c7-4a8f-bf47-a91ec9909364","","27518","
    <div style=""display: flex; justify-content: center; align-items: center;"">
      <img src=""images/red_deck_2.png"" style=""width: 300px; height: 300px; margin-right: 10px;"" />
      <img src=""images/blue_deck_1.png"" style=""width: 300px; height: 300px;"" />
    </div>","0","0"
"","","","","","html-keyboard-response","15","79715","0.0-15.0-0.0-0.0","E1898818E2D345DD814150CB3E199FA0","aa26526d-653a-4deb-bb2e-7be270f22684","61e1ec61-13c7-4a8f-bf47-a91ec9909364","","null","<div style=""display: flex; justify-content: center; align-items: center;"">
                <img src=""images/causal/causal_series_6/causal_series_6_d.jpg"" style=""width: 300px; height: 300px;"" />
              </div>","null",""
"","","","","","html-keyboard-response","16","82725","0.0-16.0","E1898818E2D345DD814150CB3E199FA0","aa26526d-653a-4deb-bb2e-7be270f22684","61e1ec61-13c7-4a8f-bf47-a91ec9909364","","null","<div style=""display: flex; justify-content: center; align-items: center;"">
                <img src=""images/other/blank.jpg"" style=""width: 300px; height: 300px;"" />
              </div>","null",""
"","","","","","html-keyboard-response","17","85745","0.0-17.0","E1898818E2D345DD814150CB3E199FA0","aa26526d-653a-4deb-bb2e-7be270f22684","61e1ec61-13c7-4a8f-bf47-a91ec9909364","","null","<div style=""display: flex; justify-content: center; align-items: center;"">
                <img src=""images/causal/causal_series_2/causal_series_2_a.jpg"" style=""width: 300px; height: 300px;"" />
              </div>","null",""
"","","","","","html-keyboard-response","18","88747","0.0-18.0","E1898818E2D345DD814150CB3E199FA0","aa26526d-653a-4deb-bb2e-7be270f22684","61e1ec61-13c7-4a8f-bf47-a91ec9909364","","null","<div style=""display: flex; justify-content: center; align-items: center;"">
                <img src=""images/causal/causal_series_2/causal_series_2_b.jpg"" style=""width: 300px; height: 300px;"" />
              </div>","null",""
"","","","","","html-keyboard-response","19","91759","0.0-19.0","E1898818E2D345DD814150CB3E199FA0","aa26526d-653a-4deb-bb2e-7be270f22684","61e1ec61-13c7-4a8f-bf47-a91ec9909364","","null","<div style=""display: flex; justify-content: center; align-items: center;"">
                <img src=""images/causal/causal_series_2/causal_series_2_c.jpg"" style=""width: 300px; height: 300px;"" />
              </div>","null",""
"","","","","","html-button-response","20","93672","0.0-20.0","E1898818E2D345DD814150CB3E199FA0","aa26526d-653a-4deb-bb2e-7be270f22684","61e1ec61-13c7-4a8f-bf47-a91ec9909364","","1912","
    <div style=""display: flex; justify-content: center; align-items: center;"">
      <img src=""images/red_deck_2.png"" style=""width: 300px; height: 300px; margin-right: 10px;"" />
      <img src=""images/blue_deck_1.png"" style=""width: 300px; height: 300px;"" />
    </div>","1","1"
"","","","","","html-keyboard-response","21","96686","0.0-21.0-1.0-0.0","E1898818E2D345DD814150CB3E199FA0","aa26526d-653a-4deb-bb2e-7be270f22684","61e1ec61-13c7-4a8f-bf47-a91ec9909364","","null","<div style=""display: flex; justify-content: center; align-items: center;"">
                <img src=""images/semantic/semantic_series_1/semantic_series_1_d.jpg"" style=""width: 300px; height: 300px;"" />
              </div>","null",""
"","","","","","html-keyboard-response","22","99695","0.0-22.0","E1898818E2D345DD814150CB3E199FA0","aa26526d-653a-4deb-bb2e-7be270f22684","61e1ec61-13c7-4a8f-bf47-a91ec9909364","","null","<div style=""display: flex; justify-content: center; align-items: center;"">
                <img src=""images/other/blank.jpg"" style=""width: 300px; height: 300px;"" />
              </div>","null",""
"","","","","","html-keyboard-response","23","102702","0.0-23.0","E1898818E2D345DD814150CB3E199FA0","aa26526d-653a-4deb-bb2e-7be270f22684","61e1ec61-13c7-4a8f-bf47-a91ec9909364","","null","<div style=""display: flex; justify-content: center; align-items: center;"">
                <img src=""images/causal/causal_series_7/causal_series_7_a.jpg"" style=""width: 300px; height: 300px;"" />
              </div>","null",""
"","","","","","html-keyboard-response","24","105709","0.0-24.0","E1898818E2D345DD814150CB3E199FA0","aa26526d-653a-4deb-bb2e-7be270f22684","61e1ec61-13c7-4a8f-bf47-a91ec9909364","","null","<div style=""display: flex; justify-content: center; align-items: center;"">
                <img src=""images/causal/causal_series_7/causal_series_7_b.jpg"" style=""width: 300px; height: 300px;"" />
              </div>","null",""
"","","","","","html-keyboard-response","25","108716","0.0-25.0","E1898818E2D345DD814150CB3E199FA0","aa26526d-653a-4deb-bb2e-7be270f22684","61e1ec61-13c7-4a8f-bf47-a91ec9909364","","null","<div style=""display: flex; justify-content: center; align-items: center;"">
                <img src=""images/causal/causal_series_7/causal_series_7_c.jpg"" style=""width: 300px; height: 300px;"" />
              </div>","null",""
"","","","","","html-button-response","26","113404","0.0-26.0","E1898818E2D345DD814150CB3E199FA0","aa26526d-653a-4deb-bb2e-7be270f22684","61e1ec61-13c7-4a8f-bf47-a91ec9909364","","4687","
    <div style=""display: flex; justify-content: center; align-items: center;"">
      <img src=""images/red_deck_2.png"" style=""width: 300px; height: 300px; margin-right: 10px;"" />
      <img src=""images/blue_deck_1.png"" style=""width: 300px; height: 300px;"" />
    </div>","0","0"
"","","","","","html-keyboard-response","27","116412","0.0-27.0-0.0-0.0","E1898818E2D345DD814150CB3E199FA0","aa26526d-653a-4deb-bb2e-7be270f22684","61e1ec61-13c7-4a8f-bf47-a91ec9909364","","null","<div style=""display: flex; justify-content: center; align-items: center;"">
                <img src=""images/causal/causal_series_7/causal_series_7_d.jpg"" style=""width: 300px; height: 300px;"" />
              </div>","null",""
"","","","","","html-keyboard-response","28","119418","0.0-28.0","E1898818E2D345DD814150CB3E199FA0","aa26526d-653a-4deb-bb2e-7be270f22684","61e1ec61-13c7-4a8f-bf47-a91ec9909364","","null","<div style=""display: flex; justify-content: center; align-items: center;"">
                <img src=""images/other/blank.jpg"" style=""width: 300px; height: 300px;"" />
              </div>","null",""
"","","","","","html-keyboard-response","29","122426","0.0-29.0","E1898818E2D345DD814150CB3E199FA0","aa26526d-653a-4deb-bb2e-7be270f22684","61e1ec61-13c7-4a8f-bf47-a91ec9909364","","null","<div style=""display: flex; justify-content: center; align-items: center;"">
                <img src=""images/causal/causal_series_10/causal_series_10_a.jpg"" style=""width: 300px; height: 300px;"" />
              </div>","null",""
"","","","","","html-keyboard-response","30","125432","0.0-30.0","E1898818E2D345DD814150CB3E199FA0","aa26526d-653a-4deb-bb2e-7be270f22684","61e1ec61-13c7-4a8f-bf47-a91ec9909364","","null","<div style=""display: flex; justify-content: center; align-items: center;"">
                <img src=""images/causal/causal_series_10/causal_series_10_b.jpg"" style=""width: 300px; height: 300px;"" />
              </div>","null",""
"","","","","","html-keyboard-response","31","128444","0.0-31.0","E1898818E2D345DD814150CB3E199FA0","aa26526d-653a-4deb-bb2e-7be270f22684","61e1ec61-13c7-4a8f-bf47-a91ec9909364","","null","<div style=""display: flex; justify-content: center; align-items: center;"">
                <img src=""images/causal/causal_series_10/causal_series_10_c.jpg"" style=""width: 300px; height: 300px;"" />
              </div>","null",""
"","","","","","html-button-response","32","129788","0.0-32.0","E1898818E2D345DD814150CB3E199FA0","aa26526d-653a-4deb-bb2e-7be270f22684","61e1ec61-13c7-4a8f-bf47-a91ec9909364","","1342","
    <div style=""display: flex; justify-content: center; align-items: center;"">
      <img src=""images/red_deck_2.png"" style=""width: 300px; height: 300px; margin-right: 10px;"" />
      <img src=""images/blue_deck_1.png"" style=""width: 300px; height: 300px;"" />
    </div>","1","1"
"","","","","","html-keyboard-response","33","132798","0.0-33.0-1.0-0.0","E1898818E2D345DD814150CB3E199FA0","aa26526d-653a-4deb-bb2e-7be270f22684","61e1ec61-13c7-4a8f-bf47-a91ec9909364","","null","<div style=""display: flex; justify-content: center; align-items: center;"">
                <img src=""images/semantic/semantic_series_9/semantic_series_9_d.jpg"" style=""width: 300px; height: 300px;"" />
              </div>","null",""
"","","","","","html-keyboard-response","34","135813","0.0-34.0","E1898818E2D345DD814150CB3E199FA0","aa26526d-653a-4deb-bb2e-7be270f22684","61e1ec61-13c7-4a8f-bf47-a91ec9909364","","null","<div style=""display: flex; justify-content: center; align-items: center;"">
                <img src=""images/other/blank.jpg"" style=""width: 300px; height: 300px;"" />
              </div>","null",""
"","","","","","html-keyboard-response","35","138819","0.0-35.0","E1898818E2D345DD814150CB3E199FA0","aa26526d-653a-4deb-bb2e-7be270f22684","61e1ec61-13c7-4a8f-bf47-a91ec9909364","","null","<div style=""display: flex; justify-content: center; align-items: center;"">
                <img src=""images/causal/causal_series_18/causal_series_18_a.jpg"" style=""width: 300px; height: 300px;"" />
              </div>","null",""
"","","","","","html-keyboard-response","36","141828","0.0-36.0","E1898818E2D345DD814150CB3E199FA0","aa26526d-653a-4deb-bb2e-7be270f22684","61e1ec61-13c7-4a8f-bf47-a91ec9909364","","null","<div style=""display: flex; justify-content: center; align-items: center;"">
                <img src=""images/causal/causal_series_18/causal_series_18_b.jpg"" style=""width: 300px; height: 300px;"" />
              </div>","null",""
"","","","","","html-keyboard-response","37","144830","0.0-37.0","E1898818E2D345DD814150CB3E199FA0","aa26526d-653a-4deb-bb2e-7be270f22684","61e1ec61-13c7-4a8f-bf47-a91ec9909364","","null","<div style=""display: flex; justify-content: center; align-items: center;"">
                <img src=""images/causal/causal_series_18/causal_series_18_c.jpg"" style=""width: 300px; height: 300px;"" />
              </div>","null",""
"","","","","","html-button-response","38","146289","0.0-38.0","E1898818E2D345DD814150CB3E199FA0","aa26526d-653a-4deb-bb2e-7be270f22684","61e1ec61-13c7-4a8f-bf47-a91ec9909364","","1457","
    <div style=""display: flex; justify-content: center; align-items: center;"">
      <img src=""images/red_deck_2.png"" style=""width: 300px; height: 300px; margin-right: 10px;"" />
      <img src=""images/blue_deck_1.png"" style=""width: 300px; height: 300px;"" />
    </div>","0","0"
"","","","","","html-keyboard-response","39","149293","0.0-39.0-0.0-0.0","E1898818E2D345DD814150CB3E199FA0","aa26526d-653a-4deb-bb2e-7be270f22684","61e1ec61-13c7-4a8f-bf47-a91ec9909364","","null","<div style=""display: flex; justify-content: center; align-items: center;"">
                <img src=""images/causal/causal_series_18/causal_series_18_d.jpg"" style=""width: 300px; height: 300px;"" />
              </div>","null",""
"","","","","","html-keyboard-response","40","152297","0.0-40.0","E1898818E2D345DD814150CB3E199FA0","aa26526d-653a-4deb-bb2e-7be270f22684","61e1ec61-13c7-4a8f-bf47-a91ec9909364","","null","<div style=""display: flex; justify-content: center; align-items: center;"">
                <img src=""images/other/blank.jpg"" style=""width: 300px; height: 300px;"" />
              </div>","null",""
"","","","","","html-keyboard-response","41","155302","0.0-41.0","E1898818E2D345DD814150CB3E199FA0","aa26526d-653a-4deb-bb2e-7be270f22684","61e1ec61-13c7-4a8f-bf47-a91ec9909364","","null","<div style=""display: flex; justify-content: center; align-items: center;"">
                <img src=""images/causal/causal_series_11/causal_series_11_a.jpg"" style=""width: 300px; height: 300px;"" />
              </div>","null",""
"","","","","","html-keyboard-response","42","158313","0.0-42.0","E1898818E2D345DD814150CB3E199FA0","aa26526d-653a-4deb-bb2e-7be270f22684","61e1ec61-13c7-4a8f-bf47-a91ec9909364","","null","<div style=""display: flex; justify-content: center; align-items: center;"">
                <img src=""images/causal/causal_series_11/causal_series_11_b.jpg"" style=""width: 300px; height: 300px;"" />
              </div>","null",""
"","","","","","html-keyboard-response","43","161331","0.0-43.0","E1898818E2D345DD814150CB3E199FA0","aa26526d-653a-4deb-bb2e-7be270f22684","61e1ec61-13c7-4a8f-bf47-a91ec9909364","","null","<div style=""display: flex; justify-content: center; align-items: center;"">
                <img src=""images/causal/causal_series_11/causal_series_11_c.jpg"" style=""width: 300px; height: 300px;"" />
              </div>","null",""
"","","","","","html-button-response","44","162332","0.0-44.0","E1898818E2D345DD814150CB3E199FA0","aa26526d-653a-4deb-bb2e-7be270f22684","61e1ec61-13c7-4a8f-bf47-a91ec9909364","","1000","
    <div style=""display: flex; justify-content: center; align-items: center;"">
      <img src=""images/red_deck_2.png"" style=""width: 300px; height: 300px; margin-right: 10px;"" />
      <img src=""images/blue_deck_1.png"" style=""width: 300px; height: 300px;"" />
    </div>","0","0"
"","","","","","html-keyboard-response","45","165344","0.0-45.0-0.0-0.0","E1898818E2D345DD814150CB3E199FA0","aa26526d-653a-4deb-bb2e-7be270f22684","61e1ec61-13c7-4a8f-bf47-a91ec9909364","","null","<div style=""display: flex; justify-content: center; align-items: center;"">
                <img src=""images/causal/causal_series_11/causal_series_11_d.jpg"" style=""width: 300px; height: 300px;"" />
              </div>","null",""
"","","","","","html-keyboard-response","46","168356","0.0-46.0","E1898818E2D345DD814150CB3E199FA0","aa26526d-653a-4deb-bb2e-7be270f22684","61e1ec61-13c7-4a8f-bf47-a91ec9909364","","null","<div style=""display: flex; justify-content: center; align-items: center;"">
                <img src=""images/other/blank.jpg"" style=""width: 300px; height: 300px;"" />
              </div>","null",""
"","","","","","html-keyboard-response","47","171368","0.0-47.0","E1898818E2D345DD814150CB3E199FA0","aa26526d-653a-4deb-bb2e-7be270f22684","61e1ec61-13c7-4a8f-bf47-a91ec9909364","","null","<div style=""display: flex; justify-content: center; align-items: center;"">
                <img src=""images/causal/causal_series_8/causal_series_8_a.jpg"" style=""width: 300px; height: 300px;"" />
              </div>","null",""
"","","","","","html-keyboard-response","48","174380","0.0-48.0","E1898818E2D345DD814150CB3E199FA0","aa26526d-653a-4deb-bb2e-7be270f22684","61e1ec61-13c7-4a8f-bf47-a91ec9909364","","null","<div style=""display: flex; justify-content: center; align-items: center;"">
                <img src=""images/causal/causal_series_8/causal_series_8_b.jpg"" style=""width: 300px; height: 300px;"" />
              </div>","null",""
"","","","","","html-keyboard-response","49","177380","0.0-49.0","E1898818E2D345DD814150CB3E199FA0","aa26526d-653a-4deb-bb2e-7be270f22684","61e1ec61-13c7-4a8f-bf47-a91ec9909364","","null","<div style=""display: flex; justify-content: center; align-items: center;"">
                <img src=""images/causal/causal_series_8/causal_series_8_c.jpg"" style=""width: 300px; height: 300px;"" />
              </div>","null",""
"","","","","","html-button-response","50","179037","0.0-50.0","E1898818E2D345DD814150CB3E199FA0","aa26526d-653a-4deb-bb2e-7be270f22684","61e1ec61-13c7-4a8f-bf47-a91ec9909364","","1655","
    <div style=""display: flex; justify-content: center; align-items: center;"">
      <img src=""images/red_deck_2.png"" style=""width: 300px; height: 300px; margin-right: 10px;"" />
      <img src=""images/blue_deck_1.png"" style=""width: 300px; height: 300px;"" />
    </div>","1","1"
"","","","","","html-keyboard-response","51","182042","0.0-51.0-1.0-0.0","E1898818E2D345DD814150CB3E199FA0","aa26526d-653a-4deb-bb2e-7be270f22684","61e1ec61-13c7-4a8f-bf47-a91ec9909364","","null","<div style=""display: flex; justify-content: center; align-items: center;"">
                <img src=""images/semantic/semantic_series_7/semantic_series_7_d.jpg"" style=""width: 300px; height: 300px;"" />
              </div>","null",""
"","","","","","html-keyboard-response","52","185048","0.0-52.0","E1898818E2D345DD814150CB3E199FA0","aa26526d-653a-4deb-bb2e-7be270f22684","61e1ec61-13c7-4a8f-bf47-a91ec9909364","","null","<div style=""display: flex; justify-content: center; align-items: center;"">
                <img src=""images/other/blank.jpg"" style=""width: 300px; height: 300px;"" />
              </div>","null",""
"","","","","","html-keyboard-response","53","188052","0.0-53.0","E1898818E2D345DD814150CB3E199FA0","aa26526d-653a-4deb-bb2e-7be270f22684","61e1ec61-13c7-4a8f-bf47-a91ec9909364","","null","<div style=""display: flex; justify-content: center; align-items: center;"">
                <img src=""images/causal/causal_series_3/causal_series_3_a.jpg"" style=""width: 300px; height: 300px;"" />
              </div>","null",""
"","","","","","html-keyboard-response","54","191064","0.0-54.0","E1898818E2D345DD814150CB3E199FA0","aa26526d-653a-4deb-bb2e-7be270f22684","61e1ec61-13c7-4a8f-bf47-a91ec9909364","","null","<div style=""display: flex; justify-content: center; align-items: center;"">
                <img src=""images/causal/causal_series_3/causal_series_3_b.jpg"" style=""width: 300px; height: 300px;"" />
              </div>","null",""
"","","","","","html-keyboard-response","55","194078","0.0-55.0","E1898818E2D345DD814150CB3E199FA0","aa26526d-653a-4deb-bb2e-7be270f22684","61e1ec61-13c7-4a8f-bf47-a91ec9909364","","null","<div style=""display: flex; justify-content: center; align-items: center;"">
                <img src=""images/causal/causal_series_3/causal_series_3_c.jpg"" style=""width: 300px; height: 300px;"" />
              </div>","null",""
"","","","","","html-button-response","56","196146","0.0-56.0","E1898818E2D345DD814150CB3E199FA0","aa26526d-653a-4deb-bb2e-7be270f22684","61e1ec61-13c7-4a8f-bf47-a91ec9909364","","2067","
    <div style=""display: flex; justify-content: center; align-items: center;"">
      <img src=""images/red_deck_2.png"" style=""width: 300px; height: 300px; margin-right: 10px;"" />
      <img src=""images/blue_deck_1.png"" style=""width: 300px; height: 300px;"" />
    </div>","0","0"
"","","","","","html-keyboard-response","57","199149","0.0-57.0-0.0-0.0","E1898818E2D345DD814150CB3E199FA0","aa26526d-653a-4deb-bb2e-7be270f22684","61e1ec61-13c7-4a8f-bf47-a91ec9909364","","null","<div style=""display: flex; justify-content: center; align-items: center;"">
                <img src=""images/causal/causal_series_3/causal_series_3_d.jpg"" style=""width: 300px; height: 300px;"" />
              </div>","null",""
"","","","","","html-keyboard-response","58","202165","0.0-58.0","E1898818E2D345DD814150CB3E199FA0","aa26526d-653a-4deb-bb2e-7be270f22684","61e1ec61-13c7-4a8f-bf47-a91ec9909364","","null","<div style=""display: flex; justify-content: center; align-items: center;"">
                <img src=""images/other/blank.jpg"" style=""width: 300px; height: 300px;"" />
              </div>","null",""
"","","","","","html-keyboard-response","59","205179","0.0-59.0","E1898818E2D345DD814150CB3E199FA0","aa26526d-653a-4deb-bb2e-7be270f22684","61e1ec61-13c7-4a8f-bf47-a91ec9909364","","null","<div style=""display: flex; justify-content: center; align-items: center;"">
                <img src=""images/causal/causal_series_15/causal_series_15_a.jpg"" style=""width: 300px; height: 300px;"" />
              </div>","null",""
"","","","","","html-keyboard-response","60","208183","0.0-60.0","E1898818E2D345DD814150CB3E199FA0","aa26526d-653a-4deb-bb2e-7be270f22684","61e1ec61-13c7-4a8f-bf47-a91ec9909364","","null","<div style=""display: flex; justify-content: center; align-items: center;"">
                <img src=""images/causal/causal_series_15/causal_series_15_b.jpg"" style=""width: 300px; height: 300px;"" />
              </div>","null",""
"","","","","","html-keyboard-response","61","211199","0.0-61.0","E1898818E2D345DD814150CB3E199FA0","aa26526d-653a-4deb-bb2e-7be270f22684","61e1ec61-13c7-4a8f-bf47-a91ec9909364","","null","<div style=""display: flex; justify-content: center; align-items: center;"">
                <img src=""images/causal/causal_series_15/causal_series_15_c.jpg"" style=""width: 300px; height: 300px;"" />
              </div>","null",""
"","","","","","html-button-response","62","212119","0.0-62.0","E1898818E2D345DD814150CB3E199FA0","aa26526d-653a-4deb-bb2e-7be270f22684","61e1ec61-13c7-4a8f-bf47-a91ec9909364","","918","
    <div style=""display: flex; justify-content: center; align-items: center;"">
      <img src=""images/red_deck_2.png"" style=""width: 300px; height: 300px; margin-right: 10px;"" />
      <img src=""images/blue_deck_1.png"" style=""width: 300px; height: 300px;"" />
    </div>","0","0"
"","","","","","html-keyboard-response","63","215129","0.0-63.0-0.0-0.0","E1898818E2D345DD814150CB3E199FA0","aa26526d-653a-4deb-bb2e-7be270f22684","61e1ec61-13c7-4a8f-bf47-a91ec9909364","","null","<div style=""display: flex; justify-content: center; align-items: center;"">
                <img src=""images/causal/causal_series_15/causal_series_15_d.jpg"" style=""width: 300px; height: 300px;"" />
              </div>","null",""
"","","","","","html-keyboard-response","64","218143","0.0-64.0","E1898818E2D345DD814150CB3E199FA0","aa26526d-653a-4deb-bb2e-7be270f22684","61e1ec61-13c7-4a8f-bf47-a91ec9909364","","null","<div style=""display: flex; justify-content: center; align-items: center;"">
                <img src=""images/other/blank.jpg"" style=""width: 300px; height: 300px;"" />
              </div>","null",""
"","","","","","html-keyboard-response","65","221147","0.0-65.0","E1898818E2D345DD814150CB3E199FA0","aa26526d-653a-4deb-bb2e-7be270f22684","61e1ec61-13c7-4a8f-bf47-a91ec9909364","","null","<div style=""display: flex; justify-content: center; align-items: center;"">
                <img src=""images/causal/causal_series_5/causal_series_5_a.jpg"" style=""width: 300px; height: 300px;"" />
              </div>","null",""
"","","","","","html-keyboard-response","66","224164","0.0-66.0","E1898818E2D345DD814150CB3E199FA0","aa26526d-653a-4deb-bb2e-7be270f22684","61e1ec61-13c7-4a8f-bf47-a91ec9909364","","null","<div style=""display: flex; justify-content: center; align-items: center;"">
                <img src=""images/causal/causal_series_5/causal_series_5_b.jpg"" style=""width: 300px; height: 300px;"" />
              </div>","null",""
"","","","","","html-keyboard-response","67","227178","0.0-67.0","E1898818E2D345DD814150CB3E199FA0","aa26526d-653a-4deb-bb2e-7be270f22684","61e1ec61-13c7-4a8f-bf47-a91ec9909364","","null","<div style=""display: flex; justify-content: center; align-items: center;"">
                <img src=""images/causal/causal_series_5/causal_series_5_c.jpg"" style=""width: 300px; height: 300px;"" />
              </div>","null",""
"","","","","","html-button-response","68","229033","0.0-68.0","E1898818E2D345DD814150CB3E199FA0","aa26526d-653a-4deb-bb2e-7be270f22684","61e1ec61-13c7-4a8f-bf47-a91ec9909364","","1854","
    <div style=""display: flex; justify-content: center; align-items: center;"">
      <img src=""images/red_deck_2.png"" style=""width: 300px; height: 300px; margin-right: 10px;"" />
      <img src=""images/blue_deck_1.png"" style=""width: 300px; height: 300px;"" />
    </div>","0","0"
"","","","","","html-keyboard-response","69","232050","0.0-69.0-0.0-0.0","E1898818E2D345DD814150CB3E199FA0","aa26526d-653a-4deb-bb2e-7be270f22684","61e1ec61-13c7-4a8f-bf47-a91ec9909364","","null","<div style=""display: flex; justify-content: center; align-items: center;"">
                <img src=""images/causal/causal_series_5/causal_series_5_d.jpg"" style=""width: 300px; height: 300px;"" />
              </div>","null",""
"","","","","","html-keyboard-response","70","235062","0.0-70.0","E1898818E2D345DD814150CB3E199FA0","aa26526d-653a-4deb-bb2e-7be270f22684","61e1ec61-13c7-4a8f-bf47-a91ec9909364","","null","<div style=""display: flex; justify-content: center; align-items: center;"">
                <img src=""images/other/blank.jpg"" style=""width: 300px; height: 300px;"" />
              </div>","null",""
"","","","","","html-keyboard-response","71","238064","0.0-71.0","E1898818E2D345DD814150CB3E199FA0","aa26526d-653a-4deb-bb2e-7be270f22684","61e1ec61-13c7-4a8f-bf47-a91ec9909364","","null","<div style=""display: flex; justify-content: center; align-items: center;"">
                <img src=""images/causal/causal_series_4/causal_series_4_a.jpg"" style=""width: 300px; height: 300px;"" />
              </div>","null",""
"","","","","","html-keyboard-response","72","241081","0.0-72.0","E1898818E2D345DD814150CB3E199FA0","aa26526d-653a-4deb-bb2e-7be270f22684","61e1ec61-13c7-4a8f-bf47-a91ec9909364","","null","<div style=""display: flex; justify-content: center; align-items: center;"">
                <img src=""images/causal/causal_series_4/causal_series_4_b.jpg"" style=""width: 300px; height: 300px;"" />
              </div>","null",""
"","","","","","html-keyboard-response","73","244093","0.0-73.0","E1898818E2D345DD814150CB3E199FA0","aa26526d-653a-4deb-bb2e-7be270f22684","61e1ec61-13c7-4a8f-bf47-a91ec9909364","","null","<div style=""display: flex; justify-content: center; align-items: center;"">
                <img src=""images/causal/causal_series_4/causal_series_4_c.jpg"" style=""width: 300px; height: 300px;"" />
              </div>","null",""
"","","","","","html-button-response","74","245306","0.0-74.0","E1898818E2D345DD814150CB3E199FA0","aa26526d-653a-4deb-bb2e-7be270f22684","61e1ec61-13c7-4a8f-bf47-a91ec9909364","","1212","
    <div style=""display: flex; justify-content: center; align-items: center;"">
      <img src=""images/red_deck_2.png"" style=""width: 300px; height: 300px; margin-right: 10px;"" />
      <img src=""images/blue_deck_1.png"" style=""width: 300px; height: 300px;"" />
    </div>","1","1"
"","","","","","html-keyboard-response","75","248316","0.0-75.0-1.0-0.0","E1898818E2D345DD814150CB3E199FA0","aa26526d-653a-4deb-bb2e-7be270f22684","61e1ec61-13c7-4a8f-bf47-a91ec9909364","","null","<div style=""display: flex; justify-content: center; align-items: center;"">
                <img src=""images/semantic/semantic_series_3/semantic_series_3_d.jpg"" style=""width: 300px; height: 300px;"" />
              </div>","null",""
"","","","","","html-keyboard-response","76","251327","0.0-76.0","E1898818E2D345DD814150CB3E199FA0","aa26526d-653a-4deb-bb2e-7be270f22684","61e1ec61-13c7-4a8f-bf47-a91ec9909364","","null","<div style=""display: flex; justify-content: center; align-items: center;"">
                <img src=""images/other/blank.jpg"" style=""width: 300px; height: 300px;"" />
              </div>","null",""
"","","","","","html-keyboard-response","77","254330","0.0-77.0","E1898818E2D345DD814150CB3E199FA0","aa26526d-653a-4deb-bb2e-7be270f22684","61e1ec61-13c7-4a8f-bf47-a91ec9909364","","null","<div style=""display: flex; justify-content: center; align-items: center;"">
                <img src=""images/causal/causal_series_12/causal_series_12_a.jpg"" style=""width: 300px; height: 300px;"" />
              </div>","null",""
"","","","","","html-keyboard-response","78","257346","0.0-78.0","E1898818E2D345DD814150CB3E199FA0","aa26526d-653a-4deb-bb2e-7be270f22684","61e1ec61-13c7-4a8f-bf47-a91ec9909364","","null","<div style=""display: flex; justify-content: center; align-items: center;"">
                <img src=""images/causal/causal_series_12/causal_series_12_b.jpg"" style=""width: 300px; height: 300px;"" />
              </div>","null",""
"","","","","","html-keyboard-response","79","260362","0.0-79.0","E1898818E2D345DD814150CB3E199FA0","aa26526d-653a-4deb-bb2e-7be270f22684","61e1ec61-13c7-4a8f-bf47-a91ec9909364","","null","<div style=""display: flex; justify-content: center; align-items: center;"">
                <img src=""images/causal/causal_series_12/causal_series_12_c.jpg"" style=""width: 300px; height: 300px;"" />
              </div>","null",""
"","","","","","html-button-response","80","262150","0.0-80.0","E1898818E2D345DD814150CB3E199FA0","aa26526d-653a-4deb-bb2e-7be270f22684","61e1ec61-13c7-4a8f-bf47-a91ec9909364","","1786","
    <div style=""display: flex; justify-content: center; align-items: center;"">
      <img src=""images/red_deck_2.png"" style=""width: 300px; height: 300px; margin-right: 10px;"" />
      <img src=""images/blue_deck_1.png"" style=""width: 300px; height: 300px;"" />
    </div>","1","1"
"","","","","","html-keyboard-response","81","265152","0.0-81.0-1.0-0.0","E1898818E2D345DD814150CB3E199FA0","aa26526d-653a-4deb-bb2e-7be270f22684","61e1ec61-13c7-4a8f-bf47-a91ec9909364","","null","<div style=""display: flex; justify-content: center; align-items: center;"">
                <img src=""images/semantic/semantic_series_11/semantic_series_11_d.jpg"" style=""width: 300px; height: 300px;"" />
              </div>","null",""
"","","","","","html-keyboard-response","82","268168","0.0-82.0","E1898818E2D345DD814150CB3E199FA0","aa26526d-653a-4deb-bb2e-7be270f22684","61e1ec61-13c7-4a8f-bf47-a91ec9909364","","null","<div style=""display: flex; justify-content: center; align-items: center;"">
                <img src=""images/other/blank.jpg"" style=""width: 300px; height: 300px;"" />
              </div>","null",""
"","","","","","html-keyboard-response","83","271178","0.0-83.0","E1898818E2D345DD814150CB3E199FA0","aa26526d-653a-4deb-bb2e-7be270f22684","61e1ec61-13c7-4a8f-bf47-a91ec9909364","","null","<div style=""display: flex; justify-content: center; align-items: center;"">
                <img src=""images/causal/causal_series_13/causal_series_13_a.jpg"" style=""width: 300px; height: 300px;"" />
              </div>","null",""
"","","","","","html-keyboard-response","84","274192","0.0-84.0","E1898818E2D345DD814150CB3E199FA0","aa26526d-653a-4deb-bb2e-7be270f22684","61e1ec61-13c7-4a8f-bf47-a91ec9909364","","null","<div style=""display: flex; justify-content: center; align-items: center;"">
                <img src=""images/causal/causal_series_13/causal_series_13_b.jpg"" style=""width: 300px; height: 300px;"" />
              </div>","null",""
"","","","","","html-keyboard-response","85","277197","0.0-85.0","E1898818E2D345DD814150CB3E199FA0","aa26526d-653a-4deb-bb2e-7be270f22684","61e1ec61-13c7-4a8f-bf47-a91ec9909364","","null","<div style=""display: flex; justify-content: center; align-items: center;"">
                <img src=""images/causal/causal_series_13/causal_series_13_c.jpg"" style=""width: 300px; height: 300px;"" />
              </div>","null",""
"","","","","","html-button-response","86","281199","0.0-86.0","E1898818E2D345DD814150CB3E199FA0","aa26526d-653a-4deb-bb2e-7be270f22684","61e1ec61-13c7-4a8f-bf47-a91ec9909364","","4001","
    <div style=""display: flex; justify-content: center; align-items: center;"">
      <img src=""images/red_deck_2.png"" style=""width: 300px; height: 300px; margin-right: 10px;"" />
      <img src=""images/blue_deck_1.png"" style=""width: 300px; height: 300px;"" />
    </div>","0","0"
"","","","","","html-keyboard-response","87","284211","0.0-87.0-0.0-0.0","E1898818E2D345DD814150CB3E199FA0","aa26526d-653a-4deb-bb2e-7be270f22684","61e1ec61-13c7-4a8f-bf47-a91ec9909364","","null","<div style=""display: flex; justify-content: center; align-items: center;"">
                <img src=""images/causal/causal_series_13/causal_series_13_d.jpg"" style=""width: 300px; height: 300px;"" />
              </div>","null",""
"","","","","","html-keyboard-response","88","287217","0.0-88.0","E1898818E2D345DD814150CB3E199FA0","aa26526d-653a-4deb-bb2e-7be270f22684","61e1ec61-13c7-4a8f-bf47-a91ec9909364","","null","<div style=""display: flex; justify-content: center; align-items: center;"">
                <img src=""images/other/blank.jpg"" style=""width: 300px; height: 300px;"" />
              </div>","null",""
"","","","","","html-keyboard-response","89","290229","0.0-89.0","E1898818E2D345DD814150CB3E199FA0","aa26526d-653a-4deb-bb2e-7be270f22684","61e1ec61-13c7-4a8f-bf47-a91ec9909364","","null","<div style=""display: flex; justify-content: center; align-items: center;"">
                <img src=""images/causal/causal_series_1/causal_series_1_a.jpg"" style=""width: 300px; height: 300px;"" />
              </div>","null",""
"","","","","","html-keyboard-response","90","293241","0.0-90.0","E1898818E2D345DD814150CB3E199FA0","aa26526d-653a-4deb-bb2e-7be270f22684","61e1ec61-13c7-4a8f-bf47-a91ec9909364","","null","<div style=""display: flex; justify-content: center; align-items: center;"">
                <img src=""images/causal/causal_series_1/causal_series_1_b.jpg"" style=""width: 300px; height: 300px;"" />
              </div>","null",""
"","","","","","html-keyboard-response","91","296258","0.0-91.0","E1898818E2D345DD814150CB3E199FA0","aa26526d-653a-4deb-bb2e-7be270f22684","61e1ec61-13c7-4a8f-bf47-a91ec9909364","","null","<div style=""display: flex; justify-content: center; align-items: center;"">
                <img src=""images/causal/causal_series_1/causal_series_1_c.jpg"" style=""width: 300px; height: 300px;"" />
              </div>","null",""
"","","","","","html-button-response","92","297621","0.0-92.0","E1898818E2D345DD814150CB3E199FA0","aa26526d-653a-4deb-bb2e-7be270f22684","61e1ec61-13c7-4a8f-bf47-a91ec9909364","","1362","
    <div style=""display: flex; justify-content: center; align-items: center;"">
      <img src=""images/red_deck_2.png"" style=""width: 300px; height: 300px; margin-right: 10px;"" />
      <img src=""images/blue_deck_1.png"" style=""width: 300px; height: 300px;"" />
    </div>","1","1"
"","","","","","html-keyboard-response","93","300628","0.0-93.0-1.0-0.0","E1898818E2D345DD814150CB3E199FA0","aa26526d-653a-4deb-bb2e-7be270f22684","61e1ec61-13c7-4a8f-bf47-a91ec9909364","","null","<div style=""display: flex; justify-content: center; align-items: center;"">
                <img src=""images/semantic/semantic_series_18/semantic_series_18_d.jpg"" style=""width: 300px; height: 300px;"" />
              </div>","null",""
"","","","","","html-keyboard-response","94","303631","0.0-94.0","E1898818E2D345DD814150CB3E199FA0","aa26526d-653a-4deb-bb2e-7be270f22684","61e1ec61-13c7-4a8f-bf47-a91ec9909364","","null","<div style=""display: flex; justify-content: center; align-items: center;"">
                <img src=""images/other/blank.jpg"" style=""width: 300px; height: 300px;"" />
              </div>","null",""
"","","","","","html-keyboard-response","95","306644","0.0-95.0","E1898818E2D345DD814150CB3E199FA0","aa26526d-653a-4deb-bb2e-7be270f22684","61e1ec61-13c7-4a8f-bf47-a91ec9909364","","null","<div style=""display: flex; justify-content: center; align-items: center;"">
                <img src=""images/causal/causal_series_9/causal_series_9_a.jpg"" style=""width: 300px; height: 300px;"" />
              </div>","null",""
"","","","","","html-keyboard-response","96","309646","0.0-96.0","E1898818E2D345DD814150CB3E199FA0","aa26526d-653a-4deb-bb2e-7be270f22684","61e1ec61-13c7-4a8f-bf47-a91ec9909364","","null","<div style=""display: flex; justify-content: center; align-items: center;"">
                <img src=""images/causal/causal_series_9/causal_series_9_b.jpg"" style=""width: 300px; height: 300px;"" />
              </div>","null",""
"","","","","","html-keyboard-response","97","312650","0.0-97.0","E1898818E2D345DD814150CB3E199FA0","aa26526d-653a-4deb-bb2e-7be270f22684","61e1ec61-13c7-4a8f-bf47-a91ec9909364","","null","<div style=""display: flex; justify-content: center; align-items: center;"">
                <img src=""images/causal/causal_series_9/causal_series_9_c.jpg"" style=""width: 300px; height: 300px;"" />
              </div>","null",""
"","","","","","html-button-response","98","314394","0.0-98.0","E1898818E2D345DD814150CB3E199FA0","aa26526d-653a-4deb-bb2e-7be270f22684","61e1ec61-13c7-4a8f-bf47-a91ec9909364","","1743","
    <div style=""display: flex; justify-content: center; align-items: center;"">
      <img src=""images/red_deck_2.png"" style=""width: 300px; height: 300px; margin-right: 10px;"" />
      <img src=""images/blue_deck_1.png"" style=""width: 300px; height: 300px;"" />
    </div>","0","0"
"","","","","","html-keyboard-response","99","317395","0.0-99.0-0.0-0.0","E1898818E2D345DD814150CB3E199FA0","aa26526d-653a-4deb-bb2e-7be270f22684","61e1ec61-13c7-4a8f-bf47-a91ec9909364","","null","<div style=""display: flex; justify-content: center; align-items: center;"">
                <img src=""images/causal/causal_series_9/causal_series_9_d.jpg"" style=""width: 300px; height: 300px;"" />
              </div>","null",""
"","","","","","html-keyboard-response","100","320401","0.0-100.0","E1898818E2D345DD814150CB3E199FA0","aa26526d-653a-4deb-bb2e-7be270f22684","61e1ec61-13c7-4a8f-bf47-a91ec9909364","","null","<div style=""display: flex; justify-content: center; align-items: center;"">
                <img src=""images/other/blank.jpg"" style=""width: 300px; height: 300px;"" />
              </div>","null",""
"","","","","","html-keyboard-response","101","323415","0.0-101.0","E1898818E2D345DD814150CB3E199FA0","aa26526d-653a-4deb-bb2e-7be270f22684","61e1ec61-13c7-4a8f-bf47-a91ec9909364","","null","<div style=""display: flex; justify-content: center; align-items: center;"">
                <img src=""images/causal/causal_series_17/causal_series_17_a.jpg"" style=""width: 300px; height: 300px;"" />
              </div>","null",""
"","","","","","html-keyboard-response","102","326421","0.0-102.0","E1898818E2D345DD814150CB3E199FA0","aa26526d-653a-4deb-bb2e-7be270f22684","61e1ec61-13c7-4a8f-bf47-a91ec9909364","","null","<div style=""display: flex; justify-content: center; align-items: center;"">
                <img src=""images/causal/causal_series_17/causal_series_17_b.jpg"" style=""width: 300px; height: 300px;"" />
              </div>","null",""
"","","","","","html-keyboard-response","103","329429","0.0-103.0","E1898818E2D345DD814150CB3E199FA0","aa26526d-653a-4deb-bb2e-7be270f22684","61e1ec61-13c7-4a8f-bf47-a91ec9909364","","null","<div style=""display: flex; justify-content: center; align-items: center;"">
                <img src=""images/causal/causal_series_17/causal_series_17_c.jpg"" style=""width: 300px; height: 300px;"" />
              </div>","null",""
"","","","","","html-button-response","104","331696","0.0-104.0","E1898818E2D345DD814150CB3E199FA0","aa26526d-653a-4deb-bb2e-7be270f22684","61e1ec61-13c7-4a8f-bf47-a91ec9909364","","2267","
    <div style=""display: flex; justify-content: center; align-items: center;"">
      <img src=""images/red_deck_2.png"" style=""width: 300px; height: 300px; margin-right: 10px;"" />
      <img src=""images/blue_deck_1.png"" style=""width: 300px; height: 300px;"" />
    </div>","0","0"
"","","","","","html-keyboard-response","105","334701","0.0-105.0-0.0-0.0","E1898818E2D345DD814150CB3E199FA0","aa26526d-653a-4deb-bb2e-7be270f22684","61e1ec61-13c7-4a8f-bf47-a91ec9909364","","null","<div style=""display: flex; justify-content: center; align-items: center;"">
                <img src=""images/causal/causal_series_17/causal_series_17_d.jpg"" style=""width: 300px; height: 300px;"" />
              </div>","null",""
"","","","","","html-keyboard-response","106","337707","0.0-106.0","E1898818E2D345DD814150CB3E199FA0","aa26526d-653a-4deb-bb2e-7be270f22684","61e1ec61-13c7-4a8f-bf47-a91ec9909364","","null","<div style=""display: flex; justify-content: center; align-items: center;"">
                <img src=""images/other/blank.jpg"" style=""width: 300px; height: 300px;"" />
              </div>","null",""
"","","","","","html-keyboard-response","107","340711","0.0-107.0","E1898818E2D345DD814150CB3E199FA0","aa26526d-653a-4deb-bb2e-7be270f22684","61e1ec61-13c7-4a8f-bf47-a91ec9909364","","null","<div style=""display: flex; justify-content: center; align-items: center;"">
                <img src=""images/causal/causal_series_14/causal_series_14_a.jpg"" style=""width: 300px; height: 300px;"" />
              </div>","null",""
"","","","","","html-keyboard-response","108","343728","0.0-108.0","E1898818E2D345DD814150CB3E199FA0","aa26526d-653a-4deb-bb2e-7be270f22684","61e1ec61-13c7-4a8f-bf47-a91ec9909364","","null","<div style=""display: flex; justify-content: center; align-items: center;"">
                <img src=""images/causal/causal_series_14/causal_series_14_b.jpg"" style=""width: 300px; height: 300px;"" />
              </div>","null",""
"","","","","","html-keyboard-response","109","346731","0.0-109.0","E1898818E2D345DD814150CB3E199FA0","aa26526d-653a-4deb-bb2e-7be270f22684","61e1ec61-13c7-4a8f-bf47-a91ec9909364","","null","<div style=""display: flex; justify-content: center; align-items: center;"">
                <img src=""images/causal/causal_series_14/causal_series_14_c.jpg"" style=""width: 300px; height: 300px;"" />
              </div>","null",""
"","","","","","html-button-response","110","353485","0.0-110.0","E1898818E2D345DD814150CB3E199FA0","aa26526d-653a-4deb-bb2e-7be270f22684","61e1ec61-13c7-4a8f-bf47-a91ec9909364","","6753","
    <div style=""display: flex; justify-content: center; align-items: center;"">
      <img src=""images/red_deck_2.png"" style=""width: 300px; height: 300px; margin-right: 10px;"" />
      <img src=""images/blue_deck_1.png"" style=""width: 300px; height: 300px;"" />
    </div>","0","0"
"","","","","","html-keyboard-response","111","356492","0.0-111.0-0.0-0.0","E1898818E2D345DD814150CB3E199FA0","aa26526d-653a-4deb-bb2e-7be270f22684","61e1ec61-13c7-4a8f-bf47-a91ec9909364","","null","<div style=""display: flex; justify-content: center; align-items: center;"">
                <img src=""images/causal/causal_series_14/causal_series_14_d.jpg"" style=""width: 300px; height: 300px;"" />
              </div>","null",""
"","","","","","html-keyboard-response","112","359500","0.0-112.0","E1898818E2D345DD814150CB3E199FA0","aa26526d-653a-4deb-bb2e-7be270f22684","61e1ec61-13c7-4a8f-bf47-a91ec9909364","","null","<div style=""display: flex; justify-content: center; align-items: center;"">
                <img src=""images/other/blank.jpg"" style=""width: 300px; height: 300px;"" />
              </div>","null",""
"","","","","","survey-text","113","372844","0.0-113.0","E1898818E2D345DD814150CB3E199FA0","aa26526d-653a-4deb-bb2e-7be270f22684","61e1ec61-13c7-4a8f-bf47-a91ec9909364","","13339","","{""Q0"":""blue didn't seem to fit the story ever, that i recall""}",""
"","","","","","survey-text","114","385651","0.0-114.0","E1898818E2D345DD814150CB3E199FA0","aa26526d-653a-4deb-bb2e-7be270f22684","61e1ec61-13c7-4a8f-bf47-a91ec9909364","","12803","","{""Q0"":""red, only because i was curious about how it finished the story""}",""
"","","","","","html-button-response","115","389386","0.0-115.0","E1898818E2D345DD814150CB3E199FA0","aa26526d-653a-4deb-bb2e-7be270f22684","61e1ec61-13c7-4a8f-bf47-a91ec9909364","","3735","Which color deck does the fourth image continue the story from the series?","1",""
"","","","","","html-button-response","116","390899","0.0-116.0","E1898818E2D345DD814150CB3E199FA0","aa26526d-653a-4deb-bb2e-7be270f22684","61e1ec61-13c7-4a8f-bf47-a91ec9909364","","1512","Which color deck does the fourth image not follow the story from the series?","0",""
"","","","","","survey-text","117","395087","0.0-117.0","E1898818E2D345DD814150CB3E199FA0","aa26526d-653a-4deb-bb2e-7be270f22684","61e1ec61-13c7-4a8f-bf47-a91ec9909364","","4184","","{""Q0"":""female"",""Q1"":""31""}",""
"","","","","","instructions","118","400674","0.0-118.0","E1898818E2D345DD814150CB3E199FA0","aa26526d-653a-4deb-bb2e-7be270f22684","61e1ec61-13c7-4a8f-bf47-a91ec9909364","[{""page_index"":0,""viewing_time"":5587}]","5587","","",""
