"success","timeout","failed_images","failed_audio","failed_video","trial_type","trial_index","time_elapsed","internal_node_id","subject_id","study_id","session_id","view_history","rt","stimulus","response","choice"
"true","false","[]","[]","[]","preload","0","2861","0.0-0.0","95416C0F6E064D71AB90B8C65922E1B7","e732dc70-dd30-4662-b706-9052d4807dcd","683bf07d-1a26-40b1-9cff-5abdc1eed0ee","","","","",""
"","","","","","instructions","1","9746","0.0-1.0","95416C0F6E064D71AB90B8C65922E1B7","e732dc70-dd30-4662-b706-9052d4807dcd","683bf07d-1a26-40b1-9cff-5abdc1eed0ee","[{""page_index"":0,""viewing_time"":6883}]","6884","","",""
"","","","","","instructions","2","14220","0.0-2.0","95416C0F6E064D71AB90B8C65922E1B7","e732dc70-dd30-4662-b706-9052d4807dcd","683bf07d-1a26-40b1-9cff-5abdc1eed0ee","[{""page_index"":0,""viewing_time"":4471}]","4472","","",""
"true","","","","","fullscreen","3","16721","0.0-3.0","95416C0F6E064D71AB90B8C65922E1B7","e732dc70-dd30-4662-b706-9052d4807dcd","683bf07d-1a26-40b1-9cff-5abdc1eed0ee","","1474","","",""
"","","","","","instructions","4","23150","0.0-4.0","95416C0F6E064D71AB90B8C65922E1B7","e732dc70-dd30-4662-b706-9052d4807dcd","683bf07d-1a26-40b1-9cff-5abdc1eed0ee","[{""page_index"":0,""viewing_time"":6426}]","6427","","",""
"","","","","","html-keyboard-response","5","26158","0.0-5.0","95416C0F6E064D71AB90B8C65922E1B7","e732dc70-dd30-4662-b706-9052d4807dcd","683bf07d-1a26-40b1-9cff-5abdc1eed0ee","","null","<div style=""display: flex; justify-content: center; align-items: center;"">
                <img src=""images/causal/causal_series_9/causal_series_9_a.jpg"" style=""width: 300px; height: 300px;"" />
              </div>","null",""
"","","","","","html-keyboard-response","6","29164","0.0-6.0","95416C0F6E064D71AB90B8C65922E1B7","e732dc70-dd30-4662-b706-9052d4807dcd","683bf07d-1a26-40b1-9cff-5abdc1eed0ee","","null","<div style=""display: flex; justify-content: center; align-items: center;"">
                <img src=""images/causal/causal_series_9/causal_series_9_b.jpg"" style=""width: 300px; height: 300px;"" />
              </div>","null",""
"","","","","","html-keyboard-response","7","32168","0.0-7.0","95416C0F6E064D71AB90B8C65922E1B7","e732dc70-dd30-4662-b706-9052d4807dcd","683bf07d-1a26-40b1-9cff-5abdc1eed0ee","","null","<div style=""display: flex; justify-content: center; align-items: center;"">
                <img src=""images/causal/causal_series_9/causal_series_9_c.jpg"" style=""width: 300px; height: 300px;"" />
              </div>","null",""
"","","","","","html-button-response","8","33877","0.0-8.0","95416C0F6E064D71AB90B8C65922E1B7","e732dc70-dd30-4662-b706-9052d4807dcd","683bf07d-1a26-40b1-9cff-5abdc1eed0ee","","1705","
    <div style=""display: flex; justify-content: center; align-items: center;"">
      <img src=""images/red_deck_2.png"" style=""width: 300px; height: 300px; margin-right: 10px;"" />
      <img src=""images/blue_deck_1.png"" style=""width: 300px; height: 300px;"" />
    </div>","1","1"
"","","","","","html-keyboard-response","9","36886","0.0-9.0-1.0-0.0","95416C0F6E064D71AB90B8C65922E1B7","e732dc70-dd30-4662-b706-9052d4807dcd","683bf07d-1a26-40b1-9cff-5abdc1eed0ee","","null","<div style=""display: flex; justify-content: center; align-items: center;"">
                <img src=""images/semantic/semantic_series_8/semantic_series_8_d.jpg"" style=""width: 300px; height: 300px;"" />
              </div>","null",""
"","","","","","html-keyboard-response","10","39900","0.0-10.0","95416C0F6E064D71AB90B8C65922E1B7","e732dc70-dd30-4662-b706-9052d4807dcd","683bf07d-1a26-40b1-9cff-5abdc1eed0ee","","null","<div style=""display: flex; justify-content: center; align-items: center;"">
                <img src=""images/other/blank.jpg"" style=""width: 300px; height: 300px;"" />
              </div>","null",""
"","","","","","html-keyboard-response","11","42903","0.0-11.0","95416C0F6E064D71AB90B8C65922E1B7","e732dc70-dd30-4662-b706-9052d4807dcd","683bf07d-1a26-40b1-9cff-5abdc1eed0ee","","null","<div style=""display: flex; justify-content: center; align-items: center;"">
                <img src=""images/causal/causal_series_13/causal_series_13_a.jpg"" style=""width: 300px; height: 300px;"" />
              </div>","null",""
"","","","","","html-keyboard-response","12","45907","0.0-12.0","95416C0F6E064D71AB90B8C65922E1B7","e732dc70-dd30-4662-b706-9052d4807dcd","683bf07d-1a26-40b1-9cff-5abdc1eed0ee","","null","<div style=""display: flex; justify-content: center; align-items: center;"">
                <img src=""images/causal/causal_series_13/causal_series_13_b.jpg"" style=""width: 300px; height: 300px;"" />
              </div>","null",""
"","","","","","html-keyboard-response","13","48914","0.0-13.0","95416C0F6E064D71AB90B8C65922E1B7","e732dc70-dd30-4662-b706-9052d4807dcd","683bf07d-1a26-40b1-9cff-5abdc1eed0ee","","null","<div style=""display: flex; justify-content: center; align-items: center;"">
                <img src=""images/causal/causal_series_13/causal_series_13_c.jpg"" style=""width: 300px; height: 300px;"" />
              </div>","null",""
"","","","","","html-button-response","14","50220","0.0-14.0","95416C0F6E064D71AB90B8C65922E1B7","e732dc70-dd30-4662-b706-9052d4807dcd","683bf07d-1a26-40b1-9cff-5abdc1eed0ee","","1304","
    <div style=""display: flex; justify-content: center; align-items: center;"">
      <img src=""images/red_deck_2.png"" style=""width: 300px; height: 300px; margin-right: 10px;"" />
      <img src=""images/blue_deck_1.png"" style=""width: 300px; height: 300px;"" />
    </div>","0","0"
"","","","","","html-keyboard-response","15","53232","0.0-15.0-0.0-0.0","95416C0F6E064D71AB90B8C65922E1B7","e732dc70-dd30-4662-b706-9052d4807dcd","683bf07d-1a26-40b1-9cff-5abdc1eed0ee","","null","<div style=""display: flex; justify-content: center; align-items: center;"">
                <img src=""images/causal/causal_series_13/causal_series_13_d.jpg"" style=""width: 300px; height: 300px;"" />
              </div>","null",""
"","","","","","html-keyboard-response","16","56239","0.0-16.0","95416C0F6E064D71AB90B8C65922E1B7","e732dc70-dd30-4662-b706-9052d4807dcd","683bf07d-1a26-40b1-9cff-5abdc1eed0ee","","null","<div style=""display: flex; justify-content: center; align-items: center;"">
                <img src=""images/other/blank.jpg"" style=""width: 300px; height: 300px;"" />
              </div>","null",""
"","","","","","html-keyboard-response","17","59244","0.0-17.0","95416C0F6E064D71AB90B8C65922E1B7","e732dc70-dd30-4662-b706-9052d4807dcd","683bf07d-1a26-40b1-9cff-5abdc1eed0ee","","null","<div style=""display: flex; justify-content: center; align-items: center;"">
                <img src=""images/causal/causal_series_11/causal_series_11_a.jpg"" style=""width: 300px; height: 300px;"" />
              </div>","null",""
"","","","","","html-keyboard-response","18","62258","0.0-18.0","95416C0F6E064D71AB90B8C65922E1B7","e732dc70-dd30-4662-b706-9052d4807dcd","683bf07d-1a26-40b1-9cff-5abdc1eed0ee","","null","<div style=""display: flex; justify-content: center; align-items: center;"">
                <img src=""images/causal/causal_series_11/causal_series_11_b.jpg"" style=""width: 300px; height: 300px;"" />
              </div>","null",""
"","","","","","html-keyboard-response","19","65274","0.0-19.0","95416C0F6E064D71AB90B8C65922E1B7","e732dc70-dd30-4662-b706-9052d4807dcd","683bf07d-1a26-40b1-9cff-5abdc1eed0ee","","null","<div style=""display: flex; justify-content: center; align-items: center;"">
                <img src=""images/causal/causal_series_11/causal_series_11_c.jpg"" style=""width: 300px; height: 300px;"" />
              </div>","null",""
"","","","","","html-button-response","20","66562","0.0-20.0","95416C0F6E064D71AB90B8C65922E1B7","e732dc70-dd30-4662-b706-9052d4807dcd","683bf07d-1a26-40b1-9cff-5abdc1eed0ee","","1286","
    <div style=""display: flex; justify-content: center; align-items: center;"">
      <img src=""images/red_deck_2.png"" style=""width: 300px; height: 300px; margin-right: 10px;"" />
      <img src=""images/blue_deck_1.png"" style=""width: 300px; height: 300px;"" />
    </div>","0","0"
"","","","","","html-keyboard-response","21","69565","0.0-21.0-0.0-0.0","95416C0F6E064D71AB90B8C65922E1B7","e732dc70-dd30-4662-b706-9052d4807dcd","683bf07d-1a26-40b1-9cff-5abdc1eed0ee","","null","<div style=""display: flex; justify-content: center; align-items: center;"">
                <img src=""images/causal/causal_series_11/causal_series_11_d.jpg"" style=""width: 300px; height: 300px;"" />
              </div>","null",""
"","","","","","html-keyboard-response","22","72571","0.0-22.0","95416C0F6E064D71AB90B8C65922E1B7","e732dc70-dd30-4662-b706-9052d4807dcd","683bf07d-1a26-40b1-9cff-5abdc1eed0ee","","null","<div style=""display: flex; justify-content: center; align-items: center;"">
                <img src=""images/other/blank.jpg"" style=""width: 300px; height: 300px;"" />
              </div>","null",""
"","","","","","html-keyboard-response","23","75572","0.0-23.0","95416C0F6E064D71AB90B8C65922E1B7","e732dc70-dd30-4662-b706-9052d4807dcd","683bf07d-1a26-40b1-9cff-5abdc1eed0ee","","null","<div style=""display: flex; justify-content: center; align-items: center;"">
                <img src=""images/causal/causal_series_6/causal_series_6_a.jpg"" style=""width: 300px; height: 300px;"" />
              </div>","null",""
"","","","","","html-keyboard-response","24","78577","0.0-24.0","95416C0F6E064D71AB90B8C65922E1B7","e732dc70-dd30-4662-b706-9052d4807dcd","683bf07d-1a26-40b1-9cff-5abdc1eed0ee","","null","<div style=""display: flex; justify-content: center; align-items: center;"">
                <img src=""images/causal/causal_series_6/causal_series_6_b.jpg"" style=""width: 300px; height: 300px;"" />
              </div>","null",""
"","","","","","html-keyboard-response","25","81584","0.0-25.0","95416C0F6E064D71AB90B8C65922E1B7","e732dc70-dd30-4662-b706-9052d4807dcd","683bf07d-1a26-40b1-9cff-5abdc1eed0ee","","null","<div style=""display: flex; justify-content: center; align-items: center;"">
                <img src=""images/causal/causal_series_6/causal_series_6_c.jpg"" style=""width: 300px; height: 300px;"" />
              </div>","null",""
"","","","","","html-button-response","26","83175","0.0-26.0","95416C0F6E064D71AB90B8C65922E1B7","e732dc70-dd30-4662-b706-9052d4807dcd","683bf07d-1a26-40b1-9cff-5abdc1eed0ee","","1589","
    <div style=""display: flex; justify-content: center; align-items: center;"">
      <img src=""images/red_deck_2.png"" style=""width: 300px; height: 300px; margin-right: 10px;"" />
      <img src=""images/blue_deck_1.png"" style=""width: 300px; height: 300px;"" />
    </div>","1","1"
"","","","","","html-keyboard-response","27","86188","0.0-27.0-1.0-0.0","95416C0F6E064D71AB90B8C65922E1B7","e732dc70-dd30-4662-b706-9052d4807dcd","683bf07d-1a26-40b1-9cff-5abdc1eed0ee","","null","<div style=""display: flex; justify-content: center; align-items: center;"">
                <img src=""images/semantic/semantic_series_5/semantic_series_5_d.jpg"" style=""width: 300px; height: 300px;"" />
              </div>","null",""
"","","","","","html-keyboard-response","28","89203","0.0-28.0","95416C0F6E064D71AB90B8C65922E1B7","e732dc70-dd30-4662-b706-9052d4807dcd","683bf07d-1a26-40b1-9cff-5abdc1eed0ee","","null","<div style=""display: flex; justify-content: center; align-items: center;"">
                <img src=""images/other/blank.jpg"" style=""width: 300px; height: 300px;"" />
              </div>","null",""
"","","","","","html-keyboard-response","29","92212","0.0-29.0","95416C0F6E064D71AB90B8C65922E1B7","e732dc70-dd30-4662-b706-9052d4807dcd","683bf07d-1a26-40b1-9cff-5abdc1eed0ee","","null","<div style=""display: flex; justify-content: center; align-items: center;"">
                <img src=""images/causal/causal_series_5/causal_series_5_a.jpg"" style=""width: 300px; height: 300px;"" />
              </div>","null",""
"","","","","","html-keyboard-response","30","95221","0.0-30.0","95416C0F6E064D71AB90B8C65922E1B7","e732dc70-dd30-4662-b706-9052d4807dcd","683bf07d-1a26-40b1-9cff-5abdc1eed0ee","","null","<div style=""display: flex; justify-content: center; align-items: center;"">
                <img src=""images/causal/causal_series_5/causal_series_5_b.jpg"" style=""width: 300px; height: 300px;"" />
              </div>","null",""
"","","","","","html-keyboard-response","31","98225","0.0-31.0","95416C0F6E064D71AB90B8C65922E1B7","e732dc70-dd30-4662-b706-9052d4807dcd","683bf07d-1a26-40b1-9cff-5abdc1eed0ee","","null","<div style=""display: flex; justify-content: center; align-items: center;"">
                <img src=""images/causal/causal_series_5/causal_series_5_c.jpg"" style=""width: 300px; height: 300px;"" />
              </div>","null",""
"","","","","","html-button-response","32","100096","0.0-32.0","95416C0F6E064D71AB90B8C65922E1B7","e732dc70-dd30-4662-b706-9052d4807dcd","683bf07d-1a26-40b1-9cff-5abdc1eed0ee","","1869","
    <div style=""display: flex; justify-content: center; align-items: center;"">
      <img src=""images/red_deck_2.png"" style=""width: 300px; height: 300px; margin-right: 10px;"" />
      <img src=""images/blue_deck_1.png"" style=""width: 300px; height: 300px;"" />
    </div>","0","0"
"","","","","","html-keyboard-response","33","103101","0.0-33.0-0.0-0.0","95416C0F6E064D71AB90B8C65922E1B7","e732dc70-dd30-4662-b706-9052d4807dcd","683bf07d-1a26-40b1-9cff-5abdc1eed0ee","","null","<div style=""display: flex; justify-content: center; align-items: center;"">
                <img src=""images/causal/causal_series_5/causal_series_5_d.jpg"" style=""width: 300px; height: 300px;"" />
              </div>","null",""
"","","","","","html-keyboard-response","34","106114","0.0-34.0","95416C0F6E064D71AB90B8C65922E1B7","e732dc70-dd30-4662-b706-9052d4807dcd","683bf07d-1a26-40b1-9cff-5abdc1eed0ee","","null","<div style=""display: flex; justify-content: center; align-items: center;"">
                <img src=""images/other/blank.jpg"" style=""width: 300px; height: 300px;"" />
              </div>","null",""
"","","","","","html-keyboard-response","35","109118","0.0-35.0","95416C0F6E064D71AB90B8C65922E1B7","e732dc70-dd30-4662-b706-9052d4807dcd","683bf07d-1a26-40b1-9cff-5abdc1eed0ee","","null","<div style=""display: flex; justify-content: center; align-items: center;"">
                <img src=""images/causal/causal_series_12/causal_series_12_a.jpg"" style=""width: 300px; height: 300px;"" />
              </div>","null",""
"","","","","","html-keyboard-response","36","112131","0.0-36.0","95416C0F6E064D71AB90B8C65922E1B7","e732dc70-dd30-4662-b706-9052d4807dcd","683bf07d-1a26-40b1-9cff-5abdc1eed0ee","","null","<div style=""display: flex; justify-content: center; align-items: center;"">
                <img src=""images/causal/causal_series_12/causal_series_12_b.jpg"" style=""width: 300px; height: 300px;"" />
              </div>","null",""
"","","","","","html-keyboard-response","37","115139","0.0-37.0","95416C0F6E064D71AB90B8C65922E1B7","e732dc70-dd30-4662-b706-9052d4807dcd","683bf07d-1a26-40b1-9cff-5abdc1eed0ee","","null","<div style=""display: flex; justify-content: center; align-items: center;"">
                <img src=""images/causal/causal_series_12/causal_series_12_c.jpg"" style=""width: 300px; height: 300px;"" />
              </div>","null",""
"","","","","","html-button-response","38","116167","0.0-38.0","95416C0F6E064D71AB90B8C65922E1B7","e732dc70-dd30-4662-b706-9052d4807dcd","683bf07d-1a26-40b1-9cff-5abdc1eed0ee","","1025","
    <div style=""display: flex; justify-content: center; align-items: center;"">
      <img src=""images/red_deck_2.png"" style=""width: 300px; height: 300px; margin-right: 10px;"" />
      <img src=""images/blue_deck_1.png"" style=""width: 300px; height: 300px;"" />
    </div>","0","0"
"","","","","","html-keyboard-response","39","119174","0.0-39.0-0.0-0.0","95416C0F6E064D71AB90B8C65922E1B7","e732dc70-dd30-4662-b706-9052d4807dcd","683bf07d-1a26-40b1-9cff-5abdc1eed0ee","","null","<div style=""display: flex; justify-content: center; align-items: center;"">
                <img src=""images/causal/causal_series_12/causal_series_12_d.jpg"" style=""width: 300px; height: 300px;"" />
              </div>","null",""
"","","","","","html-keyboard-response","40","122187","0.0-40.0","95416C0F6E064D71AB90B8C65922E1B7","e732dc70-dd30-4662-b706-9052d4807dcd","683bf07d-1a26-40b1-9cff-5abdc1eed0ee","","null","<div style=""display: flex; justify-content: center; align-items: center;"">
                <img src=""images/other/blank.jpg"" style=""width: 300px; height: 300px;"" />
              </div>","null",""
"","","","","","html-keyboard-response","41","125197","0.0-41.0","95416C0F6E064D71AB90B8C65922E1B7","e732dc70-dd30-4662-b706-9052d4807dcd","683bf07d-1a26-40b1-9cff-5abdc1eed0ee","","null","<div style=""display: flex; justify-content: center; align-items: center;"">
                <img src=""images/causal/causal_series_3/causal_series_3_a.jpg"" style=""width: 300px; height: 300px;"" />
              </div>","null",""
"","","","","","html-keyboard-response","42","128205","0.0-42.0","95416C0F6E064D71AB90B8C65922E1B7","e732dc70-dd30-4662-b706-9052d4807dcd","683bf07d-1a26-40b1-9cff-5abdc1eed0ee","","null","<div style=""display: flex; justify-content: center; align-items: center;"">
                <img src=""images/causal/causal_series_3/causal_series_3_b.jpg"" style=""width: 300px; height: 300px;"" />
              </div>","null",""
"","","","","","html-keyboard-response","43","131208","0.0-43.0","95416C0F6E064D71AB90B8C65922E1B7","e732dc70-dd30-4662-b706-9052d4807dcd","683bf07d-1a26-40b1-9cff-5abdc1eed0ee","","null","<div style=""display: flex; justify-content: center; align-items: center;"">
                <img src=""images/causal/causal_series_3/causal_series_3_c.jpg"" style=""width: 300px; height: 300px;"" />
              </div>","null",""
"","","","","","html-button-response","44","133333","0.0-44.0","95416C0F6E064D71AB90B8C65922E1B7","e732dc70-dd30-4662-b706-9052d4807dcd","683bf07d-1a26-40b1-9cff-5abdc1eed0ee","","2122","
    <div style=""display: flex; justify-content: center; align-items: center;"">
      <img src=""images/red_deck_2.png"" style=""width: 300px; height: 300px; margin-right: 10px;"" />
      <img src=""images/blue_deck_1.png"" style=""width: 300px; height: 300px;"" />
    </div>","1","1"
"","","","","","html-keyboard-response","45","136339","0.0-45.0-1.0-0.0","95416C0F6E064D71AB90B8C65922E1B7","e732dc70-dd30-4662-b706-9052d4807dcd","683bf07d-1a26-40b1-9cff-5abdc1eed0ee","","null","<div style=""display: flex; justify-content: center; align-items: center;"">
                <img src=""images/semantic/semantic_series_2/semantic_series_2_d.jpg"" style=""width: 300px; height: 300px;"" />
              </div>","null",""
"","","","","","html-keyboard-response","46","139355","0.0-46.0","95416C0F6E064D71AB90B8C65922E1B7","e732dc70-dd30-4662-b706-9052d4807dcd","683bf07d-1a26-40b1-9cff-5abdc1eed0ee","","null","<div style=""display: flex; justify-content: center; align-items: center;"">
                <img src=""images/other/blank.jpg"" style=""width: 300px; height: 300px;"" />
              </div>","null",""
"","","","","","html-keyboard-response","47","142358","0.0-47.0","95416C0F6E064D71AB90B8C65922E1B7","e732dc70-dd30-4662-b706-9052d4807dcd","683bf07d-1a26-40b1-9cff-5abdc1eed0ee","","null","<div style=""display: flex; justify-content: center; align-items: center;"">
                <img src=""images/causal/causal_series_8/causal_series_8_a.jpg"" style=""width: 300px; height: 300px;"" />
              </div>","null",""
"","","","","","html-keyboard-response","48","145360","0.0-48.0","95416C0F6E064D71AB90B8C65922E1B7","e732dc70-dd30-4662-b706-9052d4807dcd","683bf07d-1a26-40b1-9cff-5abdc1eed0ee","","null","<div style=""display: flex; justify-content: center; align-items: center;"">
                <img src=""images/causal/causal_series_8/causal_series_8_b.jpg"" style=""width: 300px; height: 300px;"" />
              </div>","null",""
"","","","","","html-keyboard-response","49","148369","0.0-49.0","95416C0F6E064D71AB90B8C65922E1B7","e732dc70-dd30-4662-b706-9052d4807dcd","683bf07d-1a26-40b1-9cff-5abdc1eed0ee","","null","<div style=""display: flex; justify-content: center; align-items: center;"">
                <img src=""images/causal/causal_series_8/causal_series_8_c.jpg"" style=""width: 300px; height: 300px;"" />
              </div>","null",""
"","","","","","html-button-response","50","149950","0.0-50.0","95416C0F6E064D71AB90B8C65922E1B7","e732dc70-dd30-4662-b706-9052d4807dcd","683bf07d-1a26-40b1-9cff-5abdc1eed0ee","","1579","
    <div style=""display: flex; justify-content: center; align-items: center;"">
      <img src=""images/red_deck_2.png"" style=""width: 300px; height: 300px; margin-right: 10px;"" />
      <img src=""images/blue_deck_1.png"" style=""width: 300px; height: 300px;"" />
    </div>","1","1"
"","","","","","html-keyboard-response","51","152960","0.0-51.0-1.0-0.0","95416C0F6E064D71AB90B8C65922E1B7","e732dc70-dd30-4662-b706-9052d4807dcd","683bf07d-1a26-40b1-9cff-5abdc1eed0ee","","null","<div style=""display: flex; justify-content: center; align-items: center;"">
                <img src=""images/semantic/semantic_series_7/semantic_series_7_d.jpg"" style=""width: 300px; height: 300px;"" />
              </div>","null",""
"","","","","","html-keyboard-response","52","155964","0.0-52.0","95416C0F6E064D71AB90B8C65922E1B7","e732dc70-dd30-4662-b706-9052d4807dcd","683bf07d-1a26-40b1-9cff-5abdc1eed0ee","","null","<div style=""display: flex; justify-content: center; align-items: center;"">
                <img src=""images/other/blank.jpg"" style=""width: 300px; height: 300px;"" />
              </div>","null",""
"","","","","","html-keyboard-response","53","158978","0.0-53.0","95416C0F6E064D71AB90B8C65922E1B7","e732dc70-dd30-4662-b706-9052d4807dcd","683bf07d-1a26-40b1-9cff-5abdc1eed0ee","","null","<div style=""display: flex; justify-content: center; align-items: center;"">
                <img src=""images/causal/causal_series_15/causal_series_15_a.jpg"" style=""width: 300px; height: 300px;"" />
              </div>","null",""
"","","","","","html-keyboard-response","54","161990","0.0-54.0","95416C0F6E064D71AB90B8C65922E1B7","e732dc70-dd30-4662-b706-9052d4807dcd","683bf07d-1a26-40b1-9cff-5abdc1eed0ee","","null","<div style=""display: flex; justify-content: center; align-items: center;"">
                <img src=""images/causal/causal_series_15/causal_series_15_b.jpg"" style=""width: 300px; height: 300px;"" />
              </div>","null",""
"","","","","","html-keyboard-response","55","165004","0.0-55.0","95416C0F6E064D71AB90B8C65922E1B7","e732dc70-dd30-4662-b706-9052d4807dcd","683bf07d-1a26-40b1-9cff-5abdc1eed0ee","","null","<div style=""display: flex; justify-content: center; align-items: center;"">
                <img src=""images/causal/causal_series_15/causal_series_15_c.jpg"" style=""width: 300px; height: 300px;"" />
              </div>","null",""
"","","","","","html-button-response","56","167023","0.0-56.0","95416C0F6E064D71AB90B8C65922E1B7","e732dc70-dd30-4662-b706-9052d4807dcd","683bf07d-1a26-40b1-9cff-5abdc1eed0ee","","2017","
    <div style=""display: flex; justify-content: center; align-items: center;"">
      <img src=""images/red_deck_2.png"" style=""width: 300px; height: 300px; margin-right: 10px;"" />
      <img src=""images/blue_deck_1.png"" style=""width: 300px; height: 300px;"" />
    </div>","0","0"
"","","","","","html-keyboard-response","57","170032","0.0-57.0-0.0-0.0","95416C0F6E064D71AB90B8C65922E1B7","e732dc70-dd30-4662-b706-9052d4807dcd","683bf07d-1a26-40b1-9cff-5abdc1eed0ee","","null","<div style=""display: flex; justify-content: center; align-items: center;"">
                <img src=""images/causal/causal_series_15/causal_series_15_d.jpg"" style=""width: 300px; height: 300px;"" />
              </div>","null",""
"","","","","","html-keyboard-response","58","173041","0.0-58.0","95416C0F6E064D71AB90B8C65922E1B7","e732dc70-dd30-4662-b706-9052d4807dcd","683bf07d-1a26-40b1-9cff-5abdc1eed0ee","","null","<div style=""display: flex; justify-content: center; align-items: center;"">
                <img src=""images/other/blank.jpg"" style=""width: 300px; height: 300px;"" />
              </div>","null",""
"","","","","","html-keyboard-response","59","176050","0.0-59.0","95416C0F6E064D71AB90B8C65922E1B7","e732dc70-dd30-4662-b706-9052d4807dcd","683bf07d-1a26-40b1-9cff-5abdc1eed0ee","","null","<div style=""display: flex; justify-content: center; align-items: center;"">
                <img src=""images/causal/causal_series_2/causal_series_2_a.jpg"" style=""width: 300px; height: 300px;"" />
              </div>","null",""
"","","","","","html-keyboard-response","60","179056","0.0-60.0","95416C0F6E064D71AB90B8C65922E1B7","e732dc70-dd30-4662-b706-9052d4807dcd","683bf07d-1a26-40b1-9cff-5abdc1eed0ee","","null","<div style=""display: flex; justify-content: center; align-items: center;"">
                <img src=""images/causal/causal_series_2/causal_series_2_b.jpg"" style=""width: 300px; height: 300px;"" />
              </div>","null",""
"","","","","","html-keyboard-response","61","182061","0.0-61.0","95416C0F6E064D71AB90B8C65922E1B7","e732dc70-dd30-4662-b706-9052d4807dcd","683bf07d-1a26-40b1-9cff-5abdc1eed0ee","","null","<div style=""display: flex; justify-content: center; align-items: center;"">
                <img src=""images/causal/causal_series_2/causal_series_2_c.jpg"" style=""width: 300px; height: 300px;"" />
              </div>","null",""
"","","","","","html-button-response","62","185033","0.0-62.0","95416C0F6E064D71AB90B8C65922E1B7","e732dc70-dd30-4662-b706-9052d4807dcd","683bf07d-1a26-40b1-9cff-5abdc1eed0ee","","2970","
    <div style=""display: flex; justify-content: center; align-items: center;"">
      <img src=""images/red_deck_2.png"" style=""width: 300px; height: 300px; margin-right: 10px;"" />
      <img src=""images/blue_deck_1.png"" style=""width: 300px; height: 300px;"" />
    </div>","0","0"
"","","","","","html-keyboard-response","63","188040","0.0-63.0-0.0-0.0","95416C0F6E064D71AB90B8C65922E1B7","e732dc70-dd30-4662-b706-9052d4807dcd","683bf07d-1a26-40b1-9cff-5abdc1eed0ee","","null","<div style=""display: flex; justify-content: center; align-items: center;"">
                <img src=""images/causal/causal_series_2/causal_series_2_d.jpg"" style=""width: 300px; height: 300px;"" />
              </div>","null",""
"","","","","","html-keyboard-response","64","191054","0.0-64.0","95416C0F6E064D71AB90B8C65922E1B7","e732dc70-dd30-4662-b706-9052d4807dcd","683bf07d-1a26-40b1-9cff-5abdc1eed0ee","","null","<div style=""display: flex; justify-content: center; align-items: center;"">
                <img src=""images/other/blank.jpg"" style=""width: 300px; height: 300px;"" />
              </div>","null",""
"","","","","","html-keyboard-response","65","194063","0.0-65.0","95416C0F6E064D71AB90B8C65922E1B7","e732dc70-dd30-4662-b706-9052d4807dcd","683bf07d-1a26-40b1-9cff-5abdc1eed0ee","","null","<div style=""display: flex; justify-content: center; align-items: center;"">
                <img src=""images/causal/causal_series_17/causal_series_17_a.jpg"" style=""width: 300px; height: 300px;"" />
              </div>","null",""
"","","","","","html-keyboard-response","66","197073","0.0-66.0","95416C0F6E064D71AB90B8C65922E1B7","e732dc70-dd30-4662-b706-9052d4807dcd","683bf07d-1a26-40b1-9cff-5abdc1eed0ee","","null","<div style=""display: flex; justify-content: center; align-items: center;"">
                <img src=""images/causal/causal_series_17/causal_series_17_b.jpg"" style=""width: 300px; height: 300px;"" />
              </div>","null",""
"","","","","","html-keyboard-response","67","200082","0.0-67.0","95416C0F6E064D71AB90B8C65922E1B7","e732dc70-dd30-4662-b706-9052d4807dcd","683bf07d-1a26-40b1-9cff-5abdc1eed0ee","","null","<div style=""display: flex; justify-content: center; align-items: center;"">
                <img src=""images/causal/causal_series_17/causal_series_17_c.jpg"" style=""width: 300px; height: 300px;"" />
              </div>","null",""
"","","","","","html-button-response","68","203693","0.0-68.0","95416C0F6E064D71AB90B8C65922E1B7","e732dc70-dd30-4662-b706-9052d4807dcd","683bf07d-1a26-40b1-9cff-5abdc1eed0ee","","3609","
    <div style=""display: flex; justify-content: center; align-items: center;"">
      <img src=""images/red_deck_2.png"" style=""width: 300px; height: 300px; margin-right: 10px;"" />
      <img src=""images/blue_deck_1.png"" style=""width: 300px; height: 300px;"" />
    </div>","1","1"
"","","","","","html-keyboard-response","69","206711","0.0-69.0-1.0-0.0","95416C0F6E064D71AB90B8C65922E1B7","e732dc70-dd30-4662-b706-9052d4807dcd","683bf07d-1a26-40b1-9cff-5abdc1eed0ee","","null","<div style=""display: flex; justify-content: center; align-items: center;"">
                <img src=""images/semantic/semantic_series_16/semantic_series_16_d.jpg"" style=""width: 300px; height: 300px;"" />
              </div>","null",""
"","","","","","html-keyboard-response","70","209725","0.0-70.0","95416C0F6E064D71AB90B8C65922E1B7","e732dc70-dd30-4662-b706-9052d4807dcd","683bf07d-1a26-40b1-9cff-5abdc1eed0ee","","null","<div style=""display: flex; justify-content: center; align-items: center;"">
                <img src=""images/other/blank.jpg"" style=""width: 300px; height: 300px;"" />
              </div>","null",""
"","","","","","html-keyboard-response","71","212729","0.0-71.0","95416C0F6E064D71AB90B8C65922E1B7","e732dc70-dd30-4662-b706-9052d4807dcd","683bf07d-1a26-40b1-9cff-5abdc1eed0ee","","null","<div style=""display: flex; justify-content: center; align-items: center;"">
                <img src=""images/causal/causal_series_4/causal_series_4_a.jpg"" style=""width: 300px; height: 300px;"" />
              </div>","null",""
"","","","","","html-keyboard-response","72","215736","0.0-72.0","95416C0F6E064D71AB90B8C65922E1B7","e732dc70-dd30-4662-b706-9052d4807dcd","683bf07d-1a26-40b1-9cff-5abdc1eed0ee","","null","<div style=""display: flex; justify-content: center; align-items: center;"">
                <img src=""images/causal/causal_series_4/causal_series_4_b.jpg"" style=""width: 300px; height: 300px;"" />
              </div>","null",""
"","","","","","html-keyboard-response","73","218748","0.0-73.0","95416C0F6E064D71AB90B8C65922E1B7","e732dc70-dd30-4662-b706-9052d4807dcd","683bf07d-1a26-40b1-9cff-5abdc1eed0ee","","null","<div style=""display: flex; justify-content: center; align-items: center;"">
                <img src=""images/causal/causal_series_4/causal_series_4_c.jpg"" style=""width: 300px; height: 300px;"" />
              </div>","null",""
"","","","","","html-button-response","74","221330","0.0-74.0","95416C0F6E064D71AB90B8C65922E1B7","e732dc70-dd30-4662-b706-9052d4807dcd","683bf07d-1a26-40b1-9cff-5abdc1eed0ee","","2580","
    <div style=""display: flex; justify-content: center; align-items: center;"">
      <img src=""images/red_deck_2.png"" style=""width: 300px; height: 300px; margin-right: 10px;"" />
      <img src=""images/blue_deck_1.png"" style=""width: 300px; height: 300px;"" />
    </div>","1","1"
"","","","","","html-keyboard-response","75","224339","0.0-75.0-1.0-0.0","95416C0F6E064D71AB90B8C65922E1B7","e732dc70-dd30-4662-b706-9052d4807dcd","683bf07d-1a26-40b1-9cff-5abdc1eed0ee","","null","<div style=""display: flex; justify-content: center; align-items: center;"">
                <img src=""images/semantic/semantic_series_3/semantic_series_3_d.jpg"" style=""width: 300px; height: 300px;"" />
              </div>","null",""
"","","","","","html-keyboard-response","76","227354","0.0-76.0","95416C0F6E064D71AB90B8C65922E1B7","e732dc70-dd30-4662-b706-9052d4807dcd","683bf07d-1a26-40b1-9cff-5abdc1eed0ee","","null","<div style=""display: flex; justify-content: center; align-items: center;"">
                <img src=""images/other/blank.jpg"" style=""width: 300px; height: 300px;"" />
              </div>","null",""
"","","","","","html-keyboard-response","77","230357","0.0-77.0","95416C0F6E064D71AB90B8C65922E1B7","e732dc70-dd30-4662-b706-9052d4807dcd","683bf07d-1a26-40b1-9cff-5abdc1eed0ee","","null","<div style=""display: flex; justify-content: center; align-items: center;"">
                <img src=""images/causal/causal_series_16/causal_series_16_a.jpg"" style=""width: 300px; height: 300px;"" />
              </div>","null",""
"","","","","","html-keyboard-response","78","233368","0.0-78.0","95416C0F6E064D71AB90B8C65922E1B7","e732dc70-dd30-4662-b706-9052d4807dcd","683bf07d-1a26-40b1-9cff-5abdc1eed0ee","","null","<div style=""display: flex; justify-content: center; align-items: center;"">
                <img src=""images/causal/causal_series_16/causal_series_16_b.jpg"" style=""width: 300px; height: 300px;"" />
              </div>","null",""
"","","","","","html-keyboard-response","79","236381","0.0-79.0","95416C0F6E064D71AB90B8C65922E1B7","e732dc70-dd30-4662-b706-9052d4807dcd","683bf07d-1a26-40b1-9cff-5abdc1eed0ee","","null","<div style=""display: flex; justify-content: center; align-items: center;"">
                <img src=""images/causal/causal_series_16/causal_series_16_c.jpg"" style=""width: 300px; height: 300px;"" />
              </div>","null",""
"","","","","","html-button-response","80","237764","0.0-80.0","95416C0F6E064D71AB90B8C65922E1B7","e732dc70-dd30-4662-b706-9052d4807dcd","683bf07d-1a26-40b1-9cff-5abdc1eed0ee","","1381","
    <div style=""display: flex; justify-content: center; align-items: center;"">
      <img src=""images/red_deck_2.png"" style=""width: 300px; height: 300px; margin-right: 10px;"" />
      <img src=""images/blue_deck_1.png"" style=""width: 300px; height: 300px;"" />
    </div>","0","0"
"","","","","","html-keyboard-response","81","240769","0.0-81.0-0.0-0.0","95416C0F6E064D71AB90B8C65922E1B7","e732dc70-dd30-4662-b706-9052d4807dcd","683bf07d-1a26-40b1-9cff-5abdc1eed0ee","","null","<div style=""display: flex; justify-content: center; align-items: center;"">
                <img src=""images/causal/causal_series_16/causal_series_16_d.jpg"" style=""width: 300px; height: 300px;"" />
              </div>","null",""
"","","","","","html-keyboard-response","82","243779","0.0-82.0","95416C0F6E064D71AB90B8C65922E1B7","e732dc70-dd30-4662-b706-9052d4807dcd","683bf07d-1a26-40b1-9cff-5abdc1eed0ee","","null","<div style=""display: flex; justify-content: center; align-items: center;"">
                <img src=""images/other/blank.jpg"" style=""width: 300px; height: 300px;"" />
              </div>","null",""
"","","","","","html-keyboard-response","83","246792","0.0-83.0","95416C0F6E064D71AB90B8C65922E1B7","e732dc70-dd30-4662-b706-9052d4807dcd","683bf07d-1a26-40b1-9cff-5abdc1eed0ee","","null","<div style=""display: flex; justify-content: center; align-items: center;"">
                <img src=""images/causal/causal_series_14/causal_series_14_a.jpg"" style=""width: 300px; height: 300px;"" />
              </div>","null",""
"","","","","","html-keyboard-response","84","249800","0.0-84.0","95416C0F6E064D71AB90B8C65922E1B7","e732dc70-dd30-4662-b706-9052d4807dcd","683bf07d-1a26-40b1-9cff-5abdc1eed0ee","","null","<div style=""display: flex; justify-content: center; align-items: center;"">
                <img src=""images/causal/causal_series_14/causal_series_14_b.jpg"" style=""width: 300px; height: 300px;"" />
              </div>","null",""
"","","","","","html-keyboard-response","85","252809","0.0-85.0","95416C0F6E064D71AB90B8C65922E1B7","e732dc70-dd30-4662-b706-9052d4807dcd","683bf07d-1a26-40b1-9cff-5abdc1eed0ee","","null","<div style=""display: flex; justify-content: center; align-items: center;"">
                <img src=""images/causal/causal_series_14/causal_series_14_c.jpg"" style=""width: 300px; height: 300px;"" />
              </div>","null",""
"","","","","","html-button-response","86","253865","0.0-86.0","95416C0F6E064D71AB90B8C65922E1B7","e732dc70-dd30-4662-b706-9052d4807dcd","683bf07d-1a26-40b1-9cff-5abdc1eed0ee","","1054","
    <div style=""display: flex; justify-content: center; align-items: center;"">
      <img src=""images/red_deck_2.png"" style=""width: 300px; height: 300px; margin-right: 10px;"" />
      <img src=""images/blue_deck_1.png"" style=""width: 300px; height: 300px;"" />
    </div>","0","0"
"","","","","","html-keyboard-response","87","256869","0.0-87.0-0.0-0.0","95416C0F6E064D71AB90B8C65922E1B7","e732dc70-dd30-4662-b706-9052d4807dcd","683bf07d-1a26-40b1-9cff-5abdc1eed0ee","","null","<div style=""display: flex; justify-content: center; align-items: center;"">
                <img src=""images/causal/causal_series_14/causal_series_14_d.jpg"" style=""width: 300px; height: 300px;"" />
              </div>","null",""
"","","","","","html-keyboard-response","88","259883","0.0-88.0","95416C0F6E064D71AB90B8C65922E1B7","e732dc70-dd30-4662-b706-9052d4807dcd","683bf07d-1a26-40b1-9cff-5abdc1eed0ee","","null","<div style=""display: flex; justify-content: center; align-items: center;"">
                <img src=""images/other/blank.jpg"" style=""width: 300px; height: 300px;"" />
              </div>","null",""
"","","","","","html-keyboard-response","89","262885","0.0-89.0","95416C0F6E064D71AB90B8C65922E1B7","e732dc70-dd30-4662-b706-9052d4807dcd","683bf07d-1a26-40b1-9cff-5abdc1eed0ee","","null","<div style=""display: flex; justify-content: center; align-items: center;"">
                <img src=""images/causal/causal_series_1/causal_series_1_a.jpg"" style=""width: 300px; height: 300px;"" />
              </div>","null",""
"","","","","","html-keyboard-response","90","265898","0.0-90.0","95416C0F6E064D71AB90B8C65922E1B7","e732dc70-dd30-4662-b706-9052d4807dcd","683bf07d-1a26-40b1-9cff-5abdc1eed0ee","","null","<div style=""display: flex; justify-content: center; align-items: center;"">
                <img src=""images/causal/causal_series_1/causal_series_1_b.jpg"" style=""width: 300px; height: 300px;"" />
              </div>","null",""
"","","","","","html-keyboard-response","91","268914","0.0-91.0","95416C0F6E064D71AB90B8C65922E1B7","e732dc70-dd30-4662-b706-9052d4807dcd","683bf07d-1a26-40b1-9cff-5abdc1eed0ee","","null","<div style=""display: flex; justify-content: center; align-items: center;"">
                <img src=""images/causal/causal_series_1/causal_series_1_c.jpg"" style=""width: 300px; height: 300px;"" />
              </div>","null",""
"","","","","","html-button-response","92","271048","0.0-92.0","95416C0F6E064D71AB90B8C65922E1B7","e732dc70-dd30-4662-b706-9052d4807dcd","683bf07d-1a26-40b1-9cff-5abdc1eed0ee","","2131","
    <div style=""display: flex; justify-content: center; align-items: center;"">
      <img src=""images/red_deck_2.png"" style=""width: 300px; height: 300px; margin-right: 10px;"" />
      <img src=""images/blue_deck_1.png"" style=""width: 300px; height: 300px;"" />
    </div>","0","0"
"","","","","","html-keyboard-response","93","274051","0.0-93.0-0.0-0.0","95416C0F6E064D71AB90B8C65922E1B7","e732dc70-dd30-4662-b706-9052d4807dcd","683bf07d-1a26-40b1-9cff-5abdc1eed0ee","","null","<div style=""display: flex; justify-content: center; align-items: center;"">
                <img src=""images/causal/causal_series_1/causal_series_1_d.jpg"" style=""width: 300px; height: 300px;"" />
              </div>","null",""
"","","","","","html-keyboard-response","94","277060","0.0-94.0","95416C0F6E064D71AB90B8C65922E1B7","e732dc70-dd30-4662-b706-9052d4807dcd","683bf07d-1a26-40b1-9cff-5abdc1eed0ee","","null","<div style=""display: flex; justify-content: center; align-items: center;"">
                <img src=""images/other/blank.jpg"" style=""width: 300px; height: 300px;"" />
              </div>","null",""
"","","","","","html-keyboard-response","95","280074","0.0-95.0","95416C0F6E064D71AB90B8C65922E1B7","e732dc70-dd30-4662-b706-9052d4807dcd","683bf07d-1a26-40b1-9cff-5abdc1eed0ee","","null","<div style=""display: flex; justify-content: center; align-items: center;"">
                <img src=""images/causal/causal_series_18/causal_series_18_a.jpg"" style=""width: 300px; height: 300px;"" />
              </div>","null",""
"","","","","","html-keyboard-response","96","283089","0.0-96.0","95416C0F6E064D71AB90B8C65922E1B7","e732dc70-dd30-4662-b706-9052d4807dcd","683bf07d-1a26-40b1-9cff-5abdc1eed0ee","","null","<div style=""display: flex; justify-content: center; align-items: center;"">
                <img src=""images/causal/causal_series_18/causal_series_18_b.jpg"" style=""width: 300px; height: 300px;"" />
              </div>","null",""
"","","","","","html-keyboard-response","97","286098","0.0-97.0","95416C0F6E064D71AB90B8C65922E1B7","e732dc70-dd30-4662-b706-9052d4807dcd","683bf07d-1a26-40b1-9cff-5abdc1eed0ee","","null","<div style=""display: flex; justify-content: center; align-items: center;"">
                <img src=""images/causal/causal_series_18/causal_series_18_c.jpg"" style=""width: 300px; height: 300px;"" />
              </div>","null",""
"","","","","","html-button-response","98","287631","0.0-98.0","95416C0F6E064D71AB90B8C65922E1B7","e732dc70-dd30-4662-b706-9052d4807dcd","683bf07d-1a26-40b1-9cff-5abdc1eed0ee","","1531","
    <div style=""display: flex; justify-content: center; align-items: center;"">
      <img src=""images/red_deck_2.png"" style=""width: 300px; height: 300px; margin-right: 10px;"" />
      <img src=""images/blue_deck_1.png"" style=""width: 300px; height: 300px;"" />
    </div>","1","1"
"","","","","","html-keyboard-response","99","290638","0.0-99.0-1.0-0.0","95416C0F6E064D71AB90B8C65922E1B7","e732dc70-dd30-4662-b706-9052d4807dcd","683bf07d-1a26-40b1-9cff-5abdc1eed0ee","","null","<div style=""display: flex; justify-content: center; align-items: center;"">
                <img src=""images/semantic/semantic_series_17/semantic_series_17_d.jpg"" style=""width: 300px; height: 300px;"" />
              </div>","null",""
"","","","","","html-keyboard-response","100","293641","0.0-100.0","95416C0F6E064D71AB90B8C65922E1B7","e732dc70-dd30-4662-b706-9052d4807dcd","683bf07d-1a26-40b1-9cff-5abdc1eed0ee","","null","<div style=""display: flex; justify-content: center; align-items: center;"">
                <img src=""images/other/blank.jpg"" style=""width: 300px; height: 300px;"" />
              </div>","null",""
"","","","","","html-keyboard-response","101","296644","0.0-101.0","95416C0F6E064D71AB90B8C65922E1B7","e732dc70-dd30-4662-b706-9052d4807dcd","683bf07d-1a26-40b1-9cff-5abdc1eed0ee","","null","<div style=""display: flex; justify-content: center; align-items: center;"">
                <img src=""images/causal/causal_series_7/causal_series_7_a.jpg"" style=""width: 300px; height: 300px;"" />
              </div>","null",""
"","","","","","html-keyboard-response","102","299649","0.0-102.0","95416C0F6E064D71AB90B8C65922E1B7","e732dc70-dd30-4662-b706-9052d4807dcd","683bf07d-1a26-40b1-9cff-5abdc1eed0ee","","null","<div style=""display: flex; justify-content: center; align-items: center;"">
                <img src=""images/causal/causal_series_7/causal_series_7_b.jpg"" style=""width: 300px; height: 300px;"" />
              </div>","null",""
"","","","","","html-keyboard-response","103","302658","0.0-103.0","95416C0F6E064D71AB90B8C65922E1B7","e732dc70-dd30-4662-b706-9052d4807dcd","683bf07d-1a26-40b1-9cff-5abdc1eed0ee","","null","<div style=""display: flex; justify-content: center; align-items: center;"">
                <img src=""images/causal/causal_series_7/causal_series_7_c.jpg"" style=""width: 300px; height: 300px;"" />
              </div>","null",""
"","","","","","html-button-response","104","305222","0.0-104.0","95416C0F6E064D71AB90B8C65922E1B7","e732dc70-dd30-4662-b706-9052d4807dcd","683bf07d-1a26-40b1-9cff-5abdc1eed0ee","","2562","
    <div style=""display: flex; justify-content: center; align-items: center;"">
      <img src=""images/red_deck_2.png"" style=""width: 300px; height: 300px; margin-right: 10px;"" />
      <img src=""images/blue_deck_1.png"" style=""width: 300px; height: 300px;"" />
    </div>","0","0"
"","","","","","html-keyboard-response","105","308228","0.0-105.0-0.0-0.0","95416C0F6E064D71AB90B8C65922E1B7","e732dc70-dd30-4662-b706-9052d4807dcd","683bf07d-1a26-40b1-9cff-5abdc1eed0ee","","null","<div style=""display: flex; justify-content: center; align-items: center;"">
                <img src=""images/causal/causal_series_7/causal_series_7_d.jpg"" style=""width: 300px; height: 300px;"" />
              </div>","null",""
"","","","","","html-keyboard-response","106","311244","0.0-106.0","95416C0F6E064D71AB90B8C65922E1B7","e732dc70-dd30-4662-b706-9052d4807dcd","683bf07d-1a26-40b1-9cff-5abdc1eed0ee","","null","<div style=""display: flex; justify-content: center; align-items: center;"">
                <img src=""images/other/blank.jpg"" style=""width: 300px; height: 300px;"" />
              </div>","null",""
"","","","","","html-keyboard-response","107","314258","0.0-107.0","95416C0F6E064D71AB90B8C65922E1B7","e732dc70-dd30-4662-b706-9052d4807dcd","683bf07d-1a26-40b1-9cff-5abdc1eed0ee","","null","<div style=""display: flex; justify-content: center; align-items: center;"">
                <img src=""images/causal/causal_series_10/causal_series_10_a.jpg"" style=""width: 300px; height: 300px;"" />
              </div>","null",""
"","","","","","html-keyboard-response","108","317271","0.0-108.0","95416C0F6E064D71AB90B8C65922E1B7","e732dc70-dd30-4662-b706-9052d4807dcd","683bf07d-1a26-40b1-9cff-5abdc1eed0ee","","null","<div style=""display: flex; justify-content: center; align-items: center;"">
                <img src=""images/causal/causal_series_10/causal_series_10_b.jpg"" style=""width: 300px; height: 300px;"" />
              </div>","null",""
"","","","","","html-keyboard-response","109","320278","0.0-109.0","95416C0F6E064D71AB90B8C65922E1B7","e732dc70-dd30-4662-b706-9052d4807dcd","683bf07d-1a26-40b1-9cff-5abdc1eed0ee","","null","<div style=""display: flex; justify-content: center; align-items: center;"">
                <img src=""images/causal/causal_series_10/causal_series_10_c.jpg"" style=""width: 300px; height: 300px;"" />
              </div>","null",""
"","","","","","html-button-response","110","322806","0.0-110.0","95416C0F6E064D71AB90B8C65922E1B7","e732dc70-dd30-4662-b706-9052d4807dcd","683bf07d-1a26-40b1-9cff-5abdc1eed0ee","","2525","
    <div style=""display: flex; justify-content: center; align-items: center;"">
      <img src=""images/red_deck_2.png"" style=""width: 300px; height: 300px; margin-right: 10px;"" />
      <img src=""images/blue_deck_1.png"" style=""width: 300px; height: 300px;"" />
    </div>","1","1"
"","","","","","html-keyboard-response","111","325817","0.0-111.0-1.0-0.0","95416C0F6E064D71AB90B8C65922E1B7","e732dc70-dd30-4662-b706-9052d4807dcd","683bf07d-1a26-40b1-9cff-5abdc1eed0ee","","null","<div style=""display: flex; justify-content: center; align-items: center;"">
                <img src=""images/semantic/semantic_series_9/semantic_series_9_d.jpg"" style=""width: 300px; height: 300px;"" />
              </div>","null",""
"","","","","","html-keyboard-response","112","328828","0.0-112.0","95416C0F6E064D71AB90B8C65922E1B7","e732dc70-dd30-4662-b706-9052d4807dcd","683bf07d-1a26-40b1-9cff-5abdc1eed0ee","","null","<div style=""display: flex; justify-content: center; align-items: center;"">
                <img src=""images/other/blank.jpg"" style=""width: 300px; height: 300px;"" />
              </div>","null",""
"","","","","","survey-text","113","342385","0.0-113.0","95416C0F6E064D71AB90B8C65922E1B7","e732dc70-dd30-4662-b706-9052d4807dcd","683bf07d-1a26-40b1-9cff-5abdc1eed0ee","","13537","","{""Q0"":""They contain different cards and are different colors""}",""
"","","","","","survey-text","114","360071","0.0-114.0","95416C0F6E064D71AB90B8C65922E1B7","e732dc70-dd30-4662-b706-9052d4807dcd","683bf07d-1a26-40b1-9cff-5abdc1eed0ee","","17681","","{""Q0"":""I didn't feel any difference between the 2. Neither were interesting to me.""}",""
"","","","","","html-button-response","115","375663","0.0-115.0","95416C0F6E064D71AB90B8C65922E1B7","e732dc70-dd30-4662-b706-9052d4807dcd","683bf07d-1a26-40b1-9cff-5abdc1eed0ee","","15590","Which color deck does the fourth image continue the story from the series?","1",""
"","","","","","html-button-response","116","378860","0.0-116.0","95416C0F6E064D71AB90B8C65922E1B7","e732dc70-dd30-4662-b706-9052d4807dcd","683bf07d-1a26-40b1-9cff-5abdc1eed0ee","","3194","Which color deck does the fourth image not follow the story from the series?","0",""
"","","","","","survey-text","117","384528","0.0-117.0","95416C0F6E064D71AB90B8C65922E1B7","e732dc70-dd30-4662-b706-9052d4807dcd","683bf07d-1a26-40b1-9cff-5abdc1eed0ee","","5655","","{""Q0"":""FEMALE"",""Q1"":""35""}",""
"","","","","","instructions","118","388826","0.0-118.0","95416C0F6E064D71AB90B8C65922E1B7","e732dc70-dd30-4662-b706-9052d4807dcd","683bf07d-1a26-40b1-9cff-5abdc1eed0ee","[{""page_index"":0,""viewing_time"":4297}]","4297","","",""
