"success","timeout","failed_images","failed_audio","failed_video","trial_type","trial_index","time_elapsed","internal_node_id","subject_id","study_id","session_id","view_history","rt","stimulus","response","series","repetition","phase","choice","question_order"
"true","false","[]","[]","[]","preload","0","835","0.0-0.0","E8454A56D9AC4EA0ABBBFB0320FBD547","0199d5f7-c89b-7def-866a-dfccdbd18905","0199d5ef-c7d4-7cab-a194-b2c3afbaf8e8","","","","","","","","",""
"","","","","","instructions","1","41142","0.0-1.0","E8454A56D9AC4EA0ABBBFB0320FBD547","0199d5f7-c89b-7def-866a-dfccdbd18905","0199d5ef-c7d4-7cab-a194-b2c3afbaf8e8","[{""page_index"":0,""viewing_time"":40305}]","40306","","","","","","",""
"","","","","","instructions","2","44881","0.0-2.0","E8454A56D9AC4EA0ABBBFB0320FBD547","0199d5f7-c89b-7def-866a-dfccdbd18905","0199d5ef-c7d4-7cab-a194-b2c3afbaf8e8","[{""page_index"":0,""viewing_time"":3735}]","3737","","","","","","",""
"true","","","","","fullscreen","3","47830","0.0-3.0","E8454A56D9AC4EA0ABBBFB0320FBD547","0199d5f7-c89b-7def-866a-dfccdbd18905","0199d5ef-c7d4-7cab-a194-b2c3afbaf8e8","","1932","","","","","","",""
"","","","","","instructions","4","75946","0.0-4.0","E8454A56D9AC4EA0ABBBFB0320FBD547","0199d5f7-c89b-7def-866a-dfccdbd18905","0199d5ef-c7d4-7cab-a194-b2c3afbaf8e8","[{""page_index"":0,""viewing_time"":28113}]","28115","","","","","","",""
"","","","","","html-keyboard-response","5","81954","0.0-5.0","E8454A56D9AC4EA0ABBBFB0320FBD547","0199d5f7-c89b-7def-866a-dfccdbd18905","0199d5ef-c7d4-7cab-a194-b2c3afbaf8e8","","null","<div style=""display: flex; justify-content: center; align-items: center;"">
                     <img src=""images/causal/causal_series_7/causal_series_7_a.png"" style=""width: 300px; height: 300px;"" />
                   </div>","null","7","1","A","",""
"","","","","","html-keyboard-response","6","87964","0.0-6.0","E8454A56D9AC4EA0ABBBFB0320FBD547","0199d5f7-c89b-7def-866a-dfccdbd18905","0199d5ef-c7d4-7cab-a194-b2c3afbaf8e8","","null","<div style=""display: flex; justify-content: center; align-items: center;"">
                     <img src=""images/causal/causal_series_7/causal_series_7_b.png"" style=""width: 300px; height: 300px;"" />
                   </div>","null","7","1","B","",""
"","","","","","html-keyboard-response","7","93968","0.0-7.0","E8454A56D9AC4EA0ABBBFB0320FBD547","0199d5f7-c89b-7def-866a-dfccdbd18905","0199d5ef-c7d4-7cab-a194-b2c3afbaf8e8","","null","<div style=""display: flex; justify-content: center; align-items: center;"">
                     <img src=""images/causal/causal_series_7/causal_series_7_c.png"" style=""width: 300px; height: 300px;"" />
                   </div>","null","7","1","C","",""
"","","","","","html-button-response","8","99321","0.0-8.0","E8454A56D9AC4EA0ABBBFB0320FBD547","0199d5f7-c89b-7def-866a-dfccdbd18905","0199d5ef-c7d4-7cab-a194-b2c3afbaf8e8","","5350","
        <div style=""display: flex; justify-content: center; align-items: center;"">
          <img src=""images/red_deck_2.png"" style=""width: 300px; height: 300px; margin-right: 10px;"" />
          <img src=""images/blue_deck_1.png"" style=""width: 300px; height: 300px;"" />
        </div>","0","7","1","choice","0",""
"","","","","","html-keyboard-response","9","105331","0.0-9.0-0.0-0.0","E8454A56D9AC4EA0ABBBFB0320FBD547","0199d5f7-c89b-7def-866a-dfccdbd18905","0199d5ef-c7d4-7cab-a194-b2c3afbaf8e8","","null","<div style=""display: flex; justify-content: center; align-items: center;"">
                     <img src=""images/causal/causal_series_7/causal_series_7_d.png"" style=""width: 300px; height: 300px;"" />
                   </div>","null","7","1","D","",""
"","","","","","html-keyboard-response","10","111338","0.0-9.0-0.0-1.0","E8454A56D9AC4EA0ABBBFB0320FBD547","0199d5f7-c89b-7def-866a-dfccdbd18905","0199d5ef-c7d4-7cab-a194-b2c3afbaf8e8","","null","<div style=""display: flex; justify-content: center; align-items: center;"">
                     <img src=""images/causal/causal_series_7/causal_series_7_e.png"" style=""width: 300px; height: 300px;"" />
                   </div>","null","7","1","E","",""
"","","","","","html-keyboard-response","11","117343","0.0-9.0-0.0-2.0","E8454A56D9AC4EA0ABBBFB0320FBD547","0199d5f7-c89b-7def-866a-dfccdbd18905","0199d5ef-c7d4-7cab-a194-b2c3afbaf8e8","","null","<div style=""display: flex; justify-content: center; align-items: center;"">
                     <img src=""images/causal/causal_series_7/causal_series_7_f.png"" style=""width: 300px; height: 300px;"" />
                   </div>","null","7","1","F","",""
"","","","","","survey-likert","12","126421","0.0-10.0","E8454A56D9AC4EA0ABBBFB0320FBD547","0199d5f7-c89b-7def-866a-dfccdbd18905","0199d5ef-c7d4-7cab-a194-b2c3afbaf8e8","","9059","","{""Q0"":4}","7","1","surprise_rating","","[0]"
"","","","","","survey-likert","13","128971","0.0-11.0","E8454A56D9AC4EA0ABBBFB0320FBD547","0199d5f7-c89b-7def-866a-dfccdbd18905","0199d5ef-c7d4-7cab-a194-b2c3afbaf8e8","","2547","","{""Q0"":4}","7","1","enjoyment_rating","","[0]"
"","","","","","html-keyboard-response","14","134984","0.0-12.0","E8454A56D9AC4EA0ABBBFB0320FBD547","0199d5f7-c89b-7def-866a-dfccdbd18905","0199d5ef-c7d4-7cab-a194-b2c3afbaf8e8","","null","<div style=""display: flex; justify-content: center; align-items: center;"">
                     <img src=""images/other/blank.png"" style=""width: 300px; height: 300px;"" />
                   </div>","null","0","0","blank","",""
"","","","","","html-keyboard-response","15","141000","0.0-13.0","E8454A56D9AC4EA0ABBBFB0320FBD547","0199d5f7-c89b-7def-866a-dfccdbd18905","0199d5ef-c7d4-7cab-a194-b2c3afbaf8e8","","null","<div style=""display: flex; justify-content: center; align-items: center;"">
                     <img src=""images/causal/causal_series_5/causal_series_5_a.png"" style=""width: 300px; height: 300px;"" />
                   </div>","null","5","2","A","",""
"","","","","","html-keyboard-response","16","147010","0.0-14.0","E8454A56D9AC4EA0ABBBFB0320FBD547","0199d5f7-c89b-7def-866a-dfccdbd18905","0199d5ef-c7d4-7cab-a194-b2c3afbaf8e8","","null","<div style=""display: flex; justify-content: center; align-items: center;"">
                     <img src=""images/causal/causal_series_5/causal_series_5_b.png"" style=""width: 300px; height: 300px;"" />
                   </div>","null","5","2","B","",""
"","","","","","html-keyboard-response","17","153023","0.0-15.0","E8454A56D9AC4EA0ABBBFB0320FBD547","0199d5f7-c89b-7def-866a-dfccdbd18905","0199d5ef-c7d4-7cab-a194-b2c3afbaf8e8","","null","<div style=""display: flex; justify-content: center; align-items: center;"">
                     <img src=""images/causal/causal_series_5/causal_series_5_c.png"" style=""width: 300px; height: 300px;"" />
                   </div>","null","5","2","C","",""
"","","","","","html-button-response","18","154474","0.0-16.0","E8454A56D9AC4EA0ABBBFB0320FBD547","0199d5f7-c89b-7def-866a-dfccdbd18905","0199d5ef-c7d4-7cab-a194-b2c3afbaf8e8","","1448","
        <div style=""display: flex; justify-content: center; align-items: center;"">
          <img src=""images/red_deck_2.png"" style=""width: 300px; height: 300px; margin-right: 10px;"" />
          <img src=""images/blue_deck_1.png"" style=""width: 300px; height: 300px;"" />
        </div>","0","5","2","choice","0",""
"","","","","","html-keyboard-response","19","160479","0.0-17.0-0.0-0.0","E8454A56D9AC4EA0ABBBFB0320FBD547","0199d5f7-c89b-7def-866a-dfccdbd18905","0199d5ef-c7d4-7cab-a194-b2c3afbaf8e8","","null","<div style=""display: flex; justify-content: center; align-items: center;"">
                     <img src=""images/causal/causal_series_5/causal_series_5_d.png"" style=""width: 300px; height: 300px;"" />
                   </div>","null","5","2","D","",""
"","","","","","html-keyboard-response","20","166496","0.0-17.0-0.0-1.0","E8454A56D9AC4EA0ABBBFB0320FBD547","0199d5f7-c89b-7def-866a-dfccdbd18905","0199d5ef-c7d4-7cab-a194-b2c3afbaf8e8","","null","<div style=""display: flex; justify-content: center; align-items: center;"">
                     <img src=""images/causal/causal_series_5/causal_series_5_e.png"" style=""width: 300px; height: 300px;"" />
                   </div>","null","5","2","E","",""
"","","","","","html-keyboard-response","21","172503","0.0-17.0-0.0-2.0","E8454A56D9AC4EA0ABBBFB0320FBD547","0199d5f7-c89b-7def-866a-dfccdbd18905","0199d5ef-c7d4-7cab-a194-b2c3afbaf8e8","","null","<div style=""display: flex; justify-content: center; align-items: center;"">
                     <img src=""images/causal/causal_series_5/causal_series_5_f.png"" style=""width: 300px; height: 300px;"" />
                   </div>","null","5","2","F","",""
"","","","","","survey-likert","22","176907","0.0-18.0","E8454A56D9AC4EA0ABBBFB0320FBD547","0199d5f7-c89b-7def-866a-dfccdbd18905","0199d5ef-c7d4-7cab-a194-b2c3afbaf8e8","","4401","","{""Q0"":3}","5","2","surprise_rating","","[0]"
"","","","","","survey-likert","23","179298","0.0-19.0","E8454A56D9AC4EA0ABBBFB0320FBD547","0199d5f7-c89b-7def-866a-dfccdbd18905","0199d5ef-c7d4-7cab-a194-b2c3afbaf8e8","","2388","","{""Q0"":4}","5","2","enjoyment_rating","","[0]"
"","","","","","html-keyboard-response","24","185311","0.0-20.0","E8454A56D9AC4EA0ABBBFB0320FBD547","0199d5f7-c89b-7def-866a-dfccdbd18905","0199d5ef-c7d4-7cab-a194-b2c3afbaf8e8","","null","<div style=""display: flex; justify-content: center; align-items: center;"">
                     <img src=""images/other/blank.png"" style=""width: 300px; height: 300px;"" />
                   </div>","null","0","0","blank","",""
"","","","","","html-keyboard-response","25","191328","0.0-21.0","E8454A56D9AC4EA0ABBBFB0320FBD547","0199d5f7-c89b-7def-866a-dfccdbd18905","0199d5ef-c7d4-7cab-a194-b2c3afbaf8e8","","null","<div style=""display: flex; justify-content: center; align-items: center;"">
                     <img src=""images/causal/causal_series_6/causal_series_6_a.png"" style=""width: 300px; height: 300px;"" />
                   </div>","null","6","1","A","",""
"","","","","","html-keyboard-response","26","197339","0.0-22.0","E8454A56D9AC4EA0ABBBFB0320FBD547","0199d5f7-c89b-7def-866a-dfccdbd18905","0199d5ef-c7d4-7cab-a194-b2c3afbaf8e8","","null","<div style=""display: flex; justify-content: center; align-items: center;"">
                     <img src=""images/causal/causal_series_6/causal_series_6_b.png"" style=""width: 300px; height: 300px;"" />
                   </div>","null","6","1","B","",""
"","","","","","html-keyboard-response","27","203350","0.0-23.0","E8454A56D9AC4EA0ABBBFB0320FBD547","0199d5f7-c89b-7def-866a-dfccdbd18905","0199d5ef-c7d4-7cab-a194-b2c3afbaf8e8","","null","<div style=""display: flex; justify-content: center; align-items: center;"">
                     <img src=""images/causal/causal_series_6/causal_series_6_c.png"" style=""width: 300px; height: 300px;"" />
                   </div>","null","6","1","C","",""
"","","","","","html-button-response","28","204690","0.0-24.0","E8454A56D9AC4EA0ABBBFB0320FBD547","0199d5f7-c89b-7def-866a-dfccdbd18905","0199d5ef-c7d4-7cab-a194-b2c3afbaf8e8","","1336","
        <div style=""display: flex; justify-content: center; align-items: center;"">
          <img src=""images/red_deck_2.png"" style=""width: 300px; height: 300px; margin-right: 10px;"" />
          <img src=""images/blue_deck_1.png"" style=""width: 300px; height: 300px;"" />
        </div>","1","6","1","choice","1",""
"","","","","","html-keyboard-response","29","210709","0.0-25.0-1.0-0.0","E8454A56D9AC4EA0ABBBFB0320FBD547","0199d5f7-c89b-7def-866a-dfccdbd18905","0199d5ef-c7d4-7cab-a194-b2c3afbaf8e8","","null","<div style=""display: flex; justify-content: center; align-items: center;"">
                     <img src=""images/semantic/semantic_series_6/semantic_series_6_d.png"" style=""width: 300px; height: 300px;"" />
                   </div>","null","6","1","D","",""
"","","","","","html-keyboard-response","30","216719","0.0-25.0-1.0-1.0","E8454A56D9AC4EA0ABBBFB0320FBD547","0199d5f7-c89b-7def-866a-dfccdbd18905","0199d5ef-c7d4-7cab-a194-b2c3afbaf8e8","","null","<div style=""display: flex; justify-content: center; align-items: center;"">
                     <img src=""images/semantic/semantic_series_6/semantic_series_6_e.png"" style=""width: 300px; height: 300px;"" />
                   </div>","null","6","1","E","",""
"","","","","","html-keyboard-response","31","222737","0.0-25.0-1.0-2.0","E8454A56D9AC4EA0ABBBFB0320FBD547","0199d5f7-c89b-7def-866a-dfccdbd18905","0199d5ef-c7d4-7cab-a194-b2c3afbaf8e8","","null","<div style=""display: flex; justify-content: center; align-items: center;"">
                     <img src=""images/semantic/semantic_series_6/semantic_series_6_f.png"" style=""width: 300px; height: 300px;"" />
                   </div>","null","6","1","F","",""
"","","","","","survey-likert","32","225595","0.0-26.0","E8454A56D9AC4EA0ABBBFB0320FBD547","0199d5f7-c89b-7def-866a-dfccdbd18905","0199d5ef-c7d4-7cab-a194-b2c3afbaf8e8","","2855","","{""Q0"":0}","6","1","surprise_rating","","[0]"
"","","","","","survey-likert","33","228803","0.0-27.0","E8454A56D9AC4EA0ABBBFB0320FBD547","0199d5f7-c89b-7def-866a-dfccdbd18905","0199d5ef-c7d4-7cab-a194-b2c3afbaf8e8","","3205","","{""Q0"":1}","6","1","enjoyment_rating","","[0]"
"","","","","","html-keyboard-response","34","234813","0.0-28.0","E8454A56D9AC4EA0ABBBFB0320FBD547","0199d5f7-c89b-7def-866a-dfccdbd18905","0199d5ef-c7d4-7cab-a194-b2c3afbaf8e8","","null","<div style=""display: flex; justify-content: center; align-items: center;"">
                     <img src=""images/other/blank.png"" style=""width: 300px; height: 300px;"" />
                   </div>","null","0","0","blank","",""
"","","","","","html-keyboard-response","35","240816","0.0-29.0","E8454A56D9AC4EA0ABBBFB0320FBD547","0199d5f7-c89b-7def-866a-dfccdbd18905","0199d5ef-c7d4-7cab-a194-b2c3afbaf8e8","","null","<div style=""display: flex; justify-content: center; align-items: center;"">
                     <img src=""images/causal/causal_series_4/causal_series_4_a.png"" style=""width: 300px; height: 300px;"" />
                   </div>","null","4","2","A","",""
"","","","","","html-keyboard-response","36","246828","0.0-30.0","E8454A56D9AC4EA0ABBBFB0320FBD547","0199d5f7-c89b-7def-866a-dfccdbd18905","0199d5ef-c7d4-7cab-a194-b2c3afbaf8e8","","null","<div style=""display: flex; justify-content: center; align-items: center;"">
                     <img src=""images/causal/causal_series_4/causal_series_4_b.png"" style=""width: 300px; height: 300px;"" />
                   </div>","null","4","2","B","",""
"","","","","","html-keyboard-response","37","252830","0.0-31.0","E8454A56D9AC4EA0ABBBFB0320FBD547","0199d5f7-c89b-7def-866a-dfccdbd18905","0199d5ef-c7d4-7cab-a194-b2c3afbaf8e8","","null","<div style=""display: flex; justify-content: center; align-items: center;"">
                     <img src=""images/causal/causal_series_4/causal_series_4_c.png"" style=""width: 300px; height: 300px;"" />
                   </div>","null","4","2","C","",""
"","","","","","html-button-response","38","254202","0.0-32.0","E8454A56D9AC4EA0ABBBFB0320FBD547","0199d5f7-c89b-7def-866a-dfccdbd18905","0199d5ef-c7d4-7cab-a194-b2c3afbaf8e8","","1368","
        <div style=""display: flex; justify-content: center; align-items: center;"">
          <img src=""images/red_deck_2.png"" style=""width: 300px; height: 300px; margin-right: 10px;"" />
          <img src=""images/blue_deck_1.png"" style=""width: 300px; height: 300px;"" />
        </div>","0","4","2","choice","0",""
"","","","","","html-keyboard-response","39","260215","0.0-33.0-0.0-0.0","E8454A56D9AC4EA0ABBBFB0320FBD547","0199d5f7-c89b-7def-866a-dfccdbd18905","0199d5ef-c7d4-7cab-a194-b2c3afbaf8e8","","null","<div style=""display: flex; justify-content: center; align-items: center;"">
                     <img src=""images/causal/causal_series_4/causal_series_4_d.png"" style=""width: 300px; height: 300px;"" />
                   </div>","null","4","2","D","",""
"","","","","","html-keyboard-response","40","266218","0.0-33.0-0.0-1.0","E8454A56D9AC4EA0ABBBFB0320FBD547","0199d5f7-c89b-7def-866a-dfccdbd18905","0199d5ef-c7d4-7cab-a194-b2c3afbaf8e8","","null","<div style=""display: flex; justify-content: center; align-items: center;"">
                     <img src=""images/causal/causal_series_4/causal_series_4_e.png"" style=""width: 300px; height: 300px;"" />
                   </div>","null","4","2","E","",""
"","","","","","html-keyboard-response","41","272229","0.0-33.0-0.0-2.0","E8454A56D9AC4EA0ABBBFB0320FBD547","0199d5f7-c89b-7def-866a-dfccdbd18905","0199d5ef-c7d4-7cab-a194-b2c3afbaf8e8","","null","<div style=""display: flex; justify-content: center; align-items: center;"">
                     <img src=""images/causal/causal_series_4/causal_series_4_f.png"" style=""width: 300px; height: 300px;"" />
                   </div>","null","4","2","F","",""
"","","","","","survey-likert","42","274684","0.0-34.0","E8454A56D9AC4EA0ABBBFB0320FBD547","0199d5f7-c89b-7def-866a-dfccdbd18905","0199d5ef-c7d4-7cab-a194-b2c3afbaf8e8","","2452","","{""Q0"":4}","4","2","surprise_rating","","[0]"
"","","","","","survey-likert","43","277067","0.0-35.0","E8454A56D9AC4EA0ABBBFB0320FBD547","0199d5f7-c89b-7def-866a-dfccdbd18905","0199d5ef-c7d4-7cab-a194-b2c3afbaf8e8","","2379","","{""Q0"":4}","4","2","enjoyment_rating","","[0]"
"","","","","","html-keyboard-response","44","283082","0.0-36.0","E8454A56D9AC4EA0ABBBFB0320FBD547","0199d5f7-c89b-7def-866a-dfccdbd18905","0199d5ef-c7d4-7cab-a194-b2c3afbaf8e8","","null","<div style=""display: flex; justify-content: center; align-items: center;"">
                     <img src=""images/other/blank.png"" style=""width: 300px; height: 300px;"" />
                   </div>","null","0","0","blank","",""
"","","","","","html-keyboard-response","45","289096","0.0-37.0","E8454A56D9AC4EA0ABBBFB0320FBD547","0199d5f7-c89b-7def-866a-dfccdbd18905","0199d5ef-c7d4-7cab-a194-b2c3afbaf8e8","","null","<div style=""display: flex; justify-content: center; align-items: center;"">
                     <img src=""images/causal/causal_series_9/causal_series_9_a.png"" style=""width: 300px; height: 300px;"" />
                   </div>","null","9","1","A","",""
"","","","","","html-keyboard-response","46","295104","0.0-38.0","E8454A56D9AC4EA0ABBBFB0320FBD547","0199d5f7-c89b-7def-866a-dfccdbd18905","0199d5ef-c7d4-7cab-a194-b2c3afbaf8e8","","null","<div style=""display: flex; justify-content: center; align-items: center;"">
                     <img src=""images/causal/causal_series_9/causal_series_9_b.png"" style=""width: 300px; height: 300px;"" />
                   </div>","null","9","1","B","",""
"","","","","","html-keyboard-response","47","301111","0.0-39.0","E8454A56D9AC4EA0ABBBFB0320FBD547","0199d5f7-c89b-7def-866a-dfccdbd18905","0199d5ef-c7d4-7cab-a194-b2c3afbaf8e8","","null","<div style=""display: flex; justify-content: center; align-items: center;"">
                     <img src=""images/causal/causal_series_9/causal_series_9_c.png"" style=""width: 300px; height: 300px;"" />
                   </div>","null","9","1","C","",""
"","","","","","html-button-response","48","302050","0.0-40.0","E8454A56D9AC4EA0ABBBFB0320FBD547","0199d5f7-c89b-7def-866a-dfccdbd18905","0199d5ef-c7d4-7cab-a194-b2c3afbaf8e8","","935","
        <div style=""display: flex; justify-content: center; align-items: center;"">
          <img src=""images/red_deck_2.png"" style=""width: 300px; height: 300px; margin-right: 10px;"" />
          <img src=""images/blue_deck_1.png"" style=""width: 300px; height: 300px;"" />
        </div>","0","9","1","choice","0",""
"","","","","","html-keyboard-response","49","308054","0.0-41.0-0.0-0.0","E8454A56D9AC4EA0ABBBFB0320FBD547","0199d5f7-c89b-7def-866a-dfccdbd18905","0199d5ef-c7d4-7cab-a194-b2c3afbaf8e8","","null","<div style=""display: flex; justify-content: center; align-items: center;"">
                     <img src=""images/causal/causal_series_9/causal_series_9_d.png"" style=""width: 300px; height: 300px;"" />
                   </div>","null","9","1","D","",""
"","","","","","html-keyboard-response","50","314072","0.0-41.0-0.0-1.0","E8454A56D9AC4EA0ABBBFB0320FBD547","0199d5f7-c89b-7def-866a-dfccdbd18905","0199d5ef-c7d4-7cab-a194-b2c3afbaf8e8","","null","<div style=""display: flex; justify-content: center; align-items: center;"">
                     <img src=""images/causal/causal_series_9/causal_series_9_e.png"" style=""width: 300px; height: 300px;"" />
                   </div>","null","9","1","E","",""
"","","","","","html-keyboard-response","51","320084","0.0-41.0-0.0-2.0","E8454A56D9AC4EA0ABBBFB0320FBD547","0199d5f7-c89b-7def-866a-dfccdbd18905","0199d5ef-c7d4-7cab-a194-b2c3afbaf8e8","","null","<div style=""display: flex; justify-content: center; align-items: center;"">
                     <img src=""images/causal/causal_series_9/causal_series_9_f.png"" style=""width: 300px; height: 300px;"" />
                   </div>","null","9","1","F","",""
"","","","","","survey-likert","52","321882","0.0-42.0","E8454A56D9AC4EA0ABBBFB0320FBD547","0199d5f7-c89b-7def-866a-dfccdbd18905","0199d5ef-c7d4-7cab-a194-b2c3afbaf8e8","","1796","","{""Q0"":4}","9","1","surprise_rating","","[0]"
"","","","","","survey-likert","53","324137","0.0-43.0","E8454A56D9AC4EA0ABBBFB0320FBD547","0199d5f7-c89b-7def-866a-dfccdbd18905","0199d5ef-c7d4-7cab-a194-b2c3afbaf8e8","","2252","","{""Q0"":4}","9","1","enjoyment_rating","","[0]"
"","","","","","html-keyboard-response","54","330150","0.0-44.0","E8454A56D9AC4EA0ABBBFB0320FBD547","0199d5f7-c89b-7def-866a-dfccdbd18905","0199d5ef-c7d4-7cab-a194-b2c3afbaf8e8","","null","<div style=""display: flex; justify-content: center; align-items: center;"">
                     <img src=""images/other/blank.png"" style=""width: 300px; height: 300px;"" />
                   </div>","null","0","0","blank","",""
"","","","","","html-keyboard-response","55","336168","0.0-45.0","E8454A56D9AC4EA0ABBBFB0320FBD547","0199d5f7-c89b-7def-866a-dfccdbd18905","0199d5ef-c7d4-7cab-a194-b2c3afbaf8e8","","null","<div style=""display: flex; justify-content: center; align-items: center;"">
                     <img src=""images/causal/causal_series_8/causal_series_8_a.png"" style=""width: 300px; height: 300px;"" />
                   </div>","null","8","1","A","",""
"","","","","","html-keyboard-response","56","342173","0.0-46.0","E8454A56D9AC4EA0ABBBFB0320FBD547","0199d5f7-c89b-7def-866a-dfccdbd18905","0199d5ef-c7d4-7cab-a194-b2c3afbaf8e8","","null","<div style=""display: flex; justify-content: center; align-items: center;"">
                     <img src=""images/causal/causal_series_8/causal_series_8_b.png"" style=""width: 300px; height: 300px;"" />
                   </div>","null","8","1","B","",""
"","","","","","html-keyboard-response","57","348184","0.0-47.0","E8454A56D9AC4EA0ABBBFB0320FBD547","0199d5f7-c89b-7def-866a-dfccdbd18905","0199d5ef-c7d4-7cab-a194-b2c3afbaf8e8","","null","<div style=""display: flex; justify-content: center; align-items: center;"">
                     <img src=""images/causal/causal_series_8/causal_series_8_c.png"" style=""width: 300px; height: 300px;"" />
                   </div>","null","8","1","C","",""
"","","","","","html-button-response","58","349498","0.0-48.0","E8454A56D9AC4EA0ABBBFB0320FBD547","0199d5f7-c89b-7def-866a-dfccdbd18905","0199d5ef-c7d4-7cab-a194-b2c3afbaf8e8","","1311","
        <div style=""display: flex; justify-content: center; align-items: center;"">
          <img src=""images/red_deck_2.png"" style=""width: 300px; height: 300px; margin-right: 10px;"" />
          <img src=""images/blue_deck_1.png"" style=""width: 300px; height: 300px;"" />
        </div>","0","8","1","choice","0",""
"","","","","","html-keyboard-response","59","355512","0.0-49.0-0.0-0.0","E8454A56D9AC4EA0ABBBFB0320FBD547","0199d5f7-c89b-7def-866a-dfccdbd18905","0199d5ef-c7d4-7cab-a194-b2c3afbaf8e8","","null","<div style=""display: flex; justify-content: center; align-items: center;"">
                     <img src=""images/causal/causal_series_8/causal_series_8_d.png"" style=""width: 300px; height: 300px;"" />
                   </div>","null","8","1","D","",""
"","","","","","html-keyboard-response","60","361530","0.0-49.0-0.0-1.0","E8454A56D9AC4EA0ABBBFB0320FBD547","0199d5f7-c89b-7def-866a-dfccdbd18905","0199d5ef-c7d4-7cab-a194-b2c3afbaf8e8","","null","<div style=""display: flex; justify-content: center; align-items: center;"">
                     <img src=""images/causal/causal_series_8/causal_series_8_e.png"" style=""width: 300px; height: 300px;"" />
                   </div>","null","8","1","E","",""
"","","","","","html-keyboard-response","61","367537","0.0-49.0-0.0-2.0","E8454A56D9AC4EA0ABBBFB0320FBD547","0199d5f7-c89b-7def-866a-dfccdbd18905","0199d5ef-c7d4-7cab-a194-b2c3afbaf8e8","","null","<div style=""display: flex; justify-content: center; align-items: center;"">
                     <img src=""images/causal/causal_series_8/causal_series_8_f.png"" style=""width: 300px; height: 300px;"" />
                   </div>","null","8","1","F","",""
"","","","","","survey-likert","62","369418","0.0-50.0","E8454A56D9AC4EA0ABBBFB0320FBD547","0199d5f7-c89b-7def-866a-dfccdbd18905","0199d5ef-c7d4-7cab-a194-b2c3afbaf8e8","","1879","","{""Q0"":3}","8","1","surprise_rating","","[0]"
"","","","","","survey-likert","63","370988","0.0-51.0","E8454A56D9AC4EA0ABBBFB0320FBD547","0199d5f7-c89b-7def-866a-dfccdbd18905","0199d5ef-c7d4-7cab-a194-b2c3afbaf8e8","","1566","","{""Q0"":4}","8","1","enjoyment_rating","","[0]"
"","","","","","html-keyboard-response","64","377000","0.0-52.0","E8454A56D9AC4EA0ABBBFB0320FBD547","0199d5f7-c89b-7def-866a-dfccdbd18905","0199d5ef-c7d4-7cab-a194-b2c3afbaf8e8","","null","<div style=""display: flex; justify-content: center; align-items: center;"">
                     <img src=""images/other/blank.png"" style=""width: 300px; height: 300px;"" />
                   </div>","null","0","0","blank","",""
"","","","","","html-keyboard-response","65","383005","0.0-53.0","E8454A56D9AC4EA0ABBBFB0320FBD547","0199d5f7-c89b-7def-866a-dfccdbd18905","0199d5ef-c7d4-7cab-a194-b2c3afbaf8e8","","null","<div style=""display: flex; justify-content: center; align-items: center;"">
                     <img src=""images/causal/causal_series_4/causal_series_4_a.png"" style=""width: 300px; height: 300px;"" />
                   </div>","null","4","1","A","",""
"","","","","","html-keyboard-response","66","389018","0.0-54.0","E8454A56D9AC4EA0ABBBFB0320FBD547","0199d5f7-c89b-7def-866a-dfccdbd18905","0199d5ef-c7d4-7cab-a194-b2c3afbaf8e8","","null","<div style=""display: flex; justify-content: center; align-items: center;"">
                     <img src=""images/causal/causal_series_4/causal_series_4_b.png"" style=""width: 300px; height: 300px;"" />
                   </div>","null","4","1","B","",""
"","","","","","html-keyboard-response","67","395027","0.0-55.0","E8454A56D9AC4EA0ABBBFB0320FBD547","0199d5f7-c89b-7def-866a-dfccdbd18905","0199d5ef-c7d4-7cab-a194-b2c3afbaf8e8","","null","<div style=""display: flex; justify-content: center; align-items: center;"">
                     <img src=""images/causal/causal_series_4/causal_series_4_c.png"" style=""width: 300px; height: 300px;"" />
                   </div>","null","4","1","C","",""
"","","","","","html-button-response","68","396282","0.0-56.0","E8454A56D9AC4EA0ABBBFB0320FBD547","0199d5f7-c89b-7def-866a-dfccdbd18905","0199d5ef-c7d4-7cab-a194-b2c3afbaf8e8","","1250","
        <div style=""display: flex; justify-content: center; align-items: center;"">
          <img src=""images/red_deck_2.png"" style=""width: 300px; height: 300px; margin-right: 10px;"" />
          <img src=""images/blue_deck_1.png"" style=""width: 300px; height: 300px;"" />
        </div>","0","4","1","choice","0",""
"","","","","","html-keyboard-response","69","402296","0.0-57.0-0.0-0.0","E8454A56D9AC4EA0ABBBFB0320FBD547","0199d5f7-c89b-7def-866a-dfccdbd18905","0199d5ef-c7d4-7cab-a194-b2c3afbaf8e8","","null","<div style=""display: flex; justify-content: center; align-items: center;"">
                     <img src=""images/causal/causal_series_4/causal_series_4_d.png"" style=""width: 300px; height: 300px;"" />
                   </div>","null","4","1","D","",""
"","","","","","html-keyboard-response","70","408302","0.0-57.0-0.0-1.0","E8454A56D9AC4EA0ABBBFB0320FBD547","0199d5f7-c89b-7def-866a-dfccdbd18905","0199d5ef-c7d4-7cab-a194-b2c3afbaf8e8","","null","<div style=""display: flex; justify-content: center; align-items: center;"">
                     <img src=""images/causal/causal_series_4/causal_series_4_e.png"" style=""width: 300px; height: 300px;"" />
                   </div>","null","4","1","E","",""
"","","","","","html-keyboard-response","71","414320","0.0-57.0-0.0-2.0","E8454A56D9AC4EA0ABBBFB0320FBD547","0199d5f7-c89b-7def-866a-dfccdbd18905","0199d5ef-c7d4-7cab-a194-b2c3afbaf8e8","","null","<div style=""display: flex; justify-content: center; align-items: center;"">
                     <img src=""images/causal/causal_series_4/causal_series_4_f.png"" style=""width: 300px; height: 300px;"" />
                   </div>","null","4","1","F","",""
"","","","","","survey-likert","72","416842","0.0-58.0","E8454A56D9AC4EA0ABBBFB0320FBD547","0199d5f7-c89b-7def-866a-dfccdbd18905","0199d5ef-c7d4-7cab-a194-b2c3afbaf8e8","","2519","","{""Q0"":0}","4","1","surprise_rating","","[0]"
"","","","","","survey-likert","73","418517","0.0-59.0","E8454A56D9AC4EA0ABBBFB0320FBD547","0199d5f7-c89b-7def-866a-dfccdbd18905","0199d5ef-c7d4-7cab-a194-b2c3afbaf8e8","","1671","","{""Q0"":3}","4","1","enjoyment_rating","","[0]"
"","","","","","html-keyboard-response","74","424535","0.0-60.0","E8454A56D9AC4EA0ABBBFB0320FBD547","0199d5f7-c89b-7def-866a-dfccdbd18905","0199d5ef-c7d4-7cab-a194-b2c3afbaf8e8","","null","<div style=""display: flex; justify-content: center; align-items: center;"">
                     <img src=""images/other/blank.png"" style=""width: 300px; height: 300px;"" />
                   </div>","null","0","0","blank","",""
"","","","","","html-keyboard-response","75","430539","0.0-61.0","E8454A56D9AC4EA0ABBBFB0320FBD547","0199d5f7-c89b-7def-866a-dfccdbd18905","0199d5ef-c7d4-7cab-a194-b2c3afbaf8e8","","null","<div style=""display: flex; justify-content: center; align-items: center;"">
                     <img src=""images/causal/causal_series_9/causal_series_9_a.png"" style=""width: 300px; height: 300px;"" />
                   </div>","null","9","2","A","",""
"","","","","","html-keyboard-response","76","436555","0.0-62.0","E8454A56D9AC4EA0ABBBFB0320FBD547","0199d5f7-c89b-7def-866a-dfccdbd18905","0199d5ef-c7d4-7cab-a194-b2c3afbaf8e8","","null","<div style=""display: flex; justify-content: center; align-items: center;"">
                     <img src=""images/causal/causal_series_9/causal_series_9_b.png"" style=""width: 300px; height: 300px;"" />
                   </div>","null","9","2","B","",""
"","","","","","html-keyboard-response","77","442559","0.0-63.0","E8454A56D9AC4EA0ABBBFB0320FBD547","0199d5f7-c89b-7def-866a-dfccdbd18905","0199d5ef-c7d4-7cab-a194-b2c3afbaf8e8","","null","<div style=""display: flex; justify-content: center; align-items: center;"">
                     <img src=""images/causal/causal_series_9/causal_series_9_c.png"" style=""width: 300px; height: 300px;"" />
                   </div>","null","9","2","C","",""
"","","","","","html-button-response","78","443762","0.0-64.0","E8454A56D9AC4EA0ABBBFB0320FBD547","0199d5f7-c89b-7def-866a-dfccdbd18905","0199d5ef-c7d4-7cab-a194-b2c3afbaf8e8","","1199","
        <div style=""display: flex; justify-content: center; align-items: center;"">
          <img src=""images/red_deck_2.png"" style=""width: 300px; height: 300px; margin-right: 10px;"" />
          <img src=""images/blue_deck_1.png"" style=""width: 300px; height: 300px;"" />
        </div>","1","9","2","choice","1",""
"","","","","","html-keyboard-response","79","449774","0.0-65.0-1.0-0.0","E8454A56D9AC4EA0ABBBFB0320FBD547","0199d5f7-c89b-7def-866a-dfccdbd18905","0199d5ef-c7d4-7cab-a194-b2c3afbaf8e8","","null","<div style=""display: flex; justify-content: center; align-items: center;"">
                     <img src=""images/semantic/semantic_series_9/semantic_series_9_d.png"" style=""width: 300px; height: 300px;"" />
                   </div>","null","9","2","D","",""
"","","","","","html-keyboard-response","80","455776","0.0-65.0-1.0-1.0","E8454A56D9AC4EA0ABBBFB0320FBD547","0199d5f7-c89b-7def-866a-dfccdbd18905","0199d5ef-c7d4-7cab-a194-b2c3afbaf8e8","","null","<div style=""display: flex; justify-content: center; align-items: center;"">
                     <img src=""images/semantic/semantic_series_9/semantic_series_9_e.png"" style=""width: 300px; height: 300px;"" />
                   </div>","null","9","2","E","",""
"","","","","","html-keyboard-response","81","461780","0.0-65.0-1.0-2.0","E8454A56D9AC4EA0ABBBFB0320FBD547","0199d5f7-c89b-7def-866a-dfccdbd18905","0199d5ef-c7d4-7cab-a194-b2c3afbaf8e8","","null","<div style=""display: flex; justify-content: center; align-items: center;"">
                     <img src=""images/semantic/semantic_series_9/semantic_series_9_f.png"" style=""width: 300px; height: 300px;"" />
                   </div>","null","9","2","F","",""
"","","","","","survey-likert","82","463848","0.0-66.0","E8454A56D9AC4EA0ABBBFB0320FBD547","0199d5f7-c89b-7def-866a-dfccdbd18905","0199d5ef-c7d4-7cab-a194-b2c3afbaf8e8","","2066","","{""Q0"":3}","9","2","surprise_rating","","[0]"
"","","","","","survey-likert","83","465520","0.0-67.0","E8454A56D9AC4EA0ABBBFB0320FBD547","0199d5f7-c89b-7def-866a-dfccdbd18905","0199d5ef-c7d4-7cab-a194-b2c3afbaf8e8","","1670","","{""Q0"":3}","9","2","enjoyment_rating","","[0]"
"","","","","","html-keyboard-response","84","471523","0.0-68.0","E8454A56D9AC4EA0ABBBFB0320FBD547","0199d5f7-c89b-7def-866a-dfccdbd18905","0199d5ef-c7d4-7cab-a194-b2c3afbaf8e8","","null","<div style=""display: flex; justify-content: center; align-items: center;"">
                     <img src=""images/other/blank.png"" style=""width: 300px; height: 300px;"" />
                   </div>","null","0","0","blank","",""
"","","","","","html-keyboard-response","85","477530","0.0-69.0","E8454A56D9AC4EA0ABBBFB0320FBD547","0199d5f7-c89b-7def-866a-dfccdbd18905","0199d5ef-c7d4-7cab-a194-b2c3afbaf8e8","","null","<div style=""display: flex; justify-content: center; align-items: center;"">
                     <img src=""images/causal/causal_series_3/causal_series_3_a.png"" style=""width: 300px; height: 300px;"" />
                   </div>","null","3","2","A","",""
"","","","","","html-keyboard-response","86","483545","0.0-70.0","E8454A56D9AC4EA0ABBBFB0320FBD547","0199d5f7-c89b-7def-866a-dfccdbd18905","0199d5ef-c7d4-7cab-a194-b2c3afbaf8e8","","null","<div style=""display: flex; justify-content: center; align-items: center;"">
                     <img src=""images/causal/causal_series_3/causal_series_3_b.png"" style=""width: 300px; height: 300px;"" />
                   </div>","null","3","2","B","",""
"","","","","","html-keyboard-response","87","489554","0.0-71.0","E8454A56D9AC4EA0ABBBFB0320FBD547","0199d5f7-c89b-7def-866a-dfccdbd18905","0199d5ef-c7d4-7cab-a194-b2c3afbaf8e8","","null","<div style=""display: flex; justify-content: center; align-items: center;"">
                     <img src=""images/causal/causal_series_3/causal_series_3_c.png"" style=""width: 300px; height: 300px;"" />
                   </div>","null","3","2","C","",""
"","","","","","html-button-response","88","490826","0.0-72.0","E8454A56D9AC4EA0ABBBFB0320FBD547","0199d5f7-c89b-7def-866a-dfccdbd18905","0199d5ef-c7d4-7cab-a194-b2c3afbaf8e8","","1269","
        <div style=""display: flex; justify-content: center; align-items: center;"">
          <img src=""images/red_deck_2.png"" style=""width: 300px; height: 300px; margin-right: 10px;"" />
          <img src=""images/blue_deck_1.png"" style=""width: 300px; height: 300px;"" />
        </div>","0","3","2","choice","0",""
"","","","","","html-keyboard-response","89","496841","0.0-73.0-0.0-0.0","E8454A56D9AC4EA0ABBBFB0320FBD547","0199d5f7-c89b-7def-866a-dfccdbd18905","0199d5ef-c7d4-7cab-a194-b2c3afbaf8e8","","null","<div style=""display: flex; justify-content: center; align-items: center;"">
                     <img src=""images/causal/causal_series_3/causal_series_3_d.png"" style=""width: 300px; height: 300px;"" />
                   </div>","null","3","2","D","",""
"","","","","","html-keyboard-response","90","502848","0.0-73.0-0.0-1.0","E8454A56D9AC4EA0ABBBFB0320FBD547","0199d5f7-c89b-7def-866a-dfccdbd18905","0199d5ef-c7d4-7cab-a194-b2c3afbaf8e8","","null","<div style=""display: flex; justify-content: center; align-items: center;"">
                     <img src=""images/causal/causal_series_3/causal_series_3_e.png"" style=""width: 300px; height: 300px;"" />
                   </div>","null","3","2","E","",""
"","","","","","html-keyboard-response","91","508860","0.0-73.0-0.0-2.0","E8454A56D9AC4EA0ABBBFB0320FBD547","0199d5f7-c89b-7def-866a-dfccdbd18905","0199d5ef-c7d4-7cab-a194-b2c3afbaf8e8","","null","<div style=""display: flex; justify-content: center; align-items: center;"">
                     <img src=""images/causal/causal_series_3/causal_series_3_f.png"" style=""width: 300px; height: 300px;"" />
                   </div>","null","3","2","F","",""
"","","","","","survey-likert","92","512274","0.0-74.0","E8454A56D9AC4EA0ABBBFB0320FBD547","0199d5f7-c89b-7def-866a-dfccdbd18905","0199d5ef-c7d4-7cab-a194-b2c3afbaf8e8","","3411","","{""Q0"":2}","3","2","surprise_rating","","[0]"
"","","","","","survey-likert","93","513660","0.0-75.0","E8454A56D9AC4EA0ABBBFB0320FBD547","0199d5f7-c89b-7def-866a-dfccdbd18905","0199d5ef-c7d4-7cab-a194-b2c3afbaf8e8","","1381","","{""Q0"":2}","3","2","enjoyment_rating","","[0]"
"","","","","","html-keyboard-response","94","519669","0.0-76.0","E8454A56D9AC4EA0ABBBFB0320FBD547","0199d5f7-c89b-7def-866a-dfccdbd18905","0199d5ef-c7d4-7cab-a194-b2c3afbaf8e8","","null","<div style=""display: flex; justify-content: center; align-items: center;"">
                     <img src=""images/other/blank.png"" style=""width: 300px; height: 300px;"" />
                   </div>","null","0","0","blank","",""
"","","","","","html-keyboard-response","95","525675","0.0-77.0","E8454A56D9AC4EA0ABBBFB0320FBD547","0199d5f7-c89b-7def-866a-dfccdbd18905","0199d5ef-c7d4-7cab-a194-b2c3afbaf8e8","","null","<div style=""display: flex; justify-content: center; align-items: center;"">
                     <img src=""images/causal/causal_series_3/causal_series_3_a.png"" style=""width: 300px; height: 300px;"" />
                   </div>","null","3","1","A","",""
"","","","","","html-keyboard-response","96","531686","0.0-78.0","E8454A56D9AC4EA0ABBBFB0320FBD547","0199d5f7-c89b-7def-866a-dfccdbd18905","0199d5ef-c7d4-7cab-a194-b2c3afbaf8e8","","null","<div style=""display: flex; justify-content: center; align-items: center;"">
                     <img src=""images/causal/causal_series_3/causal_series_3_b.png"" style=""width: 300px; height: 300px;"" />
                   </div>","null","3","1","B","",""
"","","","","","html-keyboard-response","97","537703","0.0-79.0","E8454A56D9AC4EA0ABBBFB0320FBD547","0199d5f7-c89b-7def-866a-dfccdbd18905","0199d5ef-c7d4-7cab-a194-b2c3afbaf8e8","","null","<div style=""display: flex; justify-content: center; align-items: center;"">
                     <img src=""images/causal/causal_series_3/causal_series_3_c.png"" style=""width: 300px; height: 300px;"" />
                   </div>","null","3","1","C","",""
"","","","","","html-button-response","98","538833","0.0-80.0","E8454A56D9AC4EA0ABBBFB0320FBD547","0199d5f7-c89b-7def-866a-dfccdbd18905","0199d5ef-c7d4-7cab-a194-b2c3afbaf8e8","","1127","
        <div style=""display: flex; justify-content: center; align-items: center;"">
          <img src=""images/red_deck_2.png"" style=""width: 300px; height: 300px; margin-right: 10px;"" />
          <img src=""images/blue_deck_1.png"" style=""width: 300px; height: 300px;"" />
        </div>","1","3","1","choice","1",""
"","","","","","html-keyboard-response","99","544839","0.0-81.0-1.0-0.0","E8454A56D9AC4EA0ABBBFB0320FBD547","0199d5f7-c89b-7def-866a-dfccdbd18905","0199d5ef-c7d4-7cab-a194-b2c3afbaf8e8","","null","<div style=""display: flex; justify-content: center; align-items: center;"">
                     <img src=""images/semantic/semantic_series_3/semantic_series_3_d.png"" style=""width: 300px; height: 300px;"" />
                   </div>","null","3","1","D","",""
"","","","","","html-keyboard-response","100","550852","0.0-81.0-1.0-1.0","E8454A56D9AC4EA0ABBBFB0320FBD547","0199d5f7-c89b-7def-866a-dfccdbd18905","0199d5ef-c7d4-7cab-a194-b2c3afbaf8e8","","null","<div style=""display: flex; justify-content: center; align-items: center;"">
                     <img src=""images/semantic/semantic_series_3/semantic_series_3_e.png"" style=""width: 300px; height: 300px;"" />
                   </div>","null","3","1","E","",""
"","","","","","html-keyboard-response","101","556857","0.0-81.0-1.0-2.0","E8454A56D9AC4EA0ABBBFB0320FBD547","0199d5f7-c89b-7def-866a-dfccdbd18905","0199d5ef-c7d4-7cab-a194-b2c3afbaf8e8","","null","<div style=""display: flex; justify-content: center; align-items: center;"">
                     <img src=""images/semantic/semantic_series_3/semantic_series_3_f.png"" style=""width: 300px; height: 300px;"" />
                   </div>","null","3","1","F","",""
"","","","","","survey-likert","102","558746","0.0-82.0","E8454A56D9AC4EA0ABBBFB0320FBD547","0199d5f7-c89b-7def-866a-dfccdbd18905","0199d5ef-c7d4-7cab-a194-b2c3afbaf8e8","","1887","","{""Q0"":1}","3","1","surprise_rating","","[0]"
"","","","","","survey-likert","103","560146","0.0-83.0","E8454A56D9AC4EA0ABBBFB0320FBD547","0199d5f7-c89b-7def-866a-dfccdbd18905","0199d5ef-c7d4-7cab-a194-b2c3afbaf8e8","","1397","","{""Q0"":2}","3","1","enjoyment_rating","","[0]"
"","","","","","html-keyboard-response","104","566157","0.0-84.0","E8454A56D9AC4EA0ABBBFB0320FBD547","0199d5f7-c89b-7def-866a-dfccdbd18905","0199d5ef-c7d4-7cab-a194-b2c3afbaf8e8","","null","<div style=""display: flex; justify-content: center; align-items: center;"">
                     <img src=""images/other/blank.png"" style=""width: 300px; height: 300px;"" />
                   </div>","null","0","0","blank","",""
"","","","","","html-keyboard-response","105","572171","0.0-85.0","E8454A56D9AC4EA0ABBBFB0320FBD547","0199d5f7-c89b-7def-866a-dfccdbd18905","0199d5ef-c7d4-7cab-a194-b2c3afbaf8e8","","null","<div style=""display: flex; justify-content: center; align-items: center;"">
                     <img src=""images/causal/causal_series_1/causal_series_1_a.png"" style=""width: 300px; height: 300px;"" />
                   </div>","null","1","1","A","",""
"","","","","","html-keyboard-response","106","578173","0.0-86.0","E8454A56D9AC4EA0ABBBFB0320FBD547","0199d5f7-c89b-7def-866a-dfccdbd18905","0199d5ef-c7d4-7cab-a194-b2c3afbaf8e8","","null","<div style=""display: flex; justify-content: center; align-items: center;"">
                     <img src=""images/causal/causal_series_1/causal_series_1_b.png"" style=""width: 300px; height: 300px;"" />
                   </div>","null","1","1","B","",""
"","","","","","html-keyboard-response","107","584189","0.0-87.0","E8454A56D9AC4EA0ABBBFB0320FBD547","0199d5f7-c89b-7def-866a-dfccdbd18905","0199d5ef-c7d4-7cab-a194-b2c3afbaf8e8","","null","<div style=""display: flex; justify-content: center; align-items: center;"">
                     <img src=""images/causal/causal_series_1/causal_series_1_c.png"" style=""width: 300px; height: 300px;"" />
                   </div>","null","1","1","C","",""
"","","","","","html-button-response","108","585545","0.0-88.0","E8454A56D9AC4EA0ABBBFB0320FBD547","0199d5f7-c89b-7def-866a-dfccdbd18905","0199d5ef-c7d4-7cab-a194-b2c3afbaf8e8","","1354","
        <div style=""display: flex; justify-content: center; align-items: center;"">
          <img src=""images/red_deck_2.png"" style=""width: 300px; height: 300px; margin-right: 10px;"" />
          <img src=""images/blue_deck_1.png"" style=""width: 300px; height: 300px;"" />
        </div>","0","1","1","choice","0",""
"","","","","","html-keyboard-response","109","591559","0.0-89.0-0.0-0.0","E8454A56D9AC4EA0ABBBFB0320FBD547","0199d5f7-c89b-7def-866a-dfccdbd18905","0199d5ef-c7d4-7cab-a194-b2c3afbaf8e8","","null","<div style=""display: flex; justify-content: center; align-items: center;"">
                     <img src=""images/causal/causal_series_1/causal_series_1_d.png"" style=""width: 300px; height: 300px;"" />
                   </div>","null","1","1","D","",""
"","","","","","html-keyboard-response","110","597572","0.0-89.0-0.0-1.0","E8454A56D9AC4EA0ABBBFB0320FBD547","0199d5f7-c89b-7def-866a-dfccdbd18905","0199d5ef-c7d4-7cab-a194-b2c3afbaf8e8","","null","<div style=""display: flex; justify-content: center; align-items: center;"">
                     <img src=""images/causal/causal_series_1/causal_series_1_e.png"" style=""width: 300px; height: 300px;"" />
                   </div>","null","1","1","E","",""
"","","","","","html-keyboard-response","111","603576","0.0-89.0-0.0-2.0","E8454A56D9AC4EA0ABBBFB0320FBD547","0199d5f7-c89b-7def-866a-dfccdbd18905","0199d5ef-c7d4-7cab-a194-b2c3afbaf8e8","","null","<div style=""display: flex; justify-content: center; align-items: center;"">
                     <img src=""images/causal/causal_series_1/causal_series_1_f.png"" style=""width: 300px; height: 300px;"" />
                   </div>","null","1","1","F","",""
"","","","","","survey-likert","112","606690","0.0-90.0","E8454A56D9AC4EA0ABBBFB0320FBD547","0199d5f7-c89b-7def-866a-dfccdbd18905","0199d5ef-c7d4-7cab-a194-b2c3afbaf8e8","","3111","","{""Q0"":2}","1","1","surprise_rating","","[0]"
"","","","","","survey-likert","113","608234","0.0-91.0","E8454A56D9AC4EA0ABBBFB0320FBD547","0199d5f7-c89b-7def-866a-dfccdbd18905","0199d5ef-c7d4-7cab-a194-b2c3afbaf8e8","","1541","","{""Q0"":2}","1","1","enjoyment_rating","","[0]"
"","","","","","html-keyboard-response","114","614245","0.0-92.0","E8454A56D9AC4EA0ABBBFB0320FBD547","0199d5f7-c89b-7def-866a-dfccdbd18905","0199d5ef-c7d4-7cab-a194-b2c3afbaf8e8","","null","<div style=""display: flex; justify-content: center; align-items: center;"">
                     <img src=""images/other/blank.png"" style=""width: 300px; height: 300px;"" />
                   </div>","null","0","0","blank","",""
"","","","","","html-keyboard-response","115","620257","0.0-93.0","E8454A56D9AC4EA0ABBBFB0320FBD547","0199d5f7-c89b-7def-866a-dfccdbd18905","0199d5ef-c7d4-7cab-a194-b2c3afbaf8e8","","null","<div style=""display: flex; justify-content: center; align-items: center;"">
                     <img src=""images/causal/causal_series_8/causal_series_8_a.png"" style=""width: 300px; height: 300px;"" />
                   </div>","null","8","2","A","",""
"","","","","","html-keyboard-response","116","626270","0.0-94.0","E8454A56D9AC4EA0ABBBFB0320FBD547","0199d5f7-c89b-7def-866a-dfccdbd18905","0199d5ef-c7d4-7cab-a194-b2c3afbaf8e8","","null","<div style=""display: flex; justify-content: center; align-items: center;"">
                     <img src=""images/causal/causal_series_8/causal_series_8_b.png"" style=""width: 300px; height: 300px;"" />
                   </div>","null","8","2","B","",""
"","","","","","html-keyboard-response","117","632283","0.0-95.0","E8454A56D9AC4EA0ABBBFB0320FBD547","0199d5f7-c89b-7def-866a-dfccdbd18905","0199d5ef-c7d4-7cab-a194-b2c3afbaf8e8","","null","<div style=""display: flex; justify-content: center; align-items: center;"">
                     <img src=""images/causal/causal_series_8/causal_series_8_c.png"" style=""width: 300px; height: 300px;"" />
                   </div>","null","8","2","C","",""
"","","","","","html-button-response","118","633432","0.0-96.0","E8454A56D9AC4EA0ABBBFB0320FBD547","0199d5f7-c89b-7def-866a-dfccdbd18905","0199d5ef-c7d4-7cab-a194-b2c3afbaf8e8","","1147","
        <div style=""display: flex; justify-content: center; align-items: center;"">
          <img src=""images/red_deck_2.png"" style=""width: 300px; height: 300px; margin-right: 10px;"" />
          <img src=""images/blue_deck_1.png"" style=""width: 300px; height: 300px;"" />
        </div>","0","8","2","choice","0",""
"","","","","","html-keyboard-response","119","639445","0.0-97.0-0.0-0.0","E8454A56D9AC4EA0ABBBFB0320FBD547","0199d5f7-c89b-7def-866a-dfccdbd18905","0199d5ef-c7d4-7cab-a194-b2c3afbaf8e8","","null","<div style=""display: flex; justify-content: center; align-items: center;"">
                     <img src=""images/causal/causal_series_8/causal_series_8_d.png"" style=""width: 300px; height: 300px;"" />
                   </div>","null","8","2","D","",""
"","","","","","html-keyboard-response","120","645447","0.0-97.0-0.0-1.0","E8454A56D9AC4EA0ABBBFB0320FBD547","0199d5f7-c89b-7def-866a-dfccdbd18905","0199d5ef-c7d4-7cab-a194-b2c3afbaf8e8","","null","<div style=""display: flex; justify-content: center; align-items: center;"">
                     <img src=""images/causal/causal_series_8/causal_series_8_e.png"" style=""width: 300px; height: 300px;"" />
                   </div>","null","8","2","E","",""
"","","","","","html-keyboard-response","121","651453","0.0-97.0-0.0-2.0","E8454A56D9AC4EA0ABBBFB0320FBD547","0199d5f7-c89b-7def-866a-dfccdbd18905","0199d5ef-c7d4-7cab-a194-b2c3afbaf8e8","","null","<div style=""display: flex; justify-content: center; align-items: center;"">
                     <img src=""images/causal/causal_series_8/causal_series_8_f.png"" style=""width: 300px; height: 300px;"" />
                   </div>","null","8","2","F","",""
"","","","","","survey-likert","122","653490","0.0-98.0","E8454A56D9AC4EA0ABBBFB0320FBD547","0199d5f7-c89b-7def-866a-dfccdbd18905","0199d5ef-c7d4-7cab-a194-b2c3afbaf8e8","","2035","","{""Q0"":0}","8","2","surprise_rating","","[0]"
"","","","","","survey-likert","123","654778","0.0-99.0","E8454A56D9AC4EA0ABBBFB0320FBD547","0199d5f7-c89b-7def-866a-dfccdbd18905","0199d5ef-c7d4-7cab-a194-b2c3afbaf8e8","","1285","","{""Q0"":3}","8","2","enjoyment_rating","","[0]"
"","","","","","html-keyboard-response","124","660788","0.0-100.0","E8454A56D9AC4EA0ABBBFB0320FBD547","0199d5f7-c89b-7def-866a-dfccdbd18905","0199d5ef-c7d4-7cab-a194-b2c3afbaf8e8","","null","<div style=""display: flex; justify-content: center; align-items: center;"">
                     <img src=""images/other/blank.png"" style=""width: 300px; height: 300px;"" />
                   </div>","null","0","0","blank","",""
"","","","","","html-keyboard-response","125","666802","0.0-101.0","E8454A56D9AC4EA0ABBBFB0320FBD547","0199d5f7-c89b-7def-866a-dfccdbd18905","0199d5ef-c7d4-7cab-a194-b2c3afbaf8e8","","null","<div style=""display: flex; justify-content: center; align-items: center;"">
                     <img src=""images/causal/causal_series_1/causal_series_1_a.png"" style=""width: 300px; height: 300px;"" />
                   </div>","null","1","2","A","",""
"","","","","","html-keyboard-response","126","672815","0.0-102.0","E8454A56D9AC4EA0ABBBFB0320FBD547","0199d5f7-c89b-7def-866a-dfccdbd18905","0199d5ef-c7d4-7cab-a194-b2c3afbaf8e8","","null","<div style=""display: flex; justify-content: center; align-items: center;"">
                     <img src=""images/causal/causal_series_1/causal_series_1_b.png"" style=""width: 300px; height: 300px;"" />
                   </div>","null","1","2","B","",""
"","","","","","html-keyboard-response","127","678819","0.0-103.0","E8454A56D9AC4EA0ABBBFB0320FBD547","0199d5f7-c89b-7def-866a-dfccdbd18905","0199d5ef-c7d4-7cab-a194-b2c3afbaf8e8","","null","<div style=""display: flex; justify-content: center; align-items: center;"">
                     <img src=""images/causal/causal_series_1/causal_series_1_c.png"" style=""width: 300px; height: 300px;"" />
                   </div>","null","1","2","C","",""
"","","","","","html-button-response","128","679865","0.0-104.0","E8454A56D9AC4EA0ABBBFB0320FBD547","0199d5f7-c89b-7def-866a-dfccdbd18905","0199d5ef-c7d4-7cab-a194-b2c3afbaf8e8","","1042","
        <div style=""display: flex; justify-content: center; align-items: center;"">
          <img src=""images/red_deck_2.png"" style=""width: 300px; height: 300px; margin-right: 10px;"" />
          <img src=""images/blue_deck_1.png"" style=""width: 300px; height: 300px;"" />
        </div>","1","1","2","choice","1",""
"","","","","","html-keyboard-response","129","685882","0.0-105.0-1.0-0.0","E8454A56D9AC4EA0ABBBFB0320FBD547","0199d5f7-c89b-7def-866a-dfccdbd18905","0199d5ef-c7d4-7cab-a194-b2c3afbaf8e8","","null","<div style=""display: flex; justify-content: center; align-items: center;"">
                     <img src=""images/semantic/semantic_series_1/semantic_series_1_d.png"" style=""width: 300px; height: 300px;"" />
                   </div>","null","1","2","D","",""
"","","","","","html-keyboard-response","130","691891","0.0-105.0-1.0-1.0","E8454A56D9AC4EA0ABBBFB0320FBD547","0199d5f7-c89b-7def-866a-dfccdbd18905","0199d5ef-c7d4-7cab-a194-b2c3afbaf8e8","","null","<div style=""display: flex; justify-content: center; align-items: center;"">
                     <img src=""images/semantic/semantic_series_1/semantic_series_1_e.png"" style=""width: 300px; height: 300px;"" />
                   </div>","null","1","2","E","",""
"","","","","","html-keyboard-response","131","697902","0.0-105.0-1.0-2.0","E8454A56D9AC4EA0ABBBFB0320FBD547","0199d5f7-c89b-7def-866a-dfccdbd18905","0199d5ef-c7d4-7cab-a194-b2c3afbaf8e8","","null","<div style=""display: flex; justify-content: center; align-items: center;"">
                     <img src=""images/semantic/semantic_series_1/semantic_series_1_f.png"" style=""width: 300px; height: 300px;"" />
                   </div>","null","1","2","F","",""
"","","","","","survey-likert","132","699776","0.0-106.0","E8454A56D9AC4EA0ABBBFB0320FBD547","0199d5f7-c89b-7def-866a-dfccdbd18905","0199d5ef-c7d4-7cab-a194-b2c3afbaf8e8","","1873","","{""Q0"":0}","1","2","surprise_rating","","[0]"
"","","","","","survey-likert","133","701927","0.0-107.0","E8454A56D9AC4EA0ABBBFB0320FBD547","0199d5f7-c89b-7def-866a-dfccdbd18905","0199d5ef-c7d4-7cab-a194-b2c3afbaf8e8","","2149","","{""Q0"":0}","1","2","enjoyment_rating","","[0]"
"","","","","","html-keyboard-response","134","707935","0.0-108.0","E8454A56D9AC4EA0ABBBFB0320FBD547","0199d5f7-c89b-7def-866a-dfccdbd18905","0199d5ef-c7d4-7cab-a194-b2c3afbaf8e8","","null","<div style=""display: flex; justify-content: center; align-items: center;"">
                     <img src=""images/other/blank.png"" style=""width: 300px; height: 300px;"" />
                   </div>","null","0","0","blank","",""
"","","","","","html-keyboard-response","135","713939","0.0-109.0","E8454A56D9AC4EA0ABBBFB0320FBD547","0199d5f7-c89b-7def-866a-dfccdbd18905","0199d5ef-c7d4-7cab-a194-b2c3afbaf8e8","","null","<div style=""display: flex; justify-content: center; align-items: center;"">
                     <img src=""images/causal/causal_series_10/causal_series_10_a.png"" style=""width: 300px; height: 300px;"" />
                   </div>","null","10","2","A","",""
"","","","","","html-keyboard-response","136","719951","0.0-110.0","E8454A56D9AC4EA0ABBBFB0320FBD547","0199d5f7-c89b-7def-866a-dfccdbd18905","0199d5ef-c7d4-7cab-a194-b2c3afbaf8e8","","null","<div style=""display: flex; justify-content: center; align-items: center;"">
                     <img src=""images/causal/causal_series_10/causal_series_10_b.png"" style=""width: 300px; height: 300px;"" />
                   </div>","null","10","2","B","",""
"","","","","","html-keyboard-response","137","725959","0.0-111.0","E8454A56D9AC4EA0ABBBFB0320FBD547","0199d5f7-c89b-7def-866a-dfccdbd18905","0199d5ef-c7d4-7cab-a194-b2c3afbaf8e8","","null","<div style=""display: flex; justify-content: center; align-items: center;"">
                     <img src=""images/causal/causal_series_10/causal_series_10_c.png"" style=""width: 300px; height: 300px;"" />
                   </div>","null","10","2","C","",""
"","","","","","html-button-response","138","727129","0.0-112.0","E8454A56D9AC4EA0ABBBFB0320FBD547","0199d5f7-c89b-7def-866a-dfccdbd18905","0199d5ef-c7d4-7cab-a194-b2c3afbaf8e8","","1167","
        <div style=""display: flex; justify-content: center; align-items: center;"">
          <img src=""images/red_deck_2.png"" style=""width: 300px; height: 300px; margin-right: 10px;"" />
          <img src=""images/blue_deck_1.png"" style=""width: 300px; height: 300px;"" />
        </div>","0","10","2","choice","0",""
"","","","","","html-keyboard-response","139","733147","0.0-113.0-0.0-0.0","E8454A56D9AC4EA0ABBBFB0320FBD547","0199d5f7-c89b-7def-866a-dfccdbd18905","0199d5ef-c7d4-7cab-a194-b2c3afbaf8e8","","null","<div style=""display: flex; justify-content: center; align-items: center;"">
                     <img src=""images/causal/causal_series_10/causal_series_10_d.png"" style=""width: 300px; height: 300px;"" />
                   </div>","null","10","2","D","",""
"","","","","","html-keyboard-response","140","739154","0.0-113.0-0.0-1.0","E8454A56D9AC4EA0ABBBFB0320FBD547","0199d5f7-c89b-7def-866a-dfccdbd18905","0199d5ef-c7d4-7cab-a194-b2c3afbaf8e8","","null","<div style=""display: flex; justify-content: center; align-items: center;"">
                     <img src=""images/causal/causal_series_10/causal_series_10_e.png"" style=""width: 300px; height: 300px;"" />
                   </div>","null","10","2","E","",""
"","","","","","html-keyboard-response","141","745156","0.0-113.0-0.0-2.0","E8454A56D9AC4EA0ABBBFB0320FBD547","0199d5f7-c89b-7def-866a-dfccdbd18905","0199d5ef-c7d4-7cab-a194-b2c3afbaf8e8","","null","<div style=""display: flex; justify-content: center; align-items: center;"">
                     <img src=""images/causal/causal_series_10/causal_series_10_f.png"" style=""width: 300px; height: 300px;"" />
                   </div>","null","10","2","F","",""
"","","","","","survey-likert","142","747002","0.0-114.0","E8454A56D9AC4EA0ABBBFB0320FBD547","0199d5f7-c89b-7def-866a-dfccdbd18905","0199d5ef-c7d4-7cab-a194-b2c3afbaf8e8","","1844","","{""Q0"":2}","10","2","surprise_rating","","[0]"
"","","","","","survey-likert","143","749250","0.0-115.0","E8454A56D9AC4EA0ABBBFB0320FBD547","0199d5f7-c89b-7def-866a-dfccdbd18905","0199d5ef-c7d4-7cab-a194-b2c3afbaf8e8","","2245","","{""Q0"":3}","10","2","enjoyment_rating","","[0]"
"","","","","","html-keyboard-response","144","755255","0.0-116.0","E8454A56D9AC4EA0ABBBFB0320FBD547","0199d5f7-c89b-7def-866a-dfccdbd18905","0199d5ef-c7d4-7cab-a194-b2c3afbaf8e8","","null","<div style=""display: flex; justify-content: center; align-items: center;"">
                     <img src=""images/other/blank.png"" style=""width: 300px; height: 300px;"" />
                   </div>","null","0","0","blank","",""
"","","","","","html-keyboard-response","145","761272","0.0-117.0","E8454A56D9AC4EA0ABBBFB0320FBD547","0199d5f7-c89b-7def-866a-dfccdbd18905","0199d5ef-c7d4-7cab-a194-b2c3afbaf8e8","","null","<div style=""display: flex; justify-content: center; align-items: center;"">
                     <img src=""images/causal/causal_series_6/causal_series_6_a.png"" style=""width: 300px; height: 300px;"" />
                   </div>","null","6","2","A","",""
"","","","","","html-keyboard-response","146","767291","0.0-118.0","E8454A56D9AC4EA0ABBBFB0320FBD547","0199d5f7-c89b-7def-866a-dfccdbd18905","0199d5ef-c7d4-7cab-a194-b2c3afbaf8e8","","null","<div style=""display: flex; justify-content: center; align-items: center;"">
                     <img src=""images/causal/causal_series_6/causal_series_6_b.png"" style=""width: 300px; height: 300px;"" />
                   </div>","null","6","2","B","",""
"","","","","","html-keyboard-response","147","773294","0.0-119.0","E8454A56D9AC4EA0ABBBFB0320FBD547","0199d5f7-c89b-7def-866a-dfccdbd18905","0199d5ef-c7d4-7cab-a194-b2c3afbaf8e8","","null","<div style=""display: flex; justify-content: center; align-items: center;"">
                     <img src=""images/causal/causal_series_6/causal_series_6_c.png"" style=""width: 300px; height: 300px;"" />
                   </div>","null","6","2","C","",""
"","","","","","html-button-response","148","774369","0.0-120.0","E8454A56D9AC4EA0ABBBFB0320FBD547","0199d5f7-c89b-7def-866a-dfccdbd18905","0199d5ef-c7d4-7cab-a194-b2c3afbaf8e8","","1072","
        <div style=""display: flex; justify-content: center; align-items: center;"">
          <img src=""images/red_deck_2.png"" style=""width: 300px; height: 300px; margin-right: 10px;"" />
          <img src=""images/blue_deck_1.png"" style=""width: 300px; height: 300px;"" />
        </div>","1","6","2","choice","1",""
"","","","","","html-keyboard-response","149","780375","0.0-121.0-1.0-0.0","E8454A56D9AC4EA0ABBBFB0320FBD547","0199d5f7-c89b-7def-866a-dfccdbd18905","0199d5ef-c7d4-7cab-a194-b2c3afbaf8e8","","null","<div style=""display: flex; justify-content: center; align-items: center;"">
                     <img src=""images/semantic/semantic_series_6/semantic_series_6_d.png"" style=""width: 300px; height: 300px;"" />
                   </div>","null","6","2","D","",""
"","","","","","html-keyboard-response","150","786387","0.0-121.0-1.0-1.0","E8454A56D9AC4EA0ABBBFB0320FBD547","0199d5f7-c89b-7def-866a-dfccdbd18905","0199d5ef-c7d4-7cab-a194-b2c3afbaf8e8","","null","<div style=""display: flex; justify-content: center; align-items: center;"">
                     <img src=""images/semantic/semantic_series_6/semantic_series_6_e.png"" style=""width: 300px; height: 300px;"" />
                   </div>","null","6","2","E","",""
"","","","","","html-keyboard-response","151","792393","0.0-121.0-1.0-2.0","E8454A56D9AC4EA0ABBBFB0320FBD547","0199d5f7-c89b-7def-866a-dfccdbd18905","0199d5ef-c7d4-7cab-a194-b2c3afbaf8e8","","null","<div style=""display: flex; justify-content: center; align-items: center;"">
                     <img src=""images/semantic/semantic_series_6/semantic_series_6_f.png"" style=""width: 300px; height: 300px;"" />
                   </div>","null","6","2","F","",""
"","","","","","survey-likert","152","794352","0.0-122.0","E8454A56D9AC4EA0ABBBFB0320FBD547","0199d5f7-c89b-7def-866a-dfccdbd18905","0199d5ef-c7d4-7cab-a194-b2c3afbaf8e8","","1956","","{""Q0"":0}","6","2","surprise_rating","","[0]"
"","","","","","survey-likert","153","796490","0.0-123.0","E8454A56D9AC4EA0ABBBFB0320FBD547","0199d5f7-c89b-7def-866a-dfccdbd18905","0199d5ef-c7d4-7cab-a194-b2c3afbaf8e8","","2136","","{""Q0"":0}","6","2","enjoyment_rating","","[0]"
"","","","","","html-keyboard-response","154","802494","0.0-124.0","E8454A56D9AC4EA0ABBBFB0320FBD547","0199d5f7-c89b-7def-866a-dfccdbd18905","0199d5ef-c7d4-7cab-a194-b2c3afbaf8e8","","null","<div style=""display: flex; justify-content: center; align-items: center;"">
                     <img src=""images/other/blank.png"" style=""width: 300px; height: 300px;"" />
                   </div>","null","0","0","blank","",""
"","","","","","html-keyboard-response","155","808508","0.0-125.0","E8454A56D9AC4EA0ABBBFB0320FBD547","0199d5f7-c89b-7def-866a-dfccdbd18905","0199d5ef-c7d4-7cab-a194-b2c3afbaf8e8","","null","<div style=""display: flex; justify-content: center; align-items: center;"">
                     <img src=""images/causal/causal_series_2/causal_series_2_a.png"" style=""width: 300px; height: 300px;"" />
                   </div>","null","2","1","A","",""
"","","","","","html-keyboard-response","156","814522","0.0-126.0","E8454A56D9AC4EA0ABBBFB0320FBD547","0199d5f7-c89b-7def-866a-dfccdbd18905","0199d5ef-c7d4-7cab-a194-b2c3afbaf8e8","","null","<div style=""display: flex; justify-content: center; align-items: center;"">
                     <img src=""images/causal/causal_series_2/causal_series_2_b.png"" style=""width: 300px; height: 300px;"" />
                   </div>","null","2","1","B","",""
"","","","","","html-keyboard-response","157","820540","0.0-127.0","E8454A56D9AC4EA0ABBBFB0320FBD547","0199d5f7-c89b-7def-866a-dfccdbd18905","0199d5ef-c7d4-7cab-a194-b2c3afbaf8e8","","null","<div style=""display: flex; justify-content: center; align-items: center;"">
                     <img src=""images/causal/causal_series_2/causal_series_2_c.png"" style=""width: 300px; height: 300px;"" />
                   </div>","null","2","1","C","",""
"","","","","","html-button-response","158","823049","0.0-128.0","E8454A56D9AC4EA0ABBBFB0320FBD547","0199d5f7-c89b-7def-866a-dfccdbd18905","0199d5ef-c7d4-7cab-a194-b2c3afbaf8e8","","2505","
        <div style=""display: flex; justify-content: center; align-items: center;"">
          <img src=""images/red_deck_2.png"" style=""width: 300px; height: 300px; margin-right: 10px;"" />
          <img src=""images/blue_deck_1.png"" style=""width: 300px; height: 300px;"" />
        </div>","0","2","1","choice","0",""
"","","","","","html-keyboard-response","159","829057","0.0-129.0-0.0-0.0","E8454A56D9AC4EA0ABBBFB0320FBD547","0199d5f7-c89b-7def-866a-dfccdbd18905","0199d5ef-c7d4-7cab-a194-b2c3afbaf8e8","","null","<div style=""display: flex; justify-content: center; align-items: center;"">
                     <img src=""images/causal/causal_series_2/causal_series_2_d.png"" style=""width: 300px; height: 300px;"" />
                   </div>","null","2","1","D","",""
"","","","","","html-keyboard-response","160","835061","0.0-129.0-0.0-1.0","E8454A56D9AC4EA0ABBBFB0320FBD547","0199d5f7-c89b-7def-866a-dfccdbd18905","0199d5ef-c7d4-7cab-a194-b2c3afbaf8e8","","null","<div style=""display: flex; justify-content: center; align-items: center;"">
                     <img src=""images/causal/causal_series_2/causal_series_2_e.png"" style=""width: 300px; height: 300px;"" />
                   </div>","null","2","1","E","",""
"","","","","","html-keyboard-response","161","841070","0.0-129.0-0.0-2.0","E8454A56D9AC4EA0ABBBFB0320FBD547","0199d5f7-c89b-7def-866a-dfccdbd18905","0199d5ef-c7d4-7cab-a194-b2c3afbaf8e8","","null","<div style=""display: flex; justify-content: center; align-items: center;"">
                     <img src=""images/causal/causal_series_2/causal_series_2_f.png"" style=""width: 300px; height: 300px;"" />
                   </div>","null","2","1","F","",""
"","","","","","survey-likert","162","844209","0.0-130.0","E8454A56D9AC4EA0ABBBFB0320FBD547","0199d5f7-c89b-7def-866a-dfccdbd18905","0199d5ef-c7d4-7cab-a194-b2c3afbaf8e8","","3138","","{""Q0"":0}","2","1","surprise_rating","","[0]"
"","","","","","survey-likert","163","846508","0.0-131.0","E8454A56D9AC4EA0ABBBFB0320FBD547","0199d5f7-c89b-7def-866a-dfccdbd18905","0199d5ef-c7d4-7cab-a194-b2c3afbaf8e8","","2296","","{""Q0"":0}","2","1","enjoyment_rating","","[0]"
"","","","","","html-keyboard-response","164","852522","0.0-132.0","E8454A56D9AC4EA0ABBBFB0320FBD547","0199d5f7-c89b-7def-866a-dfccdbd18905","0199d5ef-c7d4-7cab-a194-b2c3afbaf8e8","","null","<div style=""display: flex; justify-content: center; align-items: center;"">
                     <img src=""images/other/blank.png"" style=""width: 300px; height: 300px;"" />
                   </div>","null","0","0","blank","",""
"","","","","","html-keyboard-response","165","858537","0.0-133.0","E8454A56D9AC4EA0ABBBFB0320FBD547","0199d5f7-c89b-7def-866a-dfccdbd18905","0199d5ef-c7d4-7cab-a194-b2c3afbaf8e8","","null","<div style=""display: flex; justify-content: center; align-items: center;"">
                     <img src=""images/causal/causal_series_7/causal_series_7_a.png"" style=""width: 300px; height: 300px;"" />
                   </div>","null","7","2","A","",""
"","","","","","html-keyboard-response","166","864549","0.0-134.0","E8454A56D9AC4EA0ABBBFB0320FBD547","0199d5f7-c89b-7def-866a-dfccdbd18905","0199d5ef-c7d4-7cab-a194-b2c3afbaf8e8","","null","<div style=""display: flex; justify-content: center; align-items: center;"">
                     <img src=""images/causal/causal_series_7/causal_series_7_b.png"" style=""width: 300px; height: 300px;"" />
                   </div>","null","7","2","B","",""
"","","","","","html-keyboard-response","167","870561","0.0-135.0","E8454A56D9AC4EA0ABBBFB0320FBD547","0199d5f7-c89b-7def-866a-dfccdbd18905","0199d5ef-c7d4-7cab-a194-b2c3afbaf8e8","","null","<div style=""display: flex; justify-content: center; align-items: center;"">
                     <img src=""images/causal/causal_series_7/causal_series_7_c.png"" style=""width: 300px; height: 300px;"" />
                   </div>","null","7","2","C","",""
"","","","","","html-button-response","168","871601","0.0-136.0","E8454A56D9AC4EA0ABBBFB0320FBD547","0199d5f7-c89b-7def-866a-dfccdbd18905","0199d5ef-c7d4-7cab-a194-b2c3afbaf8e8","","1037","
        <div style=""display: flex; justify-content: center; align-items: center;"">
          <img src=""images/red_deck_2.png"" style=""width: 300px; height: 300px; margin-right: 10px;"" />
          <img src=""images/blue_deck_1.png"" style=""width: 300px; height: 300px;"" />
        </div>","1","7","2","choice","1",""
"","","","","","html-keyboard-response","169","877605","0.0-137.0-1.0-0.0","E8454A56D9AC4EA0ABBBFB0320FBD547","0199d5f7-c89b-7def-866a-dfccdbd18905","0199d5ef-c7d4-7cab-a194-b2c3afbaf8e8","","null","<div style=""display: flex; justify-content: center; align-items: center;"">
                     <img src=""images/semantic/semantic_series_7/semantic_series_7_d.png"" style=""width: 300px; height: 300px;"" />
                   </div>","null","7","2","D","",""
"","","","","","html-keyboard-response","170","883612","0.0-137.0-1.0-1.0","E8454A56D9AC4EA0ABBBFB0320FBD547","0199d5f7-c89b-7def-866a-dfccdbd18905","0199d5ef-c7d4-7cab-a194-b2c3afbaf8e8","","null","<div style=""display: flex; justify-content: center; align-items: center;"">
                     <img src=""images/semantic/semantic_series_7/semantic_series_7_e.png"" style=""width: 300px; height: 300px;"" />
                   </div>","null","7","2","E","",""
"","","","","","html-keyboard-response","171","889620","0.0-137.0-1.0-2.0","E8454A56D9AC4EA0ABBBFB0320FBD547","0199d5f7-c89b-7def-866a-dfccdbd18905","0199d5ef-c7d4-7cab-a194-b2c3afbaf8e8","","null","<div style=""display: flex; justify-content: center; align-items: center;"">
                     <img src=""images/semantic/semantic_series_7/semantic_series_7_f.png"" style=""width: 300px; height: 300px;"" />
                   </div>","null","7","2","F","",""
"","","","","","survey-likert","172","891578","0.0-138.0","E8454A56D9AC4EA0ABBBFB0320FBD547","0199d5f7-c89b-7def-866a-dfccdbd18905","0199d5ef-c7d4-7cab-a194-b2c3afbaf8e8","","1955","","{""Q0"":2}","7","2","surprise_rating","","[0]"
"","","","","","survey-likert","173","893210","0.0-139.0","E8454A56D9AC4EA0ABBBFB0320FBD547","0199d5f7-c89b-7def-866a-dfccdbd18905","0199d5ef-c7d4-7cab-a194-b2c3afbaf8e8","","1629","","{""Q0"":1}","7","2","enjoyment_rating","","[0]"
"","","","","","html-keyboard-response","174","899226","0.0-140.0","E8454A56D9AC4EA0ABBBFB0320FBD547","0199d5f7-c89b-7def-866a-dfccdbd18905","0199d5ef-c7d4-7cab-a194-b2c3afbaf8e8","","null","<div style=""display: flex; justify-content: center; align-items: center;"">
                     <img src=""images/other/blank.png"" style=""width: 300px; height: 300px;"" />
                   </div>","null","0","0","blank","",""
"","","","","","html-keyboard-response","175","905235","0.0-141.0","E8454A56D9AC4EA0ABBBFB0320FBD547","0199d5f7-c89b-7def-866a-dfccdbd18905","0199d5ef-c7d4-7cab-a194-b2c3afbaf8e8","","null","<div style=""display: flex; justify-content: center; align-items: center;"">
                     <img src=""images/causal/causal_series_10/causal_series_10_a.png"" style=""width: 300px; height: 300px;"" />
                   </div>","null","10","1","A","",""
"","","","","","html-keyboard-response","176","911252","0.0-142.0","E8454A56D9AC4EA0ABBBFB0320FBD547","0199d5f7-c89b-7def-866a-dfccdbd18905","0199d5ef-c7d4-7cab-a194-b2c3afbaf8e8","","null","<div style=""display: flex; justify-content: center; align-items: center;"">
                     <img src=""images/causal/causal_series_10/causal_series_10_b.png"" style=""width: 300px; height: 300px;"" />
                   </div>","null","10","1","B","",""
"","","","","","html-keyboard-response","177","917263","0.0-143.0","E8454A56D9AC4EA0ABBBFB0320FBD547","0199d5f7-c89b-7def-866a-dfccdbd18905","0199d5ef-c7d4-7cab-a194-b2c3afbaf8e8","","null","<div style=""display: flex; justify-content: center; align-items: center;"">
                     <img src=""images/causal/causal_series_10/causal_series_10_c.png"" style=""width: 300px; height: 300px;"" />
                   </div>","null","10","1","C","",""
"","","","","","html-button-response","178","918425","0.0-144.0","E8454A56D9AC4EA0ABBBFB0320FBD547","0199d5f7-c89b-7def-866a-dfccdbd18905","0199d5ef-c7d4-7cab-a194-b2c3afbaf8e8","","1158","
        <div style=""display: flex; justify-content: center; align-items: center;"">
          <img src=""images/red_deck_2.png"" style=""width: 300px; height: 300px; margin-right: 10px;"" />
          <img src=""images/blue_deck_1.png"" style=""width: 300px; height: 300px;"" />
        </div>","1","10","1","choice","1",""
"","","","","","html-keyboard-response","179","924441","0.0-145.0-1.0-0.0","E8454A56D9AC4EA0ABBBFB0320FBD547","0199d5f7-c89b-7def-866a-dfccdbd18905","0199d5ef-c7d4-7cab-a194-b2c3afbaf8e8","","null","<div style=""display: flex; justify-content: center; align-items: center;"">
                     <img src=""images/semantic/semantic_series_10/semantic_series_10_d.png"" style=""width: 300px; height: 300px;"" />
                   </div>","null","10","1","D","",""
"","","","","","html-keyboard-response","180","930457","0.0-145.0-1.0-1.0","E8454A56D9AC4EA0ABBBFB0320FBD547","0199d5f7-c89b-7def-866a-dfccdbd18905","0199d5ef-c7d4-7cab-a194-b2c3afbaf8e8","","null","<div style=""display: flex; justify-content: center; align-items: center;"">
                     <img src=""images/semantic/semantic_series_10/semantic_series_10_e.png"" style=""width: 300px; height: 300px;"" />
                   </div>","null","10","1","E","",""
"","","","","","html-keyboard-response","181","936473","0.0-145.0-1.0-2.0","E8454A56D9AC4EA0ABBBFB0320FBD547","0199d5f7-c89b-7def-866a-dfccdbd18905","0199d5ef-c7d4-7cab-a194-b2c3afbaf8e8","","null","<div style=""display: flex; justify-content: center; align-items: center;"">
                     <img src=""images/semantic/semantic_series_10/semantic_series_10_f.png"" style=""width: 300px; height: 300px;"" />
                   </div>","null","10","1","F","",""
"","","","","","survey-likert","182","938498","0.0-146.0","E8454A56D9AC4EA0ABBBFB0320FBD547","0199d5f7-c89b-7def-866a-dfccdbd18905","0199d5ef-c7d4-7cab-a194-b2c3afbaf8e8","","2023","","{""Q0"":4}","10","1","surprise_rating","","[0]"
"","","","","","survey-likert","183","940671","0.0-147.0","E8454A56D9AC4EA0ABBBFB0320FBD547","0199d5f7-c89b-7def-866a-dfccdbd18905","0199d5ef-c7d4-7cab-a194-b2c3afbaf8e8","","2171","","{""Q0"":4}","10","1","enjoyment_rating","","[0]"
"","","","","","html-keyboard-response","184","946688","0.0-148.0","E8454A56D9AC4EA0ABBBFB0320FBD547","0199d5f7-c89b-7def-866a-dfccdbd18905","0199d5ef-c7d4-7cab-a194-b2c3afbaf8e8","","null","<div style=""display: flex; justify-content: center; align-items: center;"">
                     <img src=""images/other/blank.png"" style=""width: 300px; height: 300px;"" />
                   </div>","null","0","0","blank","",""
"","","","","","html-keyboard-response","185","952702","0.0-149.0","E8454A56D9AC4EA0ABBBFB0320FBD547","0199d5f7-c89b-7def-866a-dfccdbd18905","0199d5ef-c7d4-7cab-a194-b2c3afbaf8e8","","null","<div style=""display: flex; justify-content: center; align-items: center;"">
                     <img src=""images/causal/causal_series_2/causal_series_2_a.png"" style=""width: 300px; height: 300px;"" />
                   </div>","null","2","2","A","",""
"","","","","","html-keyboard-response","186","958715","0.0-150.0","E8454A56D9AC4EA0ABBBFB0320FBD547","0199d5f7-c89b-7def-866a-dfccdbd18905","0199d5ef-c7d4-7cab-a194-b2c3afbaf8e8","","null","<div style=""display: flex; justify-content: center; align-items: center;"">
                     <img src=""images/causal/causal_series_2/causal_series_2_b.png"" style=""width: 300px; height: 300px;"" />
                   </div>","null","2","2","B","",""
"","","","","","html-keyboard-response","187","964724","0.0-151.0","E8454A56D9AC4EA0ABBBFB0320FBD547","0199d5f7-c89b-7def-866a-dfccdbd18905","0199d5ef-c7d4-7cab-a194-b2c3afbaf8e8","","null","<div style=""display: flex; justify-content: center; align-items: center;"">
                     <img src=""images/causal/causal_series_2/causal_series_2_c.png"" style=""width: 300px; height: 300px;"" />
                   </div>","null","2","2","C","",""
"","","","","","html-button-response","188","965737","0.0-152.0","E8454A56D9AC4EA0ABBBFB0320FBD547","0199d5f7-c89b-7def-866a-dfccdbd18905","0199d5ef-c7d4-7cab-a194-b2c3afbaf8e8","","1009","
        <div style=""display: flex; justify-content: center; align-items: center;"">
          <img src=""images/red_deck_2.png"" style=""width: 300px; height: 300px; margin-right: 10px;"" />
          <img src=""images/blue_deck_1.png"" style=""width: 300px; height: 300px;"" />
        </div>","1","2","2","choice","1",""
"","","","","","html-keyboard-response","189","971743","0.0-153.0-1.0-0.0","E8454A56D9AC4EA0ABBBFB0320FBD547","0199d5f7-c89b-7def-866a-dfccdbd18905","0199d5ef-c7d4-7cab-a194-b2c3afbaf8e8","","null","<div style=""display: flex; justify-content: center; align-items: center;"">
                     <img src=""images/semantic/semantic_series_2/semantic_series_2_d.png"" style=""width: 300px; height: 300px;"" />
                   </div>","null","2","2","D","",""
"","","","","","html-keyboard-response","190","977750","0.0-153.0-1.0-1.0","E8454A56D9AC4EA0ABBBFB0320FBD547","0199d5f7-c89b-7def-866a-dfccdbd18905","0199d5ef-c7d4-7cab-a194-b2c3afbaf8e8","","null","<div style=""display: flex; justify-content: center; align-items: center;"">
                     <img src=""images/semantic/semantic_series_2/semantic_series_2_e.png"" style=""width: 300px; height: 300px;"" />
                   </div>","null","2","2","E","",""
"","","","","","html-keyboard-response","191","983753","0.0-153.0-1.0-2.0","E8454A56D9AC4EA0ABBBFB0320FBD547","0199d5f7-c89b-7def-866a-dfccdbd18905","0199d5ef-c7d4-7cab-a194-b2c3afbaf8e8","","null","<div style=""display: flex; justify-content: center; align-items: center;"">
                     <img src=""images/semantic/semantic_series_2/semantic_series_2_f.png"" style=""width: 300px; height: 300px;"" />
                   </div>","null","2","2","F","",""
"","","","","","survey-likert","192","986667","0.0-154.0","E8454A56D9AC4EA0ABBBFB0320FBD547","0199d5f7-c89b-7def-866a-dfccdbd18905","0199d5ef-c7d4-7cab-a194-b2c3afbaf8e8","","2911","","{""Q0"":0}","2","2","surprise_rating","","[0]"
"","","","","","survey-likert","193","988361","0.0-155.0","E8454A56D9AC4EA0ABBBFB0320FBD547","0199d5f7-c89b-7def-866a-dfccdbd18905","0199d5ef-c7d4-7cab-a194-b2c3afbaf8e8","","1691","","{""Q0"":1}","2","2","enjoyment_rating","","[0]"
"","","","","","html-keyboard-response","194","994370","0.0-156.0","E8454A56D9AC4EA0ABBBFB0320FBD547","0199d5f7-c89b-7def-866a-dfccdbd18905","0199d5ef-c7d4-7cab-a194-b2c3afbaf8e8","","null","<div style=""display: flex; justify-content: center; align-items: center;"">
                     <img src=""images/other/blank.png"" style=""width: 300px; height: 300px;"" />
                   </div>","null","0","0","blank","",""
"","","","","","html-keyboard-response","195","1000377","0.0-157.0","E8454A56D9AC4EA0ABBBFB0320FBD547","0199d5f7-c89b-7def-866a-dfccdbd18905","0199d5ef-c7d4-7cab-a194-b2c3afbaf8e8","","null","<div style=""display: flex; justify-content: center; align-items: center;"">
                     <img src=""images/causal/causal_series_5/causal_series_5_a.png"" style=""width: 300px; height: 300px;"" />
                   </div>","null","5","1","A","",""
"","","","","","html-keyboard-response","196","1006385","0.0-158.0","E8454A56D9AC4EA0ABBBFB0320FBD547","0199d5f7-c89b-7def-866a-dfccdbd18905","0199d5ef-c7d4-7cab-a194-b2c3afbaf8e8","","null","<div style=""display: flex; justify-content: center; align-items: center;"">
                     <img src=""images/causal/causal_series_5/causal_series_5_b.png"" style=""width: 300px; height: 300px;"" />
                   </div>","null","5","1","B","",""
"","","","","","html-keyboard-response","197","1012394","0.0-159.0","E8454A56D9AC4EA0ABBBFB0320FBD547","0199d5f7-c89b-7def-866a-dfccdbd18905","0199d5ef-c7d4-7cab-a194-b2c3afbaf8e8","","null","<div style=""display: flex; justify-content: center; align-items: center;"">
                     <img src=""images/causal/causal_series_5/causal_series_5_c.png"" style=""width: 300px; height: 300px;"" />
                   </div>","null","5","1","C","",""
"","","","","","html-button-response","198","1013217","0.0-160.0","E8454A56D9AC4EA0ABBBFB0320FBD547","0199d5f7-c89b-7def-866a-dfccdbd18905","0199d5ef-c7d4-7cab-a194-b2c3afbaf8e8","","819","
        <div style=""display: flex; justify-content: center; align-items: center;"">
          <img src=""images/red_deck_2.png"" style=""width: 300px; height: 300px; margin-right: 10px;"" />
          <img src=""images/blue_deck_1.png"" style=""width: 300px; height: 300px;"" />
        </div>","0","5","1","choice","0",""
"","","","","","html-keyboard-response","199","1019222","0.0-161.0-0.0-0.0","E8454A56D9AC4EA0ABBBFB0320FBD547","0199d5f7-c89b-7def-866a-dfccdbd18905","0199d5ef-c7d4-7cab-a194-b2c3afbaf8e8","","null","<div style=""display: flex; justify-content: center; align-items: center;"">
                     <img src=""images/causal/causal_series_5/causal_series_5_d.png"" style=""width: 300px; height: 300px;"" />
                   </div>","null","5","1","D","",""
"","","","","","html-keyboard-response","200","1025238","0.0-161.0-0.0-1.0","E8454A56D9AC4EA0ABBBFB0320FBD547","0199d5f7-c89b-7def-866a-dfccdbd18905","0199d5ef-c7d4-7cab-a194-b2c3afbaf8e8","","null","<div style=""display: flex; justify-content: center; align-items: center;"">
                     <img src=""images/causal/causal_series_5/causal_series_5_e.png"" style=""width: 300px; height: 300px;"" />
                   </div>","null","5","1","E","",""
"","","","","","html-keyboard-response","201","1031245","0.0-161.0-0.0-2.0","E8454A56D9AC4EA0ABBBFB0320FBD547","0199d5f7-c89b-7def-866a-dfccdbd18905","0199d5ef-c7d4-7cab-a194-b2c3afbaf8e8","","null","<div style=""display: flex; justify-content: center; align-items: center;"">
                     <img src=""images/causal/causal_series_5/causal_series_5_f.png"" style=""width: 300px; height: 300px;"" />
                   </div>","null","5","1","F","",""
"","","","","","survey-likert","202","1033146","0.0-162.0","E8454A56D9AC4EA0ABBBFB0320FBD547","0199d5f7-c89b-7def-866a-dfccdbd18905","0199d5ef-c7d4-7cab-a194-b2c3afbaf8e8","","1898","","{""Q0"":0}","5","1","surprise_rating","","[0]"
"","","","","","survey-likert","203","1034530","0.0-163.0","E8454A56D9AC4EA0ABBBFB0320FBD547","0199d5f7-c89b-7def-866a-dfccdbd18905","0199d5ef-c7d4-7cab-a194-b2c3afbaf8e8","","1381","","{""Q0"":3}","5","1","enjoyment_rating","","[0]"
"","","","","","html-keyboard-response","204","1040544","0.0-164.0","E8454A56D9AC4EA0ABBBFB0320FBD547","0199d5f7-c89b-7def-866a-dfccdbd18905","0199d5ef-c7d4-7cab-a194-b2c3afbaf8e8","","null","<div style=""display: flex; justify-content: center; align-items: center;"">
                     <img src=""images/other/blank.png"" style=""width: 300px; height: 300px;"" />
                   </div>","null","0","0","blank","",""
"","","","","","survey-text","205","1053385","0.0-165.0","E8454A56D9AC4EA0ABBBFB0320FBD547","0199d5f7-c89b-7def-866a-dfccdbd18905","0199d5ef-c7d4-7cab-a194-b2c3afbaf8e8","","12823","","{""Q0"":""One was red and one was blue""}","","","","",""
"","","","","","html-button-response","206","1062825","0.0-166.0","E8454A56D9AC4EA0ABBBFB0320FBD547","0199d5f7-c89b-7def-866a-dfccdbd18905","0199d5ef-c7d4-7cab-a194-b2c3afbaf8e8","","9436","Which color deck do the following sentences continue the story from?","0","","","","",""
"","","","","","html-button-response","207","1067160","0.0-167.0","E8454A56D9AC4EA0ABBBFB0320FBD547","0199d5f7-c89b-7def-866a-dfccdbd18905","0199d5ef-c7d4-7cab-a194-b2c3afbaf8e8","","4331","Which color deck do the following sentences NOT follow the story from?","1","","","","",""
"","","","","","html-button-response","208","1070065","0.0-168.0","E8454A56D9AC4EA0ABBBFB0320FBD547","0199d5f7-c89b-7def-866a-dfccdbd18905","0199d5ef-c7d4-7cab-a194-b2c3afbaf8e8","","2901","Which type of deck did you prefer overall?","1","","","","",""
"","","","","","survey-text","209","1080674","0.0-169.0","E8454A56D9AC4EA0ABBBFB0320FBD547","0199d5f7-c89b-7def-866a-dfccdbd18905","0199d5ef-c7d4-7cab-a194-b2c3afbaf8e8","","10596","","{""Q0"":""FEMALE"",""Q1"":""35""}","","","","",""
"","","","","","instructions","210","1093303","0.0-170.0","E8454A56D9AC4EA0ABBBFB0320FBD547","0199d5f7-c89b-7def-866a-dfccdbd18905","0199d5ef-c7d4-7cab-a194-b2c3afbaf8e8","[{""page_index"":0,""viewing_time"":12625}]","12626","","","","","","",""
