"success","timeout","failed_images","failed_audio","failed_video","trial_type","trial_index","time_elapsed","internal_node_id","subject_id","study_id","session_id","view_history","rt","stimulus","response","choice"
"true","false","[]","[]","[]","preload","0","1539","0.0-0.0","108BB196E33C4BED99F120EDD3055E60","9daf6f49-536e-4bed-9235-9f8069c7426a","683bf07d-1a26-40b1-9cff-5abdc1eed0ee","","","","",""
"","","","","","instructions","1","5718","0.0-1.0","108BB196E33C4BED99F120EDD3055E60","9daf6f49-536e-4bed-9235-9f8069c7426a","683bf07d-1a26-40b1-9cff-5abdc1eed0ee","[{""page_index"":0,""viewing_time"":4179}]","4179","","",""
"","","","","","instructions","2","64886","0.0-2.0","108BB196E33C4BED99F120EDD3055E60","9daf6f49-536e-4bed-9235-9f8069c7426a","683bf07d-1a26-40b1-9cff-5abdc1eed0ee","[{""page_index"":0,""viewing_time"":59167}]","59167","","",""
"true","","","","","fullscreen","3","67647","0.0-3.0","108BB196E33C4BED99F120EDD3055E60","9daf6f49-536e-4bed-9235-9f8069c7426a","683bf07d-1a26-40b1-9cff-5abdc1eed0ee","","1759","","",""
"","","","","","instructions","4","76901","0.0-4.0","108BB196E33C4BED99F120EDD3055E60","9daf6f49-536e-4bed-9235-9f8069c7426a","683bf07d-1a26-40b1-9cff-5abdc1eed0ee","[{""page_index"":0,""viewing_time"":9253}]","9254","","",""
"","","","","","html-keyboard-response","5","79904","0.0-5.0","108BB196E33C4BED99F120EDD3055E60","9daf6f49-536e-4bed-9235-9f8069c7426a","683bf07d-1a26-40b1-9cff-5abdc1eed0ee","","null","<div style=""display: flex; justify-content: center; align-items: center;"">
                <img src=""images/causal/causal_series_15/causal_series_15_a.jpg"" style=""width: 300px; height: 300px;"" />
              </div>","null",""
"","","","","","html-keyboard-response","6","82911","0.0-6.0","108BB196E33C4BED99F120EDD3055E60","9daf6f49-536e-4bed-9235-9f8069c7426a","683bf07d-1a26-40b1-9cff-5abdc1eed0ee","","null","<div style=""display: flex; justify-content: center; align-items: center;"">
                <img src=""images/causal/causal_series_15/causal_series_15_b.jpg"" style=""width: 300px; height: 300px;"" />
              </div>","null",""
"","","","","","html-keyboard-response","7","85918","0.0-7.0","108BB196E33C4BED99F120EDD3055E60","9daf6f49-536e-4bed-9235-9f8069c7426a","683bf07d-1a26-40b1-9cff-5abdc1eed0ee","","null","<div style=""display: flex; justify-content: center; align-items: center;"">
                <img src=""images/causal/causal_series_15/causal_series_15_c.jpg"" style=""width: 300px; height: 300px;"" />
              </div>","null",""
"","","","","","html-button-response","8","87535","0.0-8.0","108BB196E33C4BED99F120EDD3055E60","9daf6f49-536e-4bed-9235-9f8069c7426a","683bf07d-1a26-40b1-9cff-5abdc1eed0ee","","1616","
    <div style=""display: flex; justify-content: center; align-items: center;"">
      <img src=""images/red_deck_2.png"" style=""width: 300px; height: 300px; margin-right: 10px;"" />
      <img src=""images/blue_deck_1.png"" style=""width: 300px; height: 300px;"" />
    </div>","1","1"
"","","","","","html-keyboard-response","9","90536","0.0-9.0-1.0-0.0","108BB196E33C4BED99F120EDD3055E60","9daf6f49-536e-4bed-9235-9f8069c7426a","683bf07d-1a26-40b1-9cff-5abdc1eed0ee","","null","<div style=""display: flex; justify-content: center; align-items: center;"">
                <img src=""images/semantic/semantic_series_14/semantic_series_14_d.jpg"" style=""width: 300px; height: 300px;"" />
              </div>","null",""
"","","","","","html-keyboard-response","10","93537","0.0-10.0","108BB196E33C4BED99F120EDD3055E60","9daf6f49-536e-4bed-9235-9f8069c7426a","683bf07d-1a26-40b1-9cff-5abdc1eed0ee","","null","<div style=""display: flex; justify-content: center; align-items: center;"">
                <img src=""images/other/blank.jpg"" style=""width: 300px; height: 300px;"" />
              </div>","null",""
"","","","","","html-keyboard-response","11","96543","0.0-11.0","108BB196E33C4BED99F120EDD3055E60","9daf6f49-536e-4bed-9235-9f8069c7426a","683bf07d-1a26-40b1-9cff-5abdc1eed0ee","","null","<div style=""display: flex; justify-content: center; align-items: center;"">
                <img src=""images/causal/causal_series_17/causal_series_17_a.jpg"" style=""width: 300px; height: 300px;"" />
              </div>","null",""
"","","","","","html-keyboard-response","12","99550","0.0-12.0","108BB196E33C4BED99F120EDD3055E60","9daf6f49-536e-4bed-9235-9f8069c7426a","683bf07d-1a26-40b1-9cff-5abdc1eed0ee","","null","<div style=""display: flex; justify-content: center; align-items: center;"">
                <img src=""images/causal/causal_series_17/causal_series_17_b.jpg"" style=""width: 300px; height: 300px;"" />
              </div>","null",""
"","","","","","html-keyboard-response","13","102557","0.0-13.0","108BB196E33C4BED99F120EDD3055E60","9daf6f49-536e-4bed-9235-9f8069c7426a","683bf07d-1a26-40b1-9cff-5abdc1eed0ee","","null","<div style=""display: flex; justify-content: center; align-items: center;"">
                <img src=""images/causal/causal_series_17/causal_series_17_c.jpg"" style=""width: 300px; height: 300px;"" />
              </div>","null",""
"","","","","","html-button-response","14","103245","0.0-14.0","108BB196E33C4BED99F120EDD3055E60","9daf6f49-536e-4bed-9235-9f8069c7426a","683bf07d-1a26-40b1-9cff-5abdc1eed0ee","","688","
    <div style=""display: flex; justify-content: center; align-items: center;"">
      <img src=""images/red_deck_2.png"" style=""width: 300px; height: 300px; margin-right: 10px;"" />
      <img src=""images/blue_deck_1.png"" style=""width: 300px; height: 300px;"" />
    </div>","0","0"
"","","","","","html-keyboard-response","15","106251","0.0-15.0-0.0-0.0","108BB196E33C4BED99F120EDD3055E60","9daf6f49-536e-4bed-9235-9f8069c7426a","683bf07d-1a26-40b1-9cff-5abdc1eed0ee","","null","<div style=""display: flex; justify-content: center; align-items: center;"">
                <img src=""images/causal/causal_series_17/causal_series_17_d.jpg"" style=""width: 300px; height: 300px;"" />
              </div>","null",""
"","","","","","html-keyboard-response","16","109252","0.0-16.0","108BB196E33C4BED99F120EDD3055E60","9daf6f49-536e-4bed-9235-9f8069c7426a","683bf07d-1a26-40b1-9cff-5abdc1eed0ee","","null","<div style=""display: flex; justify-content: center; align-items: center;"">
                <img src=""images/other/blank.jpg"" style=""width: 300px; height: 300px;"" />
              </div>","null",""
"","","","","","html-keyboard-response","17","112258","0.0-17.0","108BB196E33C4BED99F120EDD3055E60","9daf6f49-536e-4bed-9235-9f8069c7426a","683bf07d-1a26-40b1-9cff-5abdc1eed0ee","","null","<div style=""display: flex; justify-content: center; align-items: center;"">
                <img src=""images/causal/causal_series_7/causal_series_7_a.jpg"" style=""width: 300px; height: 300px;"" />
              </div>","null",""
"","","","","","html-keyboard-response","18","115262","0.0-18.0","108BB196E33C4BED99F120EDD3055E60","9daf6f49-536e-4bed-9235-9f8069c7426a","683bf07d-1a26-40b1-9cff-5abdc1eed0ee","","null","<div style=""display: flex; justify-content: center; align-items: center;"">
                <img src=""images/causal/causal_series_7/causal_series_7_b.jpg"" style=""width: 300px; height: 300px;"" />
              </div>","null",""
"","","","","","html-keyboard-response","19","118262","0.0-19.0","108BB196E33C4BED99F120EDD3055E60","9daf6f49-536e-4bed-9235-9f8069c7426a","683bf07d-1a26-40b1-9cff-5abdc1eed0ee","","null","<div style=""display: flex; justify-content: center; align-items: center;"">
                <img src=""images/causal/causal_series_7/causal_series_7_c.jpg"" style=""width: 300px; height: 300px;"" />
              </div>","null",""
"","","","","","html-button-response","20","119557","0.0-20.0","108BB196E33C4BED99F120EDD3055E60","9daf6f49-536e-4bed-9235-9f8069c7426a","683bf07d-1a26-40b1-9cff-5abdc1eed0ee","","1294","
    <div style=""display: flex; justify-content: center; align-items: center;"">
      <img src=""images/red_deck_2.png"" style=""width: 300px; height: 300px; margin-right: 10px;"" />
      <img src=""images/blue_deck_1.png"" style=""width: 300px; height: 300px;"" />
    </div>","1","1"
"","","","","","html-keyboard-response","21","122563","0.0-21.0-1.0-0.0","108BB196E33C4BED99F120EDD3055E60","9daf6f49-536e-4bed-9235-9f8069c7426a","683bf07d-1a26-40b1-9cff-5abdc1eed0ee","","null","<div style=""display: flex; justify-content: center; align-items: center;"">
                <img src=""images/semantic/semantic_series_6/semantic_series_6_d.jpg"" style=""width: 300px; height: 300px;"" />
              </div>","null",""
"","","","","","html-keyboard-response","22","125565","0.0-22.0","108BB196E33C4BED99F120EDD3055E60","9daf6f49-536e-4bed-9235-9f8069c7426a","683bf07d-1a26-40b1-9cff-5abdc1eed0ee","","null","<div style=""display: flex; justify-content: center; align-items: center;"">
                <img src=""images/other/blank.jpg"" style=""width: 300px; height: 300px;"" />
              </div>","null",""
"","","","","","html-keyboard-response","23","128570","0.0-23.0","108BB196E33C4BED99F120EDD3055E60","9daf6f49-536e-4bed-9235-9f8069c7426a","683bf07d-1a26-40b1-9cff-5abdc1eed0ee","","null","<div style=""display: flex; justify-content: center; align-items: center;"">
                <img src=""images/causal/causal_series_11/causal_series_11_a.jpg"" style=""width: 300px; height: 300px;"" />
              </div>","null",""
"","","","","","html-keyboard-response","24","131572","0.0-24.0","108BB196E33C4BED99F120EDD3055E60","9daf6f49-536e-4bed-9235-9f8069c7426a","683bf07d-1a26-40b1-9cff-5abdc1eed0ee","","null","<div style=""display: flex; justify-content: center; align-items: center;"">
                <img src=""images/causal/causal_series_11/causal_series_11_b.jpg"" style=""width: 300px; height: 300px;"" />
              </div>","null",""
"","","","","","html-keyboard-response","25","134577","0.0-25.0","108BB196E33C4BED99F120EDD3055E60","9daf6f49-536e-4bed-9235-9f8069c7426a","683bf07d-1a26-40b1-9cff-5abdc1eed0ee","","null","<div style=""display: flex; justify-content: center; align-items: center;"">
                <img src=""images/causal/causal_series_11/causal_series_11_c.jpg"" style=""width: 300px; height: 300px;"" />
              </div>","null",""
"","","","","","html-button-response","26","135573","0.0-26.0","108BB196E33C4BED99F120EDD3055E60","9daf6f49-536e-4bed-9235-9f8069c7426a","683bf07d-1a26-40b1-9cff-5abdc1eed0ee","","996","
    <div style=""display: flex; justify-content: center; align-items: center;"">
      <img src=""images/red_deck_2.png"" style=""width: 300px; height: 300px; margin-right: 10px;"" />
      <img src=""images/blue_deck_1.png"" style=""width: 300px; height: 300px;"" />
    </div>","1","1"
"","","","","","html-keyboard-response","27","138577","0.0-27.0-1.0-0.0","108BB196E33C4BED99F120EDD3055E60","9daf6f49-536e-4bed-9235-9f8069c7426a","683bf07d-1a26-40b1-9cff-5abdc1eed0ee","","null","<div style=""display: flex; justify-content: center; align-items: center;"">
                <img src=""images/semantic/semantic_series_10/semantic_series_10_d.jpg"" style=""width: 300px; height: 300px;"" />
              </div>","null",""
"","","","","","html-keyboard-response","28","141584","0.0-28.0","108BB196E33C4BED99F120EDD3055E60","9daf6f49-536e-4bed-9235-9f8069c7426a","683bf07d-1a26-40b1-9cff-5abdc1eed0ee","","null","<div style=""display: flex; justify-content: center; align-items: center;"">
                <img src=""images/other/blank.jpg"" style=""width: 300px; height: 300px;"" />
              </div>","null",""
"","","","","","html-keyboard-response","29","144585","0.0-29.0","108BB196E33C4BED99F120EDD3055E60","9daf6f49-536e-4bed-9235-9f8069c7426a","683bf07d-1a26-40b1-9cff-5abdc1eed0ee","","null","<div style=""display: flex; justify-content: center; align-items: center;"">
                <img src=""images/causal/causal_series_18/causal_series_18_a.jpg"" style=""width: 300px; height: 300px;"" />
              </div>","null",""
"","","","","","html-keyboard-response","30","147591","0.0-30.0","108BB196E33C4BED99F120EDD3055E60","9daf6f49-536e-4bed-9235-9f8069c7426a","683bf07d-1a26-40b1-9cff-5abdc1eed0ee","","null","<div style=""display: flex; justify-content: center; align-items: center;"">
                <img src=""images/causal/causal_series_18/causal_series_18_b.jpg"" style=""width: 300px; height: 300px;"" />
              </div>","null",""
"","","","","","html-keyboard-response","31","150598","0.0-31.0","108BB196E33C4BED99F120EDD3055E60","9daf6f49-536e-4bed-9235-9f8069c7426a","683bf07d-1a26-40b1-9cff-5abdc1eed0ee","","null","<div style=""display: flex; justify-content: center; align-items: center;"">
                <img src=""images/causal/causal_series_18/causal_series_18_c.jpg"" style=""width: 300px; height: 300px;"" />
              </div>","null",""
"","","","","","html-button-response","32","152221","0.0-32.0","108BB196E33C4BED99F120EDD3055E60","9daf6f49-536e-4bed-9235-9f8069c7426a","683bf07d-1a26-40b1-9cff-5abdc1eed0ee","","1622","
    <div style=""display: flex; justify-content: center; align-items: center;"">
      <img src=""images/red_deck_2.png"" style=""width: 300px; height: 300px; margin-right: 10px;"" />
      <img src=""images/blue_deck_1.png"" style=""width: 300px; height: 300px;"" />
    </div>","0","0"
"","","","","","html-keyboard-response","33","155223","0.0-33.0-0.0-0.0","108BB196E33C4BED99F120EDD3055E60","9daf6f49-536e-4bed-9235-9f8069c7426a","683bf07d-1a26-40b1-9cff-5abdc1eed0ee","","null","<div style=""display: flex; justify-content: center; align-items: center;"">
                <img src=""images/causal/causal_series_18/causal_series_18_d.jpg"" style=""width: 300px; height: 300px;"" />
              </div>","null",""
"","","","","","html-keyboard-response","34","158230","0.0-34.0","108BB196E33C4BED99F120EDD3055E60","9daf6f49-536e-4bed-9235-9f8069c7426a","683bf07d-1a26-40b1-9cff-5abdc1eed0ee","","null","<div style=""display: flex; justify-content: center; align-items: center;"">
                <img src=""images/other/blank.jpg"" style=""width: 300px; height: 300px;"" />
              </div>","null",""
"","","","","","html-keyboard-response","35","161237","0.0-35.0","108BB196E33C4BED99F120EDD3055E60","9daf6f49-536e-4bed-9235-9f8069c7426a","683bf07d-1a26-40b1-9cff-5abdc1eed0ee","","null","<div style=""display: flex; justify-content: center; align-items: center;"">
                <img src=""images/causal/causal_series_9/causal_series_9_a.jpg"" style=""width: 300px; height: 300px;"" />
              </div>","null",""
"","","","","","html-keyboard-response","36","164237","0.0-36.0","108BB196E33C4BED99F120EDD3055E60","9daf6f49-536e-4bed-9235-9f8069c7426a","683bf07d-1a26-40b1-9cff-5abdc1eed0ee","","null","<div style=""display: flex; justify-content: center; align-items: center;"">
                <img src=""images/causal/causal_series_9/causal_series_9_b.jpg"" style=""width: 300px; height: 300px;"" />
              </div>","null",""
"","","","","","html-keyboard-response","37","167244","0.0-37.0","108BB196E33C4BED99F120EDD3055E60","9daf6f49-536e-4bed-9235-9f8069c7426a","683bf07d-1a26-40b1-9cff-5abdc1eed0ee","","null","<div style=""display: flex; justify-content: center; align-items: center;"">
                <img src=""images/causal/causal_series_9/causal_series_9_c.jpg"" style=""width: 300px; height: 300px;"" />
              </div>","null",""
"","","","","","html-button-response","38","168605","0.0-38.0","108BB196E33C4BED99F120EDD3055E60","9daf6f49-536e-4bed-9235-9f8069c7426a","683bf07d-1a26-40b1-9cff-5abdc1eed0ee","","1361","
    <div style=""display: flex; justify-content: center; align-items: center;"">
      <img src=""images/red_deck_2.png"" style=""width: 300px; height: 300px; margin-right: 10px;"" />
      <img src=""images/blue_deck_1.png"" style=""width: 300px; height: 300px;"" />
    </div>","1","1"
"","","","","","html-keyboard-response","39","171606","0.0-39.0-1.0-0.0","108BB196E33C4BED99F120EDD3055E60","9daf6f49-536e-4bed-9235-9f8069c7426a","683bf07d-1a26-40b1-9cff-5abdc1eed0ee","","null","<div style=""display: flex; justify-content: center; align-items: center;"">
                <img src=""images/semantic/semantic_series_8/semantic_series_8_d.jpg"" style=""width: 300px; height: 300px;"" />
              </div>","null",""
"","","","","","html-keyboard-response","40","174612","0.0-40.0","108BB196E33C4BED99F120EDD3055E60","9daf6f49-536e-4bed-9235-9f8069c7426a","683bf07d-1a26-40b1-9cff-5abdc1eed0ee","","null","<div style=""display: flex; justify-content: center; align-items: center;"">
                <img src=""images/other/blank.jpg"" style=""width: 300px; height: 300px;"" />
              </div>","null",""
"","","","","","html-keyboard-response","41","177613","0.0-41.0","108BB196E33C4BED99F120EDD3055E60","9daf6f49-536e-4bed-9235-9f8069c7426a","683bf07d-1a26-40b1-9cff-5abdc1eed0ee","","null","<div style=""display: flex; justify-content: center; align-items: center;"">
                <img src=""images/causal/causal_series_2/causal_series_2_a.jpg"" style=""width: 300px; height: 300px;"" />
              </div>","null",""
"","","","","","html-keyboard-response","42","180619","0.0-42.0","108BB196E33C4BED99F120EDD3055E60","9daf6f49-536e-4bed-9235-9f8069c7426a","683bf07d-1a26-40b1-9cff-5abdc1eed0ee","","null","<div style=""display: flex; justify-content: center; align-items: center;"">
                <img src=""images/causal/causal_series_2/causal_series_2_b.jpg"" style=""width: 300px; height: 300px;"" />
              </div>","null",""
"","","","","","html-keyboard-response","43","183626","0.0-43.0","108BB196E33C4BED99F120EDD3055E60","9daf6f49-536e-4bed-9235-9f8069c7426a","683bf07d-1a26-40b1-9cff-5abdc1eed0ee","","null","<div style=""display: flex; justify-content: center; align-items: center;"">
                <img src=""images/causal/causal_series_2/causal_series_2_c.jpg"" style=""width: 300px; height: 300px;"" />
              </div>","null",""
"","","","","","html-button-response","44","185669","0.0-44.0","108BB196E33C4BED99F120EDD3055E60","9daf6f49-536e-4bed-9235-9f8069c7426a","683bf07d-1a26-40b1-9cff-5abdc1eed0ee","","2043","
    <div style=""display: flex; justify-content: center; align-items: center;"">
      <img src=""images/red_deck_2.png"" style=""width: 300px; height: 300px; margin-right: 10px;"" />
      <img src=""images/blue_deck_1.png"" style=""width: 300px; height: 300px;"" />
    </div>","0","0"
"","","","","","html-keyboard-response","45","188675","0.0-45.0-0.0-0.0","108BB196E33C4BED99F120EDD3055E60","9daf6f49-536e-4bed-9235-9f8069c7426a","683bf07d-1a26-40b1-9cff-5abdc1eed0ee","","null","<div style=""display: flex; justify-content: center; align-items: center;"">
                <img src=""images/causal/causal_series_2/causal_series_2_d.jpg"" style=""width: 300px; height: 300px;"" />
              </div>","null",""
"","","","","","html-keyboard-response","46","191681","0.0-46.0","108BB196E33C4BED99F120EDD3055E60","9daf6f49-536e-4bed-9235-9f8069c7426a","683bf07d-1a26-40b1-9cff-5abdc1eed0ee","","null","<div style=""display: flex; justify-content: center; align-items: center;"">
                <img src=""images/other/blank.jpg"" style=""width: 300px; height: 300px;"" />
              </div>","null",""
"","","","","","html-keyboard-response","47","194688","0.0-47.0","108BB196E33C4BED99F120EDD3055E60","9daf6f49-536e-4bed-9235-9f8069c7426a","683bf07d-1a26-40b1-9cff-5abdc1eed0ee","","null","<div style=""display: flex; justify-content: center; align-items: center;"">
                <img src=""images/causal/causal_series_5/causal_series_5_a.jpg"" style=""width: 300px; height: 300px;"" />
              </div>","null",""
"","","","","","html-keyboard-response","48","197689","0.0-48.0","108BB196E33C4BED99F120EDD3055E60","9daf6f49-536e-4bed-9235-9f8069c7426a","683bf07d-1a26-40b1-9cff-5abdc1eed0ee","","null","<div style=""display: flex; justify-content: center; align-items: center;"">
                <img src=""images/causal/causal_series_5/causal_series_5_b.jpg"" style=""width: 300px; height: 300px;"" />
              </div>","null",""
"","","","","","html-keyboard-response","49","200695","0.0-49.0","108BB196E33C4BED99F120EDD3055E60","9daf6f49-536e-4bed-9235-9f8069c7426a","683bf07d-1a26-40b1-9cff-5abdc1eed0ee","","null","<div style=""display: flex; justify-content: center; align-items: center;"">
                <img src=""images/causal/causal_series_5/causal_series_5_c.jpg"" style=""width: 300px; height: 300px;"" />
              </div>","null",""
"","","","","","html-button-response","50","203037","0.0-50.0","108BB196E33C4BED99F120EDD3055E60","9daf6f49-536e-4bed-9235-9f8069c7426a","683bf07d-1a26-40b1-9cff-5abdc1eed0ee","","2341","
    <div style=""display: flex; justify-content: center; align-items: center;"">
      <img src=""images/red_deck_2.png"" style=""width: 300px; height: 300px; margin-right: 10px;"" />
      <img src=""images/blue_deck_1.png"" style=""width: 300px; height: 300px;"" />
    </div>","0","0"
"","","","","","html-keyboard-response","51","206042","0.0-51.0-0.0-0.0","108BB196E33C4BED99F120EDD3055E60","9daf6f49-536e-4bed-9235-9f8069c7426a","683bf07d-1a26-40b1-9cff-5abdc1eed0ee","","null","<div style=""display: flex; justify-content: center; align-items: center;"">
                <img src=""images/causal/causal_series_5/causal_series_5_d.jpg"" style=""width: 300px; height: 300px;"" />
              </div>","null",""
"","","","","","html-keyboard-response","52","209049","0.0-52.0","108BB196E33C4BED99F120EDD3055E60","9daf6f49-536e-4bed-9235-9f8069c7426a","683bf07d-1a26-40b1-9cff-5abdc1eed0ee","","null","<div style=""display: flex; justify-content: center; align-items: center;"">
                <img src=""images/other/blank.jpg"" style=""width: 300px; height: 300px;"" />
              </div>","null",""
"","","","","","html-keyboard-response","53","212051","0.0-53.0","108BB196E33C4BED99F120EDD3055E60","9daf6f49-536e-4bed-9235-9f8069c7426a","683bf07d-1a26-40b1-9cff-5abdc1eed0ee","","null","<div style=""display: flex; justify-content: center; align-items: center;"">
                <img src=""images/causal/causal_series_1/causal_series_1_a.jpg"" style=""width: 300px; height: 300px;"" />
              </div>","null",""
"","","","","","html-keyboard-response","54","215056","0.0-54.0","108BB196E33C4BED99F120EDD3055E60","9daf6f49-536e-4bed-9235-9f8069c7426a","683bf07d-1a26-40b1-9cff-5abdc1eed0ee","","null","<div style=""display: flex; justify-content: center; align-items: center;"">
                <img src=""images/causal/causal_series_1/causal_series_1_b.jpg"" style=""width: 300px; height: 300px;"" />
              </div>","null",""
"","","","","","html-keyboard-response","55","218063","0.0-55.0","108BB196E33C4BED99F120EDD3055E60","9daf6f49-536e-4bed-9235-9f8069c7426a","683bf07d-1a26-40b1-9cff-5abdc1eed0ee","","null","<div style=""display: flex; justify-content: center; align-items: center;"">
                <img src=""images/causal/causal_series_1/causal_series_1_c.jpg"" style=""width: 300px; height: 300px;"" />
              </div>","null",""
"","","","","","html-button-response","56","219621","0.0-56.0","108BB196E33C4BED99F120EDD3055E60","9daf6f49-536e-4bed-9235-9f8069c7426a","683bf07d-1a26-40b1-9cff-5abdc1eed0ee","","1557","
    <div style=""display: flex; justify-content: center; align-items: center;"">
      <img src=""images/red_deck_2.png"" style=""width: 300px; height: 300px; margin-right: 10px;"" />
      <img src=""images/blue_deck_1.png"" style=""width: 300px; height: 300px;"" />
    </div>","0","0"
"","","","","","html-keyboard-response","57","222626","0.0-57.0-0.0-0.0","108BB196E33C4BED99F120EDD3055E60","9daf6f49-536e-4bed-9235-9f8069c7426a","683bf07d-1a26-40b1-9cff-5abdc1eed0ee","","null","<div style=""display: flex; justify-content: center; align-items: center;"">
                <img src=""images/causal/causal_series_1/causal_series_1_d.jpg"" style=""width: 300px; height: 300px;"" />
              </div>","null",""
"","","","","","html-keyboard-response","58","225629","0.0-58.0","108BB196E33C4BED99F120EDD3055E60","9daf6f49-536e-4bed-9235-9f8069c7426a","683bf07d-1a26-40b1-9cff-5abdc1eed0ee","","null","<div style=""display: flex; justify-content: center; align-items: center;"">
                <img src=""images/other/blank.jpg"" style=""width: 300px; height: 300px;"" />
              </div>","null",""
"","","","","","html-keyboard-response","59","228633","0.0-59.0","108BB196E33C4BED99F120EDD3055E60","9daf6f49-536e-4bed-9235-9f8069c7426a","683bf07d-1a26-40b1-9cff-5abdc1eed0ee","","null","<div style=""display: flex; justify-content: center; align-items: center;"">
                <img src=""images/causal/causal_series_16/causal_series_16_a.jpg"" style=""width: 300px; height: 300px;"" />
              </div>","null",""
"","","","","","html-keyboard-response","60","231640","0.0-60.0","108BB196E33C4BED99F120EDD3055E60","9daf6f49-536e-4bed-9235-9f8069c7426a","683bf07d-1a26-40b1-9cff-5abdc1eed0ee","","null","<div style=""display: flex; justify-content: center; align-items: center;"">
                <img src=""images/causal/causal_series_16/causal_series_16_b.jpg"" style=""width: 300px; height: 300px;"" />
              </div>","null",""
"","","","","","html-keyboard-response","61","234647","0.0-61.0","108BB196E33C4BED99F120EDD3055E60","9daf6f49-536e-4bed-9235-9f8069c7426a","683bf07d-1a26-40b1-9cff-5abdc1eed0ee","","null","<div style=""display: flex; justify-content: center; align-items: center;"">
                <img src=""images/causal/causal_series_16/causal_series_16_c.jpg"" style=""width: 300px; height: 300px;"" />
              </div>","null",""
"","","","","","html-button-response","62","235581","0.0-62.0","108BB196E33C4BED99F120EDD3055E60","9daf6f49-536e-4bed-9235-9f8069c7426a","683bf07d-1a26-40b1-9cff-5abdc1eed0ee","","934","
    <div style=""display: flex; justify-content: center; align-items: center;"">
      <img src=""images/red_deck_2.png"" style=""width: 300px; height: 300px; margin-right: 10px;"" />
      <img src=""images/blue_deck_1.png"" style=""width: 300px; height: 300px;"" />
    </div>","0","0"
"","","","","","html-keyboard-response","63","238583","0.0-63.0-0.0-0.0","108BB196E33C4BED99F120EDD3055E60","9daf6f49-536e-4bed-9235-9f8069c7426a","683bf07d-1a26-40b1-9cff-5abdc1eed0ee","","null","<div style=""display: flex; justify-content: center; align-items: center;"">
                <img src=""images/causal/causal_series_16/causal_series_16_d.jpg"" style=""width: 300px; height: 300px;"" />
              </div>","null",""
"","","","","","html-keyboard-response","64","241584","0.0-64.0","108BB196E33C4BED99F120EDD3055E60","9daf6f49-536e-4bed-9235-9f8069c7426a","683bf07d-1a26-40b1-9cff-5abdc1eed0ee","","null","<div style=""display: flex; justify-content: center; align-items: center;"">
                <img src=""images/other/blank.jpg"" style=""width: 300px; height: 300px;"" />
              </div>","null",""
"","","","","","html-keyboard-response","65","244591","0.0-65.0","108BB196E33C4BED99F120EDD3055E60","9daf6f49-536e-4bed-9235-9f8069c7426a","683bf07d-1a26-40b1-9cff-5abdc1eed0ee","","null","<div style=""display: flex; justify-content: center; align-items: center;"">
                <img src=""images/causal/causal_series_12/causal_series_12_a.jpg"" style=""width: 300px; height: 300px;"" />
              </div>","null",""
"","","","","","html-keyboard-response","66","247598","0.0-66.0","108BB196E33C4BED99F120EDD3055E60","9daf6f49-536e-4bed-9235-9f8069c7426a","683bf07d-1a26-40b1-9cff-5abdc1eed0ee","","null","<div style=""display: flex; justify-content: center; align-items: center;"">
                <img src=""images/causal/causal_series_12/causal_series_12_b.jpg"" style=""width: 300px; height: 300px;"" />
              </div>","null",""
"","","","","","html-keyboard-response","67","250606","0.0-67.0","108BB196E33C4BED99F120EDD3055E60","9daf6f49-536e-4bed-9235-9f8069c7426a","683bf07d-1a26-40b1-9cff-5abdc1eed0ee","","null","<div style=""display: flex; justify-content: center; align-items: center;"">
                <img src=""images/causal/causal_series_12/causal_series_12_c.jpg"" style=""width: 300px; height: 300px;"" />
              </div>","null",""
"","","","","","html-button-response","68","251493","0.0-68.0","108BB196E33C4BED99F120EDD3055E60","9daf6f49-536e-4bed-9235-9f8069c7426a","683bf07d-1a26-40b1-9cff-5abdc1eed0ee","","887","
    <div style=""display: flex; justify-content: center; align-items: center;"">
      <img src=""images/red_deck_2.png"" style=""width: 300px; height: 300px; margin-right: 10px;"" />
      <img src=""images/blue_deck_1.png"" style=""width: 300px; height: 300px;"" />
    </div>","1","1"
"","","","","","html-keyboard-response","69","254494","0.0-69.0-1.0-0.0","108BB196E33C4BED99F120EDD3055E60","9daf6f49-536e-4bed-9235-9f8069c7426a","683bf07d-1a26-40b1-9cff-5abdc1eed0ee","","null","<div style=""display: flex; justify-content: center; align-items: center;"">
                <img src=""images/semantic/semantic_series_11/semantic_series_11_d.jpg"" style=""width: 300px; height: 300px;"" />
              </div>","null",""
"","","","","","html-keyboard-response","70","257501","0.0-70.0","108BB196E33C4BED99F120EDD3055E60","9daf6f49-536e-4bed-9235-9f8069c7426a","683bf07d-1a26-40b1-9cff-5abdc1eed0ee","","null","<div style=""display: flex; justify-content: center; align-items: center;"">
                <img src=""images/other/blank.jpg"" style=""width: 300px; height: 300px;"" />
              </div>","null",""
"","","","","","html-keyboard-response","71","260508","0.0-71.0","108BB196E33C4BED99F120EDD3055E60","9daf6f49-536e-4bed-9235-9f8069c7426a","683bf07d-1a26-40b1-9cff-5abdc1eed0ee","","null","<div style=""display: flex; justify-content: center; align-items: center;"">
                <img src=""images/causal/causal_series_6/causal_series_6_a.jpg"" style=""width: 300px; height: 300px;"" />
              </div>","null",""
"","","","","","html-keyboard-response","72","263509","0.0-72.0","108BB196E33C4BED99F120EDD3055E60","9daf6f49-536e-4bed-9235-9f8069c7426a","683bf07d-1a26-40b1-9cff-5abdc1eed0ee","","null","<div style=""display: flex; justify-content: center; align-items: center;"">
                <img src=""images/causal/causal_series_6/causal_series_6_b.jpg"" style=""width: 300px; height: 300px;"" />
              </div>","null",""
"","","","","","html-keyboard-response","73","266515","0.0-73.0","108BB196E33C4BED99F120EDD3055E60","9daf6f49-536e-4bed-9235-9f8069c7426a","683bf07d-1a26-40b1-9cff-5abdc1eed0ee","","null","<div style=""display: flex; justify-content: center; align-items: center;"">
                <img src=""images/causal/causal_series_6/causal_series_6_c.jpg"" style=""width: 300px; height: 300px;"" />
              </div>","null",""
"","","","","","html-button-response","74","267278","0.0-74.0","108BB196E33C4BED99F120EDD3055E60","9daf6f49-536e-4bed-9235-9f8069c7426a","683bf07d-1a26-40b1-9cff-5abdc1eed0ee","","762","
    <div style=""display: flex; justify-content: center; align-items: center;"">
      <img src=""images/red_deck_2.png"" style=""width: 300px; height: 300px; margin-right: 10px;"" />
      <img src=""images/blue_deck_1.png"" style=""width: 300px; height: 300px;"" />
    </div>","1","1"
"","","","","","html-keyboard-response","75","270279","0.0-75.0-1.0-0.0","108BB196E33C4BED99F120EDD3055E60","9daf6f49-536e-4bed-9235-9f8069c7426a","683bf07d-1a26-40b1-9cff-5abdc1eed0ee","","null","<div style=""display: flex; justify-content: center; align-items: center;"">
                <img src=""images/semantic/semantic_series_5/semantic_series_5_d.jpg"" style=""width: 300px; height: 300px;"" />
              </div>","null",""
"","","","","","html-keyboard-response","76","273280","0.0-76.0","108BB196E33C4BED99F120EDD3055E60","9daf6f49-536e-4bed-9235-9f8069c7426a","683bf07d-1a26-40b1-9cff-5abdc1eed0ee","","null","<div style=""display: flex; justify-content: center; align-items: center;"">
                <img src=""images/other/blank.jpg"" style=""width: 300px; height: 300px;"" />
              </div>","null",""
"","","","","","html-keyboard-response","77","276285","0.0-77.0","108BB196E33C4BED99F120EDD3055E60","9daf6f49-536e-4bed-9235-9f8069c7426a","683bf07d-1a26-40b1-9cff-5abdc1eed0ee","","null","<div style=""display: flex; justify-content: center; align-items: center;"">
                <img src=""images/causal/causal_series_4/causal_series_4_a.jpg"" style=""width: 300px; height: 300px;"" />
              </div>","null",""
"","","","","","html-keyboard-response","78","279286","0.0-78.0","108BB196E33C4BED99F120EDD3055E60","9daf6f49-536e-4bed-9235-9f8069c7426a","683bf07d-1a26-40b1-9cff-5abdc1eed0ee","","null","<div style=""display: flex; justify-content: center; align-items: center;"">
                <img src=""images/causal/causal_series_4/causal_series_4_b.jpg"" style=""width: 300px; height: 300px;"" />
              </div>","null",""
"","","","","","html-keyboard-response","79","282293","0.0-79.0","108BB196E33C4BED99F120EDD3055E60","9daf6f49-536e-4bed-9235-9f8069c7426a","683bf07d-1a26-40b1-9cff-5abdc1eed0ee","","null","<div style=""display: flex; justify-content: center; align-items: center;"">
                <img src=""images/causal/causal_series_4/causal_series_4_c.jpg"" style=""width: 300px; height: 300px;"" />
              </div>","null",""
"","","","","","html-button-response","80","283973","0.0-80.0","108BB196E33C4BED99F120EDD3055E60","9daf6f49-536e-4bed-9235-9f8069c7426a","683bf07d-1a26-40b1-9cff-5abdc1eed0ee","","1680","
    <div style=""display: flex; justify-content: center; align-items: center;"">
      <img src=""images/red_deck_2.png"" style=""width: 300px; height: 300px; margin-right: 10px;"" />
      <img src=""images/blue_deck_1.png"" style=""width: 300px; height: 300px;"" />
    </div>","0","0"
"","","","","","html-keyboard-response","81","286980","0.0-81.0-0.0-0.0","108BB196E33C4BED99F120EDD3055E60","9daf6f49-536e-4bed-9235-9f8069c7426a","683bf07d-1a26-40b1-9cff-5abdc1eed0ee","","null","<div style=""display: flex; justify-content: center; align-items: center;"">
                <img src=""images/causal/causal_series_4/causal_series_4_d.jpg"" style=""width: 300px; height: 300px;"" />
              </div>","null",""
"","","","","","html-keyboard-response","82","289987","0.0-82.0","108BB196E33C4BED99F120EDD3055E60","9daf6f49-536e-4bed-9235-9f8069c7426a","683bf07d-1a26-40b1-9cff-5abdc1eed0ee","","null","<div style=""display: flex; justify-content: center; align-items: center;"">
                <img src=""images/other/blank.jpg"" style=""width: 300px; height: 300px;"" />
              </div>","null",""
"","","","","","html-keyboard-response","83","292994","0.0-83.0","108BB196E33C4BED99F120EDD3055E60","9daf6f49-536e-4bed-9235-9f8069c7426a","683bf07d-1a26-40b1-9cff-5abdc1eed0ee","","null","<div style=""display: flex; justify-content: center; align-items: center;"">
                <img src=""images/causal/causal_series_13/causal_series_13_a.jpg"" style=""width: 300px; height: 300px;"" />
              </div>","null",""
"","","","","","html-keyboard-response","84","295995","0.0-84.0","108BB196E33C4BED99F120EDD3055E60","9daf6f49-536e-4bed-9235-9f8069c7426a","683bf07d-1a26-40b1-9cff-5abdc1eed0ee","","null","<div style=""display: flex; justify-content: center; align-items: center;"">
                <img src=""images/causal/causal_series_13/causal_series_13_b.jpg"" style=""width: 300px; height: 300px;"" />
              </div>","null",""
"","","","","","html-keyboard-response","85","299001","0.0-85.0","108BB196E33C4BED99F120EDD3055E60","9daf6f49-536e-4bed-9235-9f8069c7426a","683bf07d-1a26-40b1-9cff-5abdc1eed0ee","","null","<div style=""display: flex; justify-content: center; align-items: center;"">
                <img src=""images/causal/causal_series_13/causal_series_13_c.jpg"" style=""width: 300px; height: 300px;"" />
              </div>","null",""
"","","","","","html-button-response","86","299861","0.0-86.0","108BB196E33C4BED99F120EDD3055E60","9daf6f49-536e-4bed-9235-9f8069c7426a","683bf07d-1a26-40b1-9cff-5abdc1eed0ee","","860","
    <div style=""display: flex; justify-content: center; align-items: center;"">
      <img src=""images/red_deck_2.png"" style=""width: 300px; height: 300px; margin-right: 10px;"" />
      <img src=""images/blue_deck_1.png"" style=""width: 300px; height: 300px;"" />
    </div>","1","1"
"","","","","","html-keyboard-response","87","302862","0.0-87.0-1.0-0.0","108BB196E33C4BED99F120EDD3055E60","9daf6f49-536e-4bed-9235-9f8069c7426a","683bf07d-1a26-40b1-9cff-5abdc1eed0ee","","null","<div style=""display: flex; justify-content: center; align-items: center;"">
                <img src=""images/semantic/semantic_series_12/semantic_series_12_d.jpg"" style=""width: 300px; height: 300px;"" />
              </div>","null",""
"","","","","","html-keyboard-response","88","305869","0.0-88.0","108BB196E33C4BED99F120EDD3055E60","9daf6f49-536e-4bed-9235-9f8069c7426a","683bf07d-1a26-40b1-9cff-5abdc1eed0ee","","null","<div style=""display: flex; justify-content: center; align-items: center;"">
                <img src=""images/other/blank.jpg"" style=""width: 300px; height: 300px;"" />
              </div>","null",""
"","","","","","html-keyboard-response","89","308876","0.0-89.0","108BB196E33C4BED99F120EDD3055E60","9daf6f49-536e-4bed-9235-9f8069c7426a","683bf07d-1a26-40b1-9cff-5abdc1eed0ee","","null","<div style=""display: flex; justify-content: center; align-items: center;"">
                <img src=""images/causal/causal_series_10/causal_series_10_a.jpg"" style=""width: 300px; height: 300px;"" />
              </div>","null",""
"","","","","","html-keyboard-response","90","311883","0.0-90.0","108BB196E33C4BED99F120EDD3055E60","9daf6f49-536e-4bed-9235-9f8069c7426a","683bf07d-1a26-40b1-9cff-5abdc1eed0ee","","null","<div style=""display: flex; justify-content: center; align-items: center;"">
                <img src=""images/causal/causal_series_10/causal_series_10_b.jpg"" style=""width: 300px; height: 300px;"" />
              </div>","null",""
"","","","","","html-keyboard-response","91","314890","0.0-91.0","108BB196E33C4BED99F120EDD3055E60","9daf6f49-536e-4bed-9235-9f8069c7426a","683bf07d-1a26-40b1-9cff-5abdc1eed0ee","","null","<div style=""display: flex; justify-content: center; align-items: center;"">
                <img src=""images/causal/causal_series_10/causal_series_10_c.jpg"" style=""width: 300px; height: 300px;"" />
              </div>","null",""
"","","","","","html-button-response","92","316837","0.0-92.0","108BB196E33C4BED99F120EDD3055E60","9daf6f49-536e-4bed-9235-9f8069c7426a","683bf07d-1a26-40b1-9cff-5abdc1eed0ee","","1946","
    <div style=""display: flex; justify-content: center; align-items: center;"">
      <img src=""images/red_deck_2.png"" style=""width: 300px; height: 300px; margin-right: 10px;"" />
      <img src=""images/blue_deck_1.png"" style=""width: 300px; height: 300px;"" />
    </div>","0","0"
"","","","","","html-keyboard-response","93","319842","0.0-93.0-0.0-0.0","108BB196E33C4BED99F120EDD3055E60","9daf6f49-536e-4bed-9235-9f8069c7426a","683bf07d-1a26-40b1-9cff-5abdc1eed0ee","","null","<div style=""display: flex; justify-content: center; align-items: center;"">
                <img src=""images/causal/causal_series_10/causal_series_10_d.jpg"" style=""width: 300px; height: 300px;"" />
              </div>","null",""
"","","","","","html-keyboard-response","94","322848","0.0-94.0","108BB196E33C4BED99F120EDD3055E60","9daf6f49-536e-4bed-9235-9f8069c7426a","683bf07d-1a26-40b1-9cff-5abdc1eed0ee","","null","<div style=""display: flex; justify-content: center; align-items: center;"">
                <img src=""images/other/blank.jpg"" style=""width: 300px; height: 300px;"" />
              </div>","null",""
"","","","","","html-keyboard-response","95","325855","0.0-95.0","108BB196E33C4BED99F120EDD3055E60","9daf6f49-536e-4bed-9235-9f8069c7426a","683bf07d-1a26-40b1-9cff-5abdc1eed0ee","","null","<div style=""display: flex; justify-content: center; align-items: center;"">
                <img src=""images/causal/causal_series_8/causal_series_8_a.jpg"" style=""width: 300px; height: 300px;"" />
              </div>","null",""
"","","","","","html-keyboard-response","96","328862","0.0-96.0","108BB196E33C4BED99F120EDD3055E60","9daf6f49-536e-4bed-9235-9f8069c7426a","683bf07d-1a26-40b1-9cff-5abdc1eed0ee","","null","<div style=""display: flex; justify-content: center; align-items: center;"">
                <img src=""images/causal/causal_series_8/causal_series_8_b.jpg"" style=""width: 300px; height: 300px;"" />
              </div>","null",""
"","","","","","html-keyboard-response","97","331863","0.0-97.0","108BB196E33C4BED99F120EDD3055E60","9daf6f49-536e-4bed-9235-9f8069c7426a","683bf07d-1a26-40b1-9cff-5abdc1eed0ee","","null","<div style=""display: flex; justify-content: center; align-items: center;"">
                <img src=""images/causal/causal_series_8/causal_series_8_c.jpg"" style=""width: 300px; height: 300px;"" />
              </div>","null",""
"","","","","","html-button-response","98","332517","0.0-98.0","108BB196E33C4BED99F120EDD3055E60","9daf6f49-536e-4bed-9235-9f8069c7426a","683bf07d-1a26-40b1-9cff-5abdc1eed0ee","","654","
    <div style=""display: flex; justify-content: center; align-items: center;"">
      <img src=""images/red_deck_2.png"" style=""width: 300px; height: 300px; margin-right: 10px;"" />
      <img src=""images/blue_deck_1.png"" style=""width: 300px; height: 300px;"" />
    </div>","1","1"
"","","","","","html-keyboard-response","99","335521","0.0-99.0-1.0-0.0","108BB196E33C4BED99F120EDD3055E60","9daf6f49-536e-4bed-9235-9f8069c7426a","683bf07d-1a26-40b1-9cff-5abdc1eed0ee","","null","<div style=""display: flex; justify-content: center; align-items: center;"">
                <img src=""images/semantic/semantic_series_7/semantic_series_7_d.jpg"" style=""width: 300px; height: 300px;"" />
              </div>","null",""
"","","","","","html-keyboard-response","100","338522","0.0-100.0","108BB196E33C4BED99F120EDD3055E60","9daf6f49-536e-4bed-9235-9f8069c7426a","683bf07d-1a26-40b1-9cff-5abdc1eed0ee","","null","<div style=""display: flex; justify-content: center; align-items: center;"">
                <img src=""images/other/blank.jpg"" style=""width: 300px; height: 300px;"" />
              </div>","null",""
"","","","","","html-keyboard-response","101","341528","0.0-101.0","108BB196E33C4BED99F120EDD3055E60","9daf6f49-536e-4bed-9235-9f8069c7426a","683bf07d-1a26-40b1-9cff-5abdc1eed0ee","","null","<div style=""display: flex; justify-content: center; align-items: center;"">
                <img src=""images/causal/causal_series_3/causal_series_3_a.jpg"" style=""width: 300px; height: 300px;"" />
              </div>","null",""
"","","","","","html-keyboard-response","102","344529","0.0-102.0","108BB196E33C4BED99F120EDD3055E60","9daf6f49-536e-4bed-9235-9f8069c7426a","683bf07d-1a26-40b1-9cff-5abdc1eed0ee","","null","<div style=""display: flex; justify-content: center; align-items: center;"">
                <img src=""images/causal/causal_series_3/causal_series_3_b.jpg"" style=""width: 300px; height: 300px;"" />
              </div>","null",""
"","","","","","html-keyboard-response","103","347530","0.0-103.0","108BB196E33C4BED99F120EDD3055E60","9daf6f49-536e-4bed-9235-9f8069c7426a","683bf07d-1a26-40b1-9cff-5abdc1eed0ee","","null","<div style=""display: flex; justify-content: center; align-items: center;"">
                <img src=""images/causal/causal_series_3/causal_series_3_c.jpg"" style=""width: 300px; height: 300px;"" />
              </div>","null",""
"","","","","","html-button-response","104","348598","0.0-104.0","108BB196E33C4BED99F120EDD3055E60","9daf6f49-536e-4bed-9235-9f8069c7426a","683bf07d-1a26-40b1-9cff-5abdc1eed0ee","","1067","
    <div style=""display: flex; justify-content: center; align-items: center;"">
      <img src=""images/red_deck_2.png"" style=""width: 300px; height: 300px; margin-right: 10px;"" />
      <img src=""images/blue_deck_1.png"" style=""width: 300px; height: 300px;"" />
    </div>","0","0"
"","","","","","html-keyboard-response","105","351605","0.0-105.0-0.0-0.0","108BB196E33C4BED99F120EDD3055E60","9daf6f49-536e-4bed-9235-9f8069c7426a","683bf07d-1a26-40b1-9cff-5abdc1eed0ee","","null","<div style=""display: flex; justify-content: center; align-items: center;"">
                <img src=""images/causal/causal_series_3/causal_series_3_d.jpg"" style=""width: 300px; height: 300px;"" />
              </div>","null",""
"","","","","","html-keyboard-response","106","354606","0.0-106.0","108BB196E33C4BED99F120EDD3055E60","9daf6f49-536e-4bed-9235-9f8069c7426a","683bf07d-1a26-40b1-9cff-5abdc1eed0ee","","null","<div style=""display: flex; justify-content: center; align-items: center;"">
                <img src=""images/other/blank.jpg"" style=""width: 300px; height: 300px;"" />
              </div>","null",""
"","","","","","html-keyboard-response","107","357612","0.0-107.0","108BB196E33C4BED99F120EDD3055E60","9daf6f49-536e-4bed-9235-9f8069c7426a","683bf07d-1a26-40b1-9cff-5abdc1eed0ee","","null","<div style=""display: flex; justify-content: center; align-items: center;"">
                <img src=""images/causal/causal_series_14/causal_series_14_a.jpg"" style=""width: 300px; height: 300px;"" />
              </div>","null",""
"","","","","","html-keyboard-response","108","360612","0.0-108.0","108BB196E33C4BED99F120EDD3055E60","9daf6f49-536e-4bed-9235-9f8069c7426a","683bf07d-1a26-40b1-9cff-5abdc1eed0ee","","null","<div style=""display: flex; justify-content: center; align-items: center;"">
                <img src=""images/causal/causal_series_14/causal_series_14_b.jpg"" style=""width: 300px; height: 300px;"" />
              </div>","null",""
"","","","","","html-keyboard-response","109","363613","0.0-109.0","108BB196E33C4BED99F120EDD3055E60","9daf6f49-536e-4bed-9235-9f8069c7426a","683bf07d-1a26-40b1-9cff-5abdc1eed0ee","","null","<div style=""display: flex; justify-content: center; align-items: center;"">
                <img src=""images/causal/causal_series_14/causal_series_14_c.jpg"" style=""width: 300px; height: 300px;"" />
              </div>","null",""
"","","","","","html-button-response","110","364501","0.0-110.0","108BB196E33C4BED99F120EDD3055E60","9daf6f49-536e-4bed-9235-9f8069c7426a","683bf07d-1a26-40b1-9cff-5abdc1eed0ee","","888","
    <div style=""display: flex; justify-content: center; align-items: center;"">
      <img src=""images/red_deck_2.png"" style=""width: 300px; height: 300px; margin-right: 10px;"" />
      <img src=""images/blue_deck_1.png"" style=""width: 300px; height: 300px;"" />
    </div>","1","1"
"","","","","","html-keyboard-response","111","367507","0.0-111.0-1.0-0.0","108BB196E33C4BED99F120EDD3055E60","9daf6f49-536e-4bed-9235-9f8069c7426a","683bf07d-1a26-40b1-9cff-5abdc1eed0ee","","null","<div style=""display: flex; justify-content: center; align-items: center;"">
                <img src=""images/semantic/semantic_series_13/semantic_series_13_d.jpg"" style=""width: 300px; height: 300px;"" />
              </div>","null",""
"","","","","","html-keyboard-response","112","370508","0.0-112.0","108BB196E33C4BED99F120EDD3055E60","9daf6f49-536e-4bed-9235-9f8069c7426a","683bf07d-1a26-40b1-9cff-5abdc1eed0ee","","null","<div style=""display: flex; justify-content: center; align-items: center;"">
                <img src=""images/other/blank.jpg"" style=""width: 300px; height: 300px;"" />
              </div>","null",""
"","","","","","survey-text","113","387062","0.0-113.0","108BB196E33C4BED99F120EDD3055E60","9daf6f49-536e-4bed-9235-9f8069c7426a","683bf07d-1a26-40b1-9cff-5abdc1eed0ee","","16550","","{""Q0"":""The color is different, one is red, and one is blue.""}",""
"","","","","","survey-text","114","405637","0.0-114.0","108BB196E33C4BED99F120EDD3055E60","9daf6f49-536e-4bed-9235-9f8069c7426a","683bf07d-1a26-40b1-9cff-5abdc1eed0ee","","18573","","{""Q0"":""Neither deck was interesting""}",""
"","","","","","html-button-response","115","418317","0.0-115.0","108BB196E33C4BED99F120EDD3055E60","9daf6f49-536e-4bed-9235-9f8069c7426a","683bf07d-1a26-40b1-9cff-5abdc1eed0ee","","12679","Which color deck does the fourth image continue the story from the series?","1",""
"","","","","","html-button-response","116","423445","0.0-116.0","108BB196E33C4BED99F120EDD3055E60","9daf6f49-536e-4bed-9235-9f8069c7426a","683bf07d-1a26-40b1-9cff-5abdc1eed0ee","","5128","Which color deck does the fourth image not follow the story from the series?","0",""
"","","","","","survey-text","117","429637","0.0-117.0","108BB196E33C4BED99F120EDD3055E60","9daf6f49-536e-4bed-9235-9f8069c7426a","683bf07d-1a26-40b1-9cff-5abdc1eed0ee","","6188","","{""Q0"":""female"",""Q1"":""26""}",""
"","","","","","instructions","118","434277","0.0-118.0","108BB196E33C4BED99F120EDD3055E60","9daf6f49-536e-4bed-9235-9f8069c7426a","683bf07d-1a26-40b1-9cff-5abdc1eed0ee","[{""page_index"":0,""viewing_time"":4639}]","4639","","",""
