"success","timeout","failed_images","failed_audio","failed_video","trial_type","trial_index","time_elapsed","internal_node_id","subject_id","study_id","session_id","view_history","rt","stimulus","response","choice"
"true","false","[]","[]","[]","preload","0","2524","0.0-0.0","0D5F27DF00A943C283A57A5D7355DF88","010e2f80-909e-4786-8162-981c971108e5","61e1ec61-13c7-4a8f-bf47-a91ec9909364","","","","",""
"","","","","","instructions","1","48353","0.0-1.0","0D5F27DF00A943C283A57A5D7355DF88","010e2f80-909e-4786-8162-981c971108e5","61e1ec61-13c7-4a8f-bf47-a91ec9909364","[{""page_index"":0,""viewing_time"":45828}]","45828","","",""
"","","","","","instructions","2","50611","0.0-2.0","0D5F27DF00A943C283A57A5D7355DF88","010e2f80-909e-4786-8162-981c971108e5","61e1ec61-13c7-4a8f-bf47-a91ec9909364","[{""page_index"":0,""viewing_time"":2257}]","2257","","",""
"true","","","","","fullscreen","3","52881","0.0-3.0","0D5F27DF00A943C283A57A5D7355DF88","010e2f80-909e-4786-8162-981c971108e5","61e1ec61-13c7-4a8f-bf47-a91ec9909364","","1254","","",""
"","","","","","instructions","4","71747","0.0-4.0","0D5F27DF00A943C283A57A5D7355DF88","010e2f80-909e-4786-8162-981c971108e5","61e1ec61-13c7-4a8f-bf47-a91ec9909364","[{""page_index"":0,""viewing_time"":18867}]","18867","","",""
"","","","","","html-keyboard-response","5","74760","0.0-5.0","0D5F27DF00A943C283A57A5D7355DF88","010e2f80-909e-4786-8162-981c971108e5","61e1ec61-13c7-4a8f-bf47-a91ec9909364","","null","<div style=""display: flex; justify-content: center; align-items: center;"">
                <img src=""images/causal/causal_series_14/causal_series_14_a.jpg"" style=""width: 300px; height: 300px;"" />
              </div>","null",""
"","","","","","html-keyboard-response","6","77775","0.0-6.0","0D5F27DF00A943C283A57A5D7355DF88","010e2f80-909e-4786-8162-981c971108e5","61e1ec61-13c7-4a8f-bf47-a91ec9909364","","null","<div style=""display: flex; justify-content: center; align-items: center;"">
                <img src=""images/causal/causal_series_14/causal_series_14_b.jpg"" style=""width: 300px; height: 300px;"" />
              </div>","null",""
"","","","","","html-keyboard-response","7","80788","0.0-7.0","0D5F27DF00A943C283A57A5D7355DF88","010e2f80-909e-4786-8162-981c971108e5","61e1ec61-13c7-4a8f-bf47-a91ec9909364","","null","<div style=""display: flex; justify-content: center; align-items: center;"">
                <img src=""images/causal/causal_series_14/causal_series_14_c.jpg"" style=""width: 300px; height: 300px;"" />
              </div>","null",""
"","","","","","html-button-response","8","83733","0.0-8.0","0D5F27DF00A943C283A57A5D7355DF88","010e2f80-909e-4786-8162-981c971108e5","61e1ec61-13c7-4a8f-bf47-a91ec9909364","","2945","
    <div style=""display: flex; justify-content: center; align-items: center;"">
      <img src=""images/red_deck_2.png"" style=""width: 300px; height: 300px; margin-right: 10px;"" />
      <img src=""images/blue_deck_1.png"" style=""width: 300px; height: 300px;"" />
    </div>","0","0"
"","","","","","html-keyboard-response","9","86752","0.0-9.0-0.0-0.0","0D5F27DF00A943C283A57A5D7355DF88","010e2f80-909e-4786-8162-981c971108e5","61e1ec61-13c7-4a8f-bf47-a91ec9909364","","null","<div style=""display: flex; justify-content: center; align-items: center;"">
                <img src=""images/causal/causal_series_14/causal_series_14_d.jpg"" style=""width: 300px; height: 300px;"" />
              </div>","null",""
"","","","","","html-keyboard-response","10","89806","0.0-10.0","0D5F27DF00A943C283A57A5D7355DF88","010e2f80-909e-4786-8162-981c971108e5","61e1ec61-13c7-4a8f-bf47-a91ec9909364","","null","<div style=""display: flex; justify-content: center; align-items: center;"">
                <img src=""images/other/blank.jpg"" style=""width: 300px; height: 300px;"" />
              </div>","null",""
"","","","","","html-keyboard-response","11","92826","0.0-11.0","0D5F27DF00A943C283A57A5D7355DF88","010e2f80-909e-4786-8162-981c971108e5","61e1ec61-13c7-4a8f-bf47-a91ec9909364","","null","<div style=""display: flex; justify-content: center; align-items: center;"">
                <img src=""images/causal/causal_series_11/causal_series_11_a.jpg"" style=""width: 300px; height: 300px;"" />
              </div>","null",""
"","","","","","html-keyboard-response","12","95828","0.0-12.0","0D5F27DF00A943C283A57A5D7355DF88","010e2f80-909e-4786-8162-981c971108e5","61e1ec61-13c7-4a8f-bf47-a91ec9909364","","null","<div style=""display: flex; justify-content: center; align-items: center;"">
                <img src=""images/causal/causal_series_11/causal_series_11_b.jpg"" style=""width: 300px; height: 300px;"" />
              </div>","null",""
"","","","","","html-keyboard-response","13","98832","0.0-13.0","0D5F27DF00A943C283A57A5D7355DF88","010e2f80-909e-4786-8162-981c971108e5","61e1ec61-13c7-4a8f-bf47-a91ec9909364","","null","<div style=""display: flex; justify-content: center; align-items: center;"">
                <img src=""images/causal/causal_series_11/causal_series_11_c.jpg"" style=""width: 300px; height: 300px;"" />
              </div>","null",""
"","","","","","html-button-response","14","100910","0.0-14.0","0D5F27DF00A943C283A57A5D7355DF88","010e2f80-909e-4786-8162-981c971108e5","61e1ec61-13c7-4a8f-bf47-a91ec9909364","","2077","
    <div style=""display: flex; justify-content: center; align-items: center;"">
      <img src=""images/red_deck_2.png"" style=""width: 300px; height: 300px; margin-right: 10px;"" />
      <img src=""images/blue_deck_1.png"" style=""width: 300px; height: 300px;"" />
    </div>","1","1"
"","","","","","html-keyboard-response","15","103912","0.0-15.0-1.0-0.0","0D5F27DF00A943C283A57A5D7355DF88","010e2f80-909e-4786-8162-981c971108e5","61e1ec61-13c7-4a8f-bf47-a91ec9909364","","null","<div style=""display: flex; justify-content: center; align-items: center;"">
                <img src=""images/semantic/semantic_series_10/semantic_series_10_d.jpg"" style=""width: 300px; height: 300px;"" />
              </div>","null",""
"","","","","","html-keyboard-response","16","106919","0.0-16.0","0D5F27DF00A943C283A57A5D7355DF88","010e2f80-909e-4786-8162-981c971108e5","61e1ec61-13c7-4a8f-bf47-a91ec9909364","","null","<div style=""display: flex; justify-content: center; align-items: center;"">
                <img src=""images/other/blank.jpg"" style=""width: 300px; height: 300px;"" />
              </div>","null",""
"","","","","","html-keyboard-response","17","109920","0.0-17.0","0D5F27DF00A943C283A57A5D7355DF88","010e2f80-909e-4786-8162-981c971108e5","61e1ec61-13c7-4a8f-bf47-a91ec9909364","","null","<div style=""display: flex; justify-content: center; align-items: center;"">
                <img src=""images/causal/causal_series_16/causal_series_16_a.jpg"" style=""width: 300px; height: 300px;"" />
              </div>","null",""
"","","","","","html-keyboard-response","18","112934","0.0-18.0","0D5F27DF00A943C283A57A5D7355DF88","010e2f80-909e-4786-8162-981c971108e5","61e1ec61-13c7-4a8f-bf47-a91ec9909364","","null","<div style=""display: flex; justify-content: center; align-items: center;"">
                <img src=""images/causal/causal_series_16/causal_series_16_b.jpg"" style=""width: 300px; height: 300px;"" />
              </div>","null",""
"","","","","","html-keyboard-response","19","115945","0.0-19.0","0D5F27DF00A943C283A57A5D7355DF88","010e2f80-909e-4786-8162-981c971108e5","61e1ec61-13c7-4a8f-bf47-a91ec9909364","","null","<div style=""display: flex; justify-content: center; align-items: center;"">
                <img src=""images/causal/causal_series_16/causal_series_16_c.jpg"" style=""width: 300px; height: 300px;"" />
              </div>","null",""
"","","","","","html-button-response","20","117513","0.0-20.0","0D5F27DF00A943C283A57A5D7355DF88","010e2f80-909e-4786-8162-981c971108e5","61e1ec61-13c7-4a8f-bf47-a91ec9909364","","1568","
    <div style=""display: flex; justify-content: center; align-items: center;"">
      <img src=""images/red_deck_2.png"" style=""width: 300px; height: 300px; margin-right: 10px;"" />
      <img src=""images/blue_deck_1.png"" style=""width: 300px; height: 300px;"" />
    </div>","0","0"
"","","","","","html-keyboard-response","21","120521","0.0-21.0-0.0-0.0","0D5F27DF00A943C283A57A5D7355DF88","010e2f80-909e-4786-8162-981c971108e5","61e1ec61-13c7-4a8f-bf47-a91ec9909364","","null","<div style=""display: flex; justify-content: center; align-items: center;"">
                <img src=""images/causal/causal_series_16/causal_series_16_d.jpg"" style=""width: 300px; height: 300px;"" />
              </div>","null",""
"","","","","","html-keyboard-response","22","123522","0.0-22.0","0D5F27DF00A943C283A57A5D7355DF88","010e2f80-909e-4786-8162-981c971108e5","61e1ec61-13c7-4a8f-bf47-a91ec9909364","","null","<div style=""display: flex; justify-content: center; align-items: center;"">
                <img src=""images/other/blank.jpg"" style=""width: 300px; height: 300px;"" />
              </div>","null",""
"","","","","","html-keyboard-response","23","126531","0.0-23.0","0D5F27DF00A943C283A57A5D7355DF88","010e2f80-909e-4786-8162-981c971108e5","61e1ec61-13c7-4a8f-bf47-a91ec9909364","","null","<div style=""display: flex; justify-content: center; align-items: center;"">
                <img src=""images/causal/causal_series_7/causal_series_7_a.jpg"" style=""width: 300px; height: 300px;"" />
              </div>","null",""
"","","","","","html-keyboard-response","24","129536","0.0-24.0","0D5F27DF00A943C283A57A5D7355DF88","010e2f80-909e-4786-8162-981c971108e5","61e1ec61-13c7-4a8f-bf47-a91ec9909364","","null","<div style=""display: flex; justify-content: center; align-items: center;"">
                <img src=""images/causal/causal_series_7/causal_series_7_b.jpg"" style=""width: 300px; height: 300px;"" />
              </div>","null",""
"","","","","","html-keyboard-response","25","132541","0.0-25.0","0D5F27DF00A943C283A57A5D7355DF88","010e2f80-909e-4786-8162-981c971108e5","61e1ec61-13c7-4a8f-bf47-a91ec9909364","","null","<div style=""display: flex; justify-content: center; align-items: center;"">
                <img src=""images/causal/causal_series_7/causal_series_7_c.jpg"" style=""width: 300px; height: 300px;"" />
              </div>","null",""
"","","","","","html-button-response","26","134878","0.0-26.0","0D5F27DF00A943C283A57A5D7355DF88","010e2f80-909e-4786-8162-981c971108e5","61e1ec61-13c7-4a8f-bf47-a91ec9909364","","2335","
    <div style=""display: flex; justify-content: center; align-items: center;"">
      <img src=""images/red_deck_2.png"" style=""width: 300px; height: 300px; margin-right: 10px;"" />
      <img src=""images/blue_deck_1.png"" style=""width: 300px; height: 300px;"" />
    </div>","0","0"
"","","","","","html-keyboard-response","27","137892","0.0-27.0-0.0-0.0","0D5F27DF00A943C283A57A5D7355DF88","010e2f80-909e-4786-8162-981c971108e5","61e1ec61-13c7-4a8f-bf47-a91ec9909364","","null","<div style=""display: flex; justify-content: center; align-items: center;"">
                <img src=""images/causal/causal_series_7/causal_series_7_d.jpg"" style=""width: 300px; height: 300px;"" />
              </div>","null",""
"","","","","","html-keyboard-response","28","140905","0.0-28.0","0D5F27DF00A943C283A57A5D7355DF88","010e2f80-909e-4786-8162-981c971108e5","61e1ec61-13c7-4a8f-bf47-a91ec9909364","","null","<div style=""display: flex; justify-content: center; align-items: center;"">
                <img src=""images/other/blank.jpg"" style=""width: 300px; height: 300px;"" />
              </div>","null",""
"","","","","","html-keyboard-response","29","143909","0.0-29.0","0D5F27DF00A943C283A57A5D7355DF88","010e2f80-909e-4786-8162-981c971108e5","61e1ec61-13c7-4a8f-bf47-a91ec9909364","","null","<div style=""display: flex; justify-content: center; align-items: center;"">
                <img src=""images/causal/causal_series_4/causal_series_4_a.jpg"" style=""width: 300px; height: 300px;"" />
              </div>","null",""
"","","","","","html-keyboard-response","30","146923","0.0-30.0","0D5F27DF00A943C283A57A5D7355DF88","010e2f80-909e-4786-8162-981c971108e5","61e1ec61-13c7-4a8f-bf47-a91ec9909364","","null","<div style=""display: flex; justify-content: center; align-items: center;"">
                <img src=""images/causal/causal_series_4/causal_series_4_b.jpg"" style=""width: 300px; height: 300px;"" />
              </div>","null",""
"","","","","","html-keyboard-response","31","149938","0.0-31.0","0D5F27DF00A943C283A57A5D7355DF88","010e2f80-909e-4786-8162-981c971108e5","61e1ec61-13c7-4a8f-bf47-a91ec9909364","","null","<div style=""display: flex; justify-content: center; align-items: center;"">
                <img src=""images/causal/causal_series_4/causal_series_4_c.jpg"" style=""width: 300px; height: 300px;"" />
              </div>","null",""
"","","","","","html-button-response","32","151136","0.0-32.0","0D5F27DF00A943C283A57A5D7355DF88","010e2f80-909e-4786-8162-981c971108e5","61e1ec61-13c7-4a8f-bf47-a91ec9909364","","1198","
    <div style=""display: flex; justify-content: center; align-items: center;"">
      <img src=""images/red_deck_2.png"" style=""width: 300px; height: 300px; margin-right: 10px;"" />
      <img src=""images/blue_deck_1.png"" style=""width: 300px; height: 300px;"" />
    </div>","1","1"
"","","","","","html-keyboard-response","33","154152","0.0-33.0-1.0-0.0","0D5F27DF00A943C283A57A5D7355DF88","010e2f80-909e-4786-8162-981c971108e5","61e1ec61-13c7-4a8f-bf47-a91ec9909364","","null","<div style=""display: flex; justify-content: center; align-items: center;"">
                <img src=""images/semantic/semantic_series_3/semantic_series_3_d.jpg"" style=""width: 300px; height: 300px;"" />
              </div>","null",""
"","","","","","html-keyboard-response","34","157156","0.0-34.0","0D5F27DF00A943C283A57A5D7355DF88","010e2f80-909e-4786-8162-981c971108e5","61e1ec61-13c7-4a8f-bf47-a91ec9909364","","null","<div style=""display: flex; justify-content: center; align-items: center;"">
                <img src=""images/other/blank.jpg"" style=""width: 300px; height: 300px;"" />
              </div>","null",""
"","","","","","html-keyboard-response","35","160159","0.0-35.0","0D5F27DF00A943C283A57A5D7355DF88","010e2f80-909e-4786-8162-981c971108e5","61e1ec61-13c7-4a8f-bf47-a91ec9909364","","null","<div style=""display: flex; justify-content: center; align-items: center;"">
                <img src=""images/causal/causal_series_1/causal_series_1_a.jpg"" style=""width: 300px; height: 300px;"" />
              </div>","null",""
"","","","","","html-keyboard-response","36","163285","0.0-36.0","0D5F27DF00A943C283A57A5D7355DF88","010e2f80-909e-4786-8162-981c971108e5","61e1ec61-13c7-4a8f-bf47-a91ec9909364","","null","<div style=""display: flex; justify-content: center; align-items: center;"">
                <img src=""images/causal/causal_series_1/causal_series_1_b.jpg"" style=""width: 300px; height: 300px;"" />
              </div>","null",""
"","","","","","html-keyboard-response","37","166291","0.0-37.0","0D5F27DF00A943C283A57A5D7355DF88","010e2f80-909e-4786-8162-981c971108e5","61e1ec61-13c7-4a8f-bf47-a91ec9909364","","null","<div style=""display: flex; justify-content: center; align-items: center;"">
                <img src=""images/causal/causal_series_1/causal_series_1_c.jpg"" style=""width: 300px; height: 300px;"" />
              </div>","null",""
"","","","","","html-button-response","38","167450","0.0-38.0","0D5F27DF00A943C283A57A5D7355DF88","010e2f80-909e-4786-8162-981c971108e5","61e1ec61-13c7-4a8f-bf47-a91ec9909364","","1157","
    <div style=""display: flex; justify-content: center; align-items: center;"">
      <img src=""images/red_deck_2.png"" style=""width: 300px; height: 300px; margin-right: 10px;"" />
      <img src=""images/blue_deck_1.png"" style=""width: 300px; height: 300px;"" />
    </div>","0","0"
"","","","","","html-keyboard-response","39","170459","0.0-39.0-0.0-0.0","0D5F27DF00A943C283A57A5D7355DF88","010e2f80-909e-4786-8162-981c971108e5","61e1ec61-13c7-4a8f-bf47-a91ec9909364","","null","<div style=""display: flex; justify-content: center; align-items: center;"">
                <img src=""images/causal/causal_series_1/causal_series_1_d.jpg"" style=""width: 300px; height: 300px;"" />
              </div>","null",""
"","","","","","html-keyboard-response","40","173471","0.0-40.0","0D5F27DF00A943C283A57A5D7355DF88","010e2f80-909e-4786-8162-981c971108e5","61e1ec61-13c7-4a8f-bf47-a91ec9909364","","null","<div style=""display: flex; justify-content: center; align-items: center;"">
                <img src=""images/other/blank.jpg"" style=""width: 300px; height: 300px;"" />
              </div>","null",""
"","","","","","html-keyboard-response","41","176475","0.0-41.0","0D5F27DF00A943C283A57A5D7355DF88","010e2f80-909e-4786-8162-981c971108e5","61e1ec61-13c7-4a8f-bf47-a91ec9909364","","null","<div style=""display: flex; justify-content: center; align-items: center;"">
                <img src=""images/causal/causal_series_5/causal_series_5_a.jpg"" style=""width: 300px; height: 300px;"" />
              </div>","null",""
"","","","","","html-keyboard-response","42","179486","0.0-42.0","0D5F27DF00A943C283A57A5D7355DF88","010e2f80-909e-4786-8162-981c971108e5","61e1ec61-13c7-4a8f-bf47-a91ec9909364","","null","<div style=""display: flex; justify-content: center; align-items: center;"">
                <img src=""images/causal/causal_series_5/causal_series_5_b.jpg"" style=""width: 300px; height: 300px;"" />
              </div>","null",""
"","","","","","html-keyboard-response","43","182696","0.0-43.0","0D5F27DF00A943C283A57A5D7355DF88","010e2f80-909e-4786-8162-981c971108e5","61e1ec61-13c7-4a8f-bf47-a91ec9909364","","null","<div style=""display: flex; justify-content: center; align-items: center;"">
                <img src=""images/causal/causal_series_5/causal_series_5_c.jpg"" style=""width: 300px; height: 300px;"" />
              </div>","null",""
"","","","","","html-button-response","44","183733","0.0-44.0","0D5F27DF00A943C283A57A5D7355DF88","010e2f80-909e-4786-8162-981c971108e5","61e1ec61-13c7-4a8f-bf47-a91ec9909364","","1036","
    <div style=""display: flex; justify-content: center; align-items: center;"">
      <img src=""images/red_deck_2.png"" style=""width: 300px; height: 300px; margin-right: 10px;"" />
      <img src=""images/blue_deck_1.png"" style=""width: 300px; height: 300px;"" />
    </div>","0","0"
"","","","","","html-keyboard-response","45","186737","0.0-45.0-0.0-0.0","0D5F27DF00A943C283A57A5D7355DF88","010e2f80-909e-4786-8162-981c971108e5","61e1ec61-13c7-4a8f-bf47-a91ec9909364","","null","<div style=""display: flex; justify-content: center; align-items: center;"">
                <img src=""images/causal/causal_series_5/causal_series_5_d.jpg"" style=""width: 300px; height: 300px;"" />
              </div>","null",""
"","","","","","html-keyboard-response","46","189738","0.0-46.0","0D5F27DF00A943C283A57A5D7355DF88","010e2f80-909e-4786-8162-981c971108e5","61e1ec61-13c7-4a8f-bf47-a91ec9909364","","null","<div style=""display: flex; justify-content: center; align-items: center;"">
                <img src=""images/other/blank.jpg"" style=""width: 300px; height: 300px;"" />
              </div>","null",""
"","","","","","html-keyboard-response","47","192741","0.0-47.0","0D5F27DF00A943C283A57A5D7355DF88","010e2f80-909e-4786-8162-981c971108e5","61e1ec61-13c7-4a8f-bf47-a91ec9909364","","null","<div style=""display: flex; justify-content: center; align-items: center;"">
                <img src=""images/causal/causal_series_6/causal_series_6_a.jpg"" style=""width: 300px; height: 300px;"" />
              </div>","null",""
"","","","","","html-keyboard-response","48","195747","0.0-48.0","0D5F27DF00A943C283A57A5D7355DF88","010e2f80-909e-4786-8162-981c971108e5","61e1ec61-13c7-4a8f-bf47-a91ec9909364","","null","<div style=""display: flex; justify-content: center; align-items: center;"">
                <img src=""images/causal/causal_series_6/causal_series_6_b.jpg"" style=""width: 300px; height: 300px;"" />
              </div>","null",""
"","","","","","html-keyboard-response","49","198750","0.0-49.0","0D5F27DF00A943C283A57A5D7355DF88","010e2f80-909e-4786-8162-981c971108e5","61e1ec61-13c7-4a8f-bf47-a91ec9909364","","null","<div style=""display: flex; justify-content: center; align-items: center;"">
                <img src=""images/causal/causal_series_6/causal_series_6_c.jpg"" style=""width: 300px; height: 300px;"" />
              </div>","null",""
"","","","","","html-button-response","50","201043","0.0-50.0","0D5F27DF00A943C283A57A5D7355DF88","010e2f80-909e-4786-8162-981c971108e5","61e1ec61-13c7-4a8f-bf47-a91ec9909364","","2294","
    <div style=""display: flex; justify-content: center; align-items: center;"">
      <img src=""images/red_deck_2.png"" style=""width: 300px; height: 300px; margin-right: 10px;"" />
      <img src=""images/blue_deck_1.png"" style=""width: 300px; height: 300px;"" />
    </div>","1","1"
"","","","","","html-keyboard-response","51","204055","0.0-51.0-1.0-0.0","0D5F27DF00A943C283A57A5D7355DF88","010e2f80-909e-4786-8162-981c971108e5","61e1ec61-13c7-4a8f-bf47-a91ec9909364","","null","<div style=""display: flex; justify-content: center; align-items: center;"">
                <img src=""images/semantic/semantic_series_5/semantic_series_5_d.jpg"" style=""width: 300px; height: 300px;"" />
              </div>","null",""
"","","","","","html-keyboard-response","52","207059","0.0-52.0","0D5F27DF00A943C283A57A5D7355DF88","010e2f80-909e-4786-8162-981c971108e5","61e1ec61-13c7-4a8f-bf47-a91ec9909364","","null","<div style=""display: flex; justify-content: center; align-items: center;"">
                <img src=""images/other/blank.jpg"" style=""width: 300px; height: 300px;"" />
              </div>","null",""
"","","","","","html-keyboard-response","53","210072","0.0-53.0","0D5F27DF00A943C283A57A5D7355DF88","010e2f80-909e-4786-8162-981c971108e5","61e1ec61-13c7-4a8f-bf47-a91ec9909364","","null","<div style=""display: flex; justify-content: center; align-items: center;"">
                <img src=""images/causal/causal_series_3/causal_series_3_a.jpg"" style=""width: 300px; height: 300px;"" />
              </div>","null",""
"","","","","","html-keyboard-response","54","213083","0.0-54.0","0D5F27DF00A943C283A57A5D7355DF88","010e2f80-909e-4786-8162-981c971108e5","61e1ec61-13c7-4a8f-bf47-a91ec9909364","","null","<div style=""display: flex; justify-content: center; align-items: center;"">
                <img src=""images/causal/causal_series_3/causal_series_3_b.jpg"" style=""width: 300px; height: 300px;"" />
              </div>","null",""
"","","","","","html-keyboard-response","55","216092","0.0-55.0","0D5F27DF00A943C283A57A5D7355DF88","010e2f80-909e-4786-8162-981c971108e5","61e1ec61-13c7-4a8f-bf47-a91ec9909364","","null","<div style=""display: flex; justify-content: center; align-items: center;"">
                <img src=""images/causal/causal_series_3/causal_series_3_c.jpg"" style=""width: 300px; height: 300px;"" />
              </div>","null",""
"","","","","","html-button-response","56","217296","0.0-56.0","0D5F27DF00A943C283A57A5D7355DF88","010e2f80-909e-4786-8162-981c971108e5","61e1ec61-13c7-4a8f-bf47-a91ec9909364","","1204","
    <div style=""display: flex; justify-content: center; align-items: center;"">
      <img src=""images/red_deck_2.png"" style=""width: 300px; height: 300px; margin-right: 10px;"" />
      <img src=""images/blue_deck_1.png"" style=""width: 300px; height: 300px;"" />
    </div>","1","1"
"","","","","","html-keyboard-response","57","220359","0.0-57.0-1.0-0.0","0D5F27DF00A943C283A57A5D7355DF88","010e2f80-909e-4786-8162-981c971108e5","61e1ec61-13c7-4a8f-bf47-a91ec9909364","","null","<div style=""display: flex; justify-content: center; align-items: center;"">
                <img src=""images/semantic/semantic_series_2/semantic_series_2_d.jpg"" style=""width: 300px; height: 300px;"" />
              </div>","null",""
"","","","","","html-keyboard-response","58","223374","0.0-58.0","0D5F27DF00A943C283A57A5D7355DF88","010e2f80-909e-4786-8162-981c971108e5","61e1ec61-13c7-4a8f-bf47-a91ec9909364","","null","<div style=""display: flex; justify-content: center; align-items: center;"">
                <img src=""images/other/blank.jpg"" style=""width: 300px; height: 300px;"" />
              </div>","null",""
"","","","","","html-keyboard-response","59","226390","0.0-59.0","0D5F27DF00A943C283A57A5D7355DF88","010e2f80-909e-4786-8162-981c971108e5","61e1ec61-13c7-4a8f-bf47-a91ec9909364","","null","<div style=""display: flex; justify-content: center; align-items: center;"">
                <img src=""images/causal/causal_series_12/causal_series_12_a.jpg"" style=""width: 300px; height: 300px;"" />
              </div>","null",""
"","","","","","html-keyboard-response","60","229391","0.0-60.0","0D5F27DF00A943C283A57A5D7355DF88","010e2f80-909e-4786-8162-981c971108e5","61e1ec61-13c7-4a8f-bf47-a91ec9909364","","null","<div style=""display: flex; justify-content: center; align-items: center;"">
                <img src=""images/causal/causal_series_12/causal_series_12_b.jpg"" style=""width: 300px; height: 300px;"" />
              </div>","null",""
"","","","","","html-keyboard-response","61","232398","0.0-61.0","0D5F27DF00A943C283A57A5D7355DF88","010e2f80-909e-4786-8162-981c971108e5","61e1ec61-13c7-4a8f-bf47-a91ec9909364","","null","<div style=""display: flex; justify-content: center; align-items: center;"">
                <img src=""images/causal/causal_series_12/causal_series_12_c.jpg"" style=""width: 300px; height: 300px;"" />
              </div>","null",""
"","","","","","html-button-response","62","233353","0.0-62.0","0D5F27DF00A943C283A57A5D7355DF88","010e2f80-909e-4786-8162-981c971108e5","61e1ec61-13c7-4a8f-bf47-a91ec9909364","","954","
    <div style=""display: flex; justify-content: center; align-items: center;"">
      <img src=""images/red_deck_2.png"" style=""width: 300px; height: 300px; margin-right: 10px;"" />
      <img src=""images/blue_deck_1.png"" style=""width: 300px; height: 300px;"" />
    </div>","0","0"
"","","","","","html-keyboard-response","63","236367","0.0-63.0-0.0-0.0","0D5F27DF00A943C283A57A5D7355DF88","010e2f80-909e-4786-8162-981c971108e5","61e1ec61-13c7-4a8f-bf47-a91ec9909364","","null","<div style=""display: flex; justify-content: center; align-items: center;"">
                <img src=""images/causal/causal_series_12/causal_series_12_d.jpg"" style=""width: 300px; height: 300px;"" />
              </div>","null",""
"","","","","","html-keyboard-response","64","239400","0.0-64.0","0D5F27DF00A943C283A57A5D7355DF88","010e2f80-909e-4786-8162-981c971108e5","61e1ec61-13c7-4a8f-bf47-a91ec9909364","","null","<div style=""display: flex; justify-content: center; align-items: center;"">
                <img src=""images/other/blank.jpg"" style=""width: 300px; height: 300px;"" />
              </div>","null",""
"","","","","","html-keyboard-response","65","242406","0.0-65.0","0D5F27DF00A943C283A57A5D7355DF88","010e2f80-909e-4786-8162-981c971108e5","61e1ec61-13c7-4a8f-bf47-a91ec9909364","","null","<div style=""display: flex; justify-content: center; align-items: center;"">
                <img src=""images/causal/causal_series_17/causal_series_17_a.jpg"" style=""width: 300px; height: 300px;"" />
              </div>","null",""
"","","","","","html-keyboard-response","66","245420","0.0-66.0","0D5F27DF00A943C283A57A5D7355DF88","010e2f80-909e-4786-8162-981c971108e5","61e1ec61-13c7-4a8f-bf47-a91ec9909364","","null","<div style=""display: flex; justify-content: center; align-items: center;"">
                <img src=""images/causal/causal_series_17/causal_series_17_b.jpg"" style=""width: 300px; height: 300px;"" />
              </div>","null",""
"","","","","","html-keyboard-response","67","248422","0.0-67.0","0D5F27DF00A943C283A57A5D7355DF88","010e2f80-909e-4786-8162-981c971108e5","61e1ec61-13c7-4a8f-bf47-a91ec9909364","","null","<div style=""display: flex; justify-content: center; align-items: center;"">
                <img src=""images/causal/causal_series_17/causal_series_17_c.jpg"" style=""width: 300px; height: 300px;"" />
              </div>","null",""
"","","","","","html-button-response","68","249314","0.0-68.0","0D5F27DF00A943C283A57A5D7355DF88","010e2f80-909e-4786-8162-981c971108e5","61e1ec61-13c7-4a8f-bf47-a91ec9909364","","891","
    <div style=""display: flex; justify-content: center; align-items: center;"">
      <img src=""images/red_deck_2.png"" style=""width: 300px; height: 300px; margin-right: 10px;"" />
      <img src=""images/blue_deck_1.png"" style=""width: 300px; height: 300px;"" />
    </div>","0","0"
"","","","","","html-keyboard-response","69","252322","0.0-69.0-0.0-0.0","0D5F27DF00A943C283A57A5D7355DF88","010e2f80-909e-4786-8162-981c971108e5","61e1ec61-13c7-4a8f-bf47-a91ec9909364","","null","<div style=""display: flex; justify-content: center; align-items: center;"">
                <img src=""images/causal/causal_series_17/causal_series_17_d.jpg"" style=""width: 300px; height: 300px;"" />
              </div>","null",""
"","","","","","html-keyboard-response","70","255325","0.0-70.0","0D5F27DF00A943C283A57A5D7355DF88","010e2f80-909e-4786-8162-981c971108e5","61e1ec61-13c7-4a8f-bf47-a91ec9909364","","null","<div style=""display: flex; justify-content: center; align-items: center;"">
                <img src=""images/other/blank.jpg"" style=""width: 300px; height: 300px;"" />
              </div>","null",""
"","","","","","html-keyboard-response","71","258336","0.0-71.0","0D5F27DF00A943C283A57A5D7355DF88","010e2f80-909e-4786-8162-981c971108e5","61e1ec61-13c7-4a8f-bf47-a91ec9909364","","null","<div style=""display: flex; justify-content: center; align-items: center;"">
                <img src=""images/causal/causal_series_13/causal_series_13_a.jpg"" style=""width: 300px; height: 300px;"" />
              </div>","null",""
"","","","","","html-keyboard-response","72","261343","0.0-72.0","0D5F27DF00A943C283A57A5D7355DF88","010e2f80-909e-4786-8162-981c971108e5","61e1ec61-13c7-4a8f-bf47-a91ec9909364","","null","<div style=""display: flex; justify-content: center; align-items: center;"">
                <img src=""images/causal/causal_series_13/causal_series_13_b.jpg"" style=""width: 300px; height: 300px;"" />
              </div>","null",""
"","","","","","html-keyboard-response","73","264344","0.0-73.0","0D5F27DF00A943C283A57A5D7355DF88","010e2f80-909e-4786-8162-981c971108e5","61e1ec61-13c7-4a8f-bf47-a91ec9909364","","null","<div style=""display: flex; justify-content: center; align-items: center;"">
                <img src=""images/causal/causal_series_13/causal_series_13_c.jpg"" style=""width: 300px; height: 300px;"" />
              </div>","null",""
"","","","","","html-button-response","74","265447","0.0-74.0","0D5F27DF00A943C283A57A5D7355DF88","010e2f80-909e-4786-8162-981c971108e5","61e1ec61-13c7-4a8f-bf47-a91ec9909364","","1102","
    <div style=""display: flex; justify-content: center; align-items: center;"">
      <img src=""images/red_deck_2.png"" style=""width: 300px; height: 300px; margin-right: 10px;"" />
      <img src=""images/blue_deck_1.png"" style=""width: 300px; height: 300px;"" />
    </div>","0","0"
"","","","","","html-keyboard-response","75","268461","0.0-75.0-0.0-0.0","0D5F27DF00A943C283A57A5D7355DF88","010e2f80-909e-4786-8162-981c971108e5","61e1ec61-13c7-4a8f-bf47-a91ec9909364","","null","<div style=""display: flex; justify-content: center; align-items: center;"">
                <img src=""images/causal/causal_series_13/causal_series_13_d.jpg"" style=""width: 300px; height: 300px;"" />
              </div>","null",""
"","","","","","html-keyboard-response","76","271461","0.0-76.0","0D5F27DF00A943C283A57A5D7355DF88","010e2f80-909e-4786-8162-981c971108e5","61e1ec61-13c7-4a8f-bf47-a91ec9909364","","null","<div style=""display: flex; justify-content: center; align-items: center;"">
                <img src=""images/other/blank.jpg"" style=""width: 300px; height: 300px;"" />
              </div>","null",""
"","","","","","html-keyboard-response","77","274467","0.0-77.0","0D5F27DF00A943C283A57A5D7355DF88","010e2f80-909e-4786-8162-981c971108e5","61e1ec61-13c7-4a8f-bf47-a91ec9909364","","null","<div style=""display: flex; justify-content: center; align-items: center;"">
                <img src=""images/causal/causal_series_8/causal_series_8_a.jpg"" style=""width: 300px; height: 300px;"" />
              </div>","null",""
"","","","","","html-keyboard-response","78","277478","0.0-78.0","0D5F27DF00A943C283A57A5D7355DF88","010e2f80-909e-4786-8162-981c971108e5","61e1ec61-13c7-4a8f-bf47-a91ec9909364","","null","<div style=""display: flex; justify-content: center; align-items: center;"">
                <img src=""images/causal/causal_series_8/causal_series_8_b.jpg"" style=""width: 300px; height: 300px;"" />
              </div>","null",""
"","","","","","html-keyboard-response","79","280479","0.0-79.0","0D5F27DF00A943C283A57A5D7355DF88","010e2f80-909e-4786-8162-981c971108e5","61e1ec61-13c7-4a8f-bf47-a91ec9909364","","null","<div style=""display: flex; justify-content: center; align-items: center;"">
                <img src=""images/causal/causal_series_8/causal_series_8_c.jpg"" style=""width: 300px; height: 300px;"" />
              </div>","null",""
"","","","","","html-button-response","80","282653","0.0-80.0","0D5F27DF00A943C283A57A5D7355DF88","010e2f80-909e-4786-8162-981c971108e5","61e1ec61-13c7-4a8f-bf47-a91ec9909364","","2173","
    <div style=""display: flex; justify-content: center; align-items: center;"">
      <img src=""images/red_deck_2.png"" style=""width: 300px; height: 300px; margin-right: 10px;"" />
      <img src=""images/blue_deck_1.png"" style=""width: 300px; height: 300px;"" />
    </div>","1","1"
"","","","","","html-keyboard-response","81","285661","0.0-81.0-1.0-0.0","0D5F27DF00A943C283A57A5D7355DF88","010e2f80-909e-4786-8162-981c971108e5","61e1ec61-13c7-4a8f-bf47-a91ec9909364","","null","<div style=""display: flex; justify-content: center; align-items: center;"">
                <img src=""images/semantic/semantic_series_7/semantic_series_7_d.jpg"" style=""width: 300px; height: 300px;"" />
              </div>","null",""
"","","","","","html-keyboard-response","82","288709","0.0-82.0","0D5F27DF00A943C283A57A5D7355DF88","010e2f80-909e-4786-8162-981c971108e5","61e1ec61-13c7-4a8f-bf47-a91ec9909364","","null","<div style=""display: flex; justify-content: center; align-items: center;"">
                <img src=""images/other/blank.jpg"" style=""width: 300px; height: 300px;"" />
              </div>","null",""
"","","","","","html-keyboard-response","83","291713","0.0-83.0","0D5F27DF00A943C283A57A5D7355DF88","010e2f80-909e-4786-8162-981c971108e5","61e1ec61-13c7-4a8f-bf47-a91ec9909364","","null","<div style=""display: flex; justify-content: center; align-items: center;"">
                <img src=""images/causal/causal_series_18/causal_series_18_a.jpg"" style=""width: 300px; height: 300px;"" />
              </div>","null",""
"","","","","","html-keyboard-response","84","294715","0.0-84.0","0D5F27DF00A943C283A57A5D7355DF88","010e2f80-909e-4786-8162-981c971108e5","61e1ec61-13c7-4a8f-bf47-a91ec9909364","","null","<div style=""display: flex; justify-content: center; align-items: center;"">
                <img src=""images/causal/causal_series_18/causal_series_18_b.jpg"" style=""width: 300px; height: 300px;"" />
              </div>","null",""
"","","","","","html-keyboard-response","85","297718","0.0-85.0","0D5F27DF00A943C283A57A5D7355DF88","010e2f80-909e-4786-8162-981c971108e5","61e1ec61-13c7-4a8f-bf47-a91ec9909364","","null","<div style=""display: flex; justify-content: center; align-items: center;"">
                <img src=""images/causal/causal_series_18/causal_series_18_c.jpg"" style=""width: 300px; height: 300px;"" />
              </div>","null",""
"","","","","","html-button-response","86","301434","0.0-86.0","0D5F27DF00A943C283A57A5D7355DF88","010e2f80-909e-4786-8162-981c971108e5","61e1ec61-13c7-4a8f-bf47-a91ec9909364","","3714","
    <div style=""display: flex; justify-content: center; align-items: center;"">
      <img src=""images/red_deck_2.png"" style=""width: 300px; height: 300px; margin-right: 10px;"" />
      <img src=""images/blue_deck_1.png"" style=""width: 300px; height: 300px;"" />
    </div>","0","0"
"","","","","","html-keyboard-response","87","304449","0.0-87.0-0.0-0.0","0D5F27DF00A943C283A57A5D7355DF88","010e2f80-909e-4786-8162-981c971108e5","61e1ec61-13c7-4a8f-bf47-a91ec9909364","","null","<div style=""display: flex; justify-content: center; align-items: center;"">
                <img src=""images/causal/causal_series_18/causal_series_18_d.jpg"" style=""width: 300px; height: 300px;"" />
              </div>","null",""
"","","","","","html-keyboard-response","88","307460","0.0-88.0","0D5F27DF00A943C283A57A5D7355DF88","010e2f80-909e-4786-8162-981c971108e5","61e1ec61-13c7-4a8f-bf47-a91ec9909364","","null","<div style=""display: flex; justify-content: center; align-items: center;"">
                <img src=""images/other/blank.jpg"" style=""width: 300px; height: 300px;"" />
              </div>","null",""
"","","","","","html-keyboard-response","89","310467","0.0-89.0","0D5F27DF00A943C283A57A5D7355DF88","010e2f80-909e-4786-8162-981c971108e5","61e1ec61-13c7-4a8f-bf47-a91ec9909364","","null","<div style=""display: flex; justify-content: center; align-items: center;"">
                <img src=""images/causal/causal_series_10/causal_series_10_a.jpg"" style=""width: 300px; height: 300px;"" />
              </div>","null",""
"","","","","","html-keyboard-response","90","313469","0.0-90.0","0D5F27DF00A943C283A57A5D7355DF88","010e2f80-909e-4786-8162-981c971108e5","61e1ec61-13c7-4a8f-bf47-a91ec9909364","","null","<div style=""display: flex; justify-content: center; align-items: center;"">
                <img src=""images/causal/causal_series_10/causal_series_10_b.jpg"" style=""width: 300px; height: 300px;"" />
              </div>","null",""
"","","","","","html-keyboard-response","91","316476","0.0-91.0","0D5F27DF00A943C283A57A5D7355DF88","010e2f80-909e-4786-8162-981c971108e5","61e1ec61-13c7-4a8f-bf47-a91ec9909364","","null","<div style=""display: flex; justify-content: center; align-items: center;"">
                <img src=""images/causal/causal_series_10/causal_series_10_c.jpg"" style=""width: 300px; height: 300px;"" />
              </div>","null",""
"","","","","","html-button-response","92","318685","0.0-92.0","0D5F27DF00A943C283A57A5D7355DF88","010e2f80-909e-4786-8162-981c971108e5","61e1ec61-13c7-4a8f-bf47-a91ec9909364","","2206","
    <div style=""display: flex; justify-content: center; align-items: center;"">
      <img src=""images/red_deck_2.png"" style=""width: 300px; height: 300px; margin-right: 10px;"" />
      <img src=""images/blue_deck_1.png"" style=""width: 300px; height: 300px;"" />
    </div>","0","0"
"","","","","","html-keyboard-response","93","321691","0.0-93.0-0.0-0.0","0D5F27DF00A943C283A57A5D7355DF88","010e2f80-909e-4786-8162-981c971108e5","61e1ec61-13c7-4a8f-bf47-a91ec9909364","","null","<div style=""display: flex; justify-content: center; align-items: center;"">
                <img src=""images/causal/causal_series_10/causal_series_10_d.jpg"" style=""width: 300px; height: 300px;"" />
              </div>","null",""
"","","","","","html-keyboard-response","94","324705","0.0-94.0","0D5F27DF00A943C283A57A5D7355DF88","010e2f80-909e-4786-8162-981c971108e5","61e1ec61-13c7-4a8f-bf47-a91ec9909364","","null","<div style=""display: flex; justify-content: center; align-items: center;"">
                <img src=""images/other/blank.jpg"" style=""width: 300px; height: 300px;"" />
              </div>","null",""
"","","","","","html-keyboard-response","95","327710","0.0-95.0","0D5F27DF00A943C283A57A5D7355DF88","010e2f80-909e-4786-8162-981c971108e5","61e1ec61-13c7-4a8f-bf47-a91ec9909364","","null","<div style=""display: flex; justify-content: center; align-items: center;"">
                <img src=""images/causal/causal_series_15/causal_series_15_a.jpg"" style=""width: 300px; height: 300px;"" />
              </div>","null",""
"","","","","","html-keyboard-response","96","330743","0.0-96.0","0D5F27DF00A943C283A57A5D7355DF88","010e2f80-909e-4786-8162-981c971108e5","61e1ec61-13c7-4a8f-bf47-a91ec9909364","","null","<div style=""display: flex; justify-content: center; align-items: center;"">
                <img src=""images/causal/causal_series_15/causal_series_15_b.jpg"" style=""width: 300px; height: 300px;"" />
              </div>","null",""
"","","","","","html-keyboard-response","97","333746","0.0-97.0","0D5F27DF00A943C283A57A5D7355DF88","010e2f80-909e-4786-8162-981c971108e5","61e1ec61-13c7-4a8f-bf47-a91ec9909364","","null","<div style=""display: flex; justify-content: center; align-items: center;"">
                <img src=""images/causal/causal_series_15/causal_series_15_c.jpg"" style=""width: 300px; height: 300px;"" />
              </div>","null",""
"","","","","","html-button-response","98","335043","0.0-98.0","0D5F27DF00A943C283A57A5D7355DF88","010e2f80-909e-4786-8162-981c971108e5","61e1ec61-13c7-4a8f-bf47-a91ec9909364","","1296","
    <div style=""display: flex; justify-content: center; align-items: center;"">
      <img src=""images/red_deck_2.png"" style=""width: 300px; height: 300px; margin-right: 10px;"" />
      <img src=""images/blue_deck_1.png"" style=""width: 300px; height: 300px;"" />
    </div>","0","0"
"","","","","","html-keyboard-response","99","338051","0.0-99.0-0.0-0.0","0D5F27DF00A943C283A57A5D7355DF88","010e2f80-909e-4786-8162-981c971108e5","61e1ec61-13c7-4a8f-bf47-a91ec9909364","","null","<div style=""display: flex; justify-content: center; align-items: center;"">
                <img src=""images/causal/causal_series_15/causal_series_15_d.jpg"" style=""width: 300px; height: 300px;"" />
              </div>","null",""
"","","","","","html-keyboard-response","100","341054","0.0-100.0","0D5F27DF00A943C283A57A5D7355DF88","010e2f80-909e-4786-8162-981c971108e5","61e1ec61-13c7-4a8f-bf47-a91ec9909364","","null","<div style=""display: flex; justify-content: center; align-items: center;"">
                <img src=""images/other/blank.jpg"" style=""width: 300px; height: 300px;"" />
              </div>","null",""
"","","","","","html-keyboard-response","101","344067","0.0-101.0","0D5F27DF00A943C283A57A5D7355DF88","010e2f80-909e-4786-8162-981c971108e5","61e1ec61-13c7-4a8f-bf47-a91ec9909364","","null","<div style=""display: flex; justify-content: center; align-items: center;"">
                <img src=""images/causal/causal_series_2/causal_series_2_a.jpg"" style=""width: 300px; height: 300px;"" />
              </div>","null",""
"","","","","","html-keyboard-response","102","347072","0.0-102.0","0D5F27DF00A943C283A57A5D7355DF88","010e2f80-909e-4786-8162-981c971108e5","61e1ec61-13c7-4a8f-bf47-a91ec9909364","","null","<div style=""display: flex; justify-content: center; align-items: center;"">
                <img src=""images/causal/causal_series_2/causal_series_2_b.jpg"" style=""width: 300px; height: 300px;"" />
              </div>","null",""
"","","","","","html-keyboard-response","103","350075","0.0-103.0","0D5F27DF00A943C283A57A5D7355DF88","010e2f80-909e-4786-8162-981c971108e5","61e1ec61-13c7-4a8f-bf47-a91ec9909364","","null","<div style=""display: flex; justify-content: center; align-items: center;"">
                <img src=""images/causal/causal_series_2/causal_series_2_c.jpg"" style=""width: 300px; height: 300px;"" />
              </div>","null",""
"","","","","","html-button-response","104","352158","0.0-104.0","0D5F27DF00A943C283A57A5D7355DF88","010e2f80-909e-4786-8162-981c971108e5","61e1ec61-13c7-4a8f-bf47-a91ec9909364","","2083","
    <div style=""display: flex; justify-content: center; align-items: center;"">
      <img src=""images/red_deck_2.png"" style=""width: 300px; height: 300px; margin-right: 10px;"" />
      <img src=""images/blue_deck_1.png"" style=""width: 300px; height: 300px;"" />
    </div>","0","0"
"","","","","","html-keyboard-response","105","355167","0.0-105.0-0.0-0.0","0D5F27DF00A943C283A57A5D7355DF88","010e2f80-909e-4786-8162-981c971108e5","61e1ec61-13c7-4a8f-bf47-a91ec9909364","","null","<div style=""display: flex; justify-content: center; align-items: center;"">
                <img src=""images/causal/causal_series_2/causal_series_2_d.jpg"" style=""width: 300px; height: 300px;"" />
              </div>","null",""
"","","","","","html-keyboard-response","106","358177","0.0-106.0","0D5F27DF00A943C283A57A5D7355DF88","010e2f80-909e-4786-8162-981c971108e5","61e1ec61-13c7-4a8f-bf47-a91ec9909364","","null","<div style=""display: flex; justify-content: center; align-items: center;"">
                <img src=""images/other/blank.jpg"" style=""width: 300px; height: 300px;"" />
              </div>","null",""
"","","","","","html-keyboard-response","107","361185","0.0-107.0","0D5F27DF00A943C283A57A5D7355DF88","010e2f80-909e-4786-8162-981c971108e5","61e1ec61-13c7-4a8f-bf47-a91ec9909364","","null","<div style=""display: flex; justify-content: center; align-items: center;"">
                <img src=""images/causal/causal_series_9/causal_series_9_a.jpg"" style=""width: 300px; height: 300px;"" />
              </div>","null",""
"","","","","","html-keyboard-response","108","364190","0.0-108.0","0D5F27DF00A943C283A57A5D7355DF88","010e2f80-909e-4786-8162-981c971108e5","61e1ec61-13c7-4a8f-bf47-a91ec9909364","","null","<div style=""display: flex; justify-content: center; align-items: center;"">
                <img src=""images/causal/causal_series_9/causal_series_9_b.jpg"" style=""width: 300px; height: 300px;"" />
              </div>","null",""
"","","","","","html-keyboard-response","109","367194","0.0-109.0","0D5F27DF00A943C283A57A5D7355DF88","010e2f80-909e-4786-8162-981c971108e5","61e1ec61-13c7-4a8f-bf47-a91ec9909364","","null","<div style=""display: flex; justify-content: center; align-items: center;"">
                <img src=""images/causal/causal_series_9/causal_series_9_c.jpg"" style=""width: 300px; height: 300px;"" />
              </div>","null",""
"","","","","","html-button-response","110","371801","0.0-110.0","0D5F27DF00A943C283A57A5D7355DF88","010e2f80-909e-4786-8162-981c971108e5","61e1ec61-13c7-4a8f-bf47-a91ec9909364","","4607","
    <div style=""display: flex; justify-content: center; align-items: center;"">
      <img src=""images/red_deck_2.png"" style=""width: 300px; height: 300px; margin-right: 10px;"" />
      <img src=""images/blue_deck_1.png"" style=""width: 300px; height: 300px;"" />
    </div>","0","0"
"","","","","","html-keyboard-response","111","374803","0.0-111.0-0.0-0.0","0D5F27DF00A943C283A57A5D7355DF88","010e2f80-909e-4786-8162-981c971108e5","61e1ec61-13c7-4a8f-bf47-a91ec9909364","","null","<div style=""display: flex; justify-content: center; align-items: center;"">
                <img src=""images/causal/causal_series_9/causal_series_9_d.jpg"" style=""width: 300px; height: 300px;"" />
              </div>","null",""
"","","","","","html-keyboard-response","112","377807","0.0-112.0","0D5F27DF00A943C283A57A5D7355DF88","010e2f80-909e-4786-8162-981c971108e5","61e1ec61-13c7-4a8f-bf47-a91ec9909364","","null","<div style=""display: flex; justify-content: center; align-items: center;"">
                <img src=""images/other/blank.jpg"" style=""width: 300px; height: 300px;"" />
              </div>","null",""
"","","","","","survey-text","113","420915","0.0-113.0","0D5F27DF00A943C283A57A5D7355DF88","010e2f80-909e-4786-8162-981c971108e5","61e1ec61-13c7-4a8f-bf47-a91ec9909364","","43060","","{""Q0"":""I don't there was a difference, maybe deck 1 was more likely to have the AI generated stuff and deck 2 had more normal cartoons?""}",""
"","","","","","survey-text","114","438892","0.0-114.0","0D5F27DF00A943C283A57A5D7355DF88","010e2f80-909e-4786-8162-981c971108e5","61e1ec61-13c7-4a8f-bf47-a91ec9909364","","17969","","{""Q0"":""Neither was interesting, it didn't make any sense""}",""
"","","","","","html-button-response","115","445043","0.0-115.0","0D5F27DF00A943C283A57A5D7355DF88","010e2f80-909e-4786-8162-981c971108e5","61e1ec61-13c7-4a8f-bf47-a91ec9909364","","6150","Which color deck does the fourth image continue the story from the series?","1",""
"","","","","","html-button-response","116","447249","0.0-116.0","0D5F27DF00A943C283A57A5D7355DF88","010e2f80-909e-4786-8162-981c971108e5","61e1ec61-13c7-4a8f-bf47-a91ec9909364","","2204","Which color deck does the fourth image not follow the story from the series?","0",""
"","","","","","survey-text","117","451283","0.0-117.0","0D5F27DF00A943C283A57A5D7355DF88","010e2f80-909e-4786-8162-981c971108e5","61e1ec61-13c7-4a8f-bf47-a91ec9909364","","4018","","{""Q0"":""Male"",""Q1"":""25""}",""
"","","","","","instructions","118","454306","0.0-118.0","0D5F27DF00A943C283A57A5D7355DF88","010e2f80-909e-4786-8162-981c971108e5","61e1ec61-13c7-4a8f-bf47-a91ec9909364","[{""page_index"":0,""viewing_time"":3021}]","3021","","",""
