"success","timeout","failed_images","failed_audio","failed_video","trial_type","trial_index","time_elapsed","internal_node_id","subject_id","study_id","session_id","view_history","rt","stimulus","response","choice"
"true","false","[]","[]","[]","preload","0","4888","0.0-0.0","20C7D855D1124DEF99BC26A3724087D7","b2045252-6ebd-4eba-b453-8546f9660fde","61e1ec61-13c7-4a8f-bf47-a91ec9909364","","","","",""
"","","","","","instructions","1","12570","0.0-1.0","20C7D855D1124DEF99BC26A3724087D7","b2045252-6ebd-4eba-b453-8546f9660fde","61e1ec61-13c7-4a8f-bf47-a91ec9909364","[{""page_index"":0,""viewing_time"":7680}]","7681","","",""
"","","","","","instructions","2","25139","0.0-2.0","20C7D855D1124DEF99BC26A3724087D7","b2045252-6ebd-4eba-b453-8546f9660fde","61e1ec61-13c7-4a8f-bf47-a91ec9909364","[{""page_index"":0,""viewing_time"":12567}]","12568","","",""
"true","","","","","fullscreen","3","29758","0.0-3.0","20C7D855D1124DEF99BC26A3724087D7","b2045252-6ebd-4eba-b453-8546f9660fde","61e1ec61-13c7-4a8f-bf47-a91ec9909364","","3607","","",""
"","","","","","instructions","4","152086","0.0-4.0","20C7D855D1124DEF99BC26A3724087D7","b2045252-6ebd-4eba-b453-8546f9660fde","61e1ec61-13c7-4a8f-bf47-a91ec9909364","[{""page_index"":0,""viewing_time"":122322}]","122325","","",""
"","","","","","html-keyboard-response","5","155105","0.0-5.0","20C7D855D1124DEF99BC26A3724087D7","b2045252-6ebd-4eba-b453-8546f9660fde","61e1ec61-13c7-4a8f-bf47-a91ec9909364","","null","<div style=""display: flex; justify-content: center; align-items: center;"">
                <img src=""images/causal/causal_series_6/causal_series_6_a.jpg"" style=""width: 300px; height: 300px;"" />
              </div>","null",""
"","","","","","html-keyboard-response","6","158108","0.0-6.0","20C7D855D1124DEF99BC26A3724087D7","b2045252-6ebd-4eba-b453-8546f9660fde","61e1ec61-13c7-4a8f-bf47-a91ec9909364","","null","<div style=""display: flex; justify-content: center; align-items: center;"">
                <img src=""images/causal/causal_series_6/causal_series_6_b.jpg"" style=""width: 300px; height: 300px;"" />
              </div>","null",""
"","","","","","html-keyboard-response","7","161122","0.0-7.0","20C7D855D1124DEF99BC26A3724087D7","b2045252-6ebd-4eba-b453-8546f9660fde","61e1ec61-13c7-4a8f-bf47-a91ec9909364","","null","<div style=""display: flex; justify-content: center; align-items: center;"">
                <img src=""images/causal/causal_series_6/causal_series_6_c.jpg"" style=""width: 300px; height: 300px;"" />
              </div>","null",""
"","","","","","html-button-response","8","164027","0.0-8.0","20C7D855D1124DEF99BC26A3724087D7","b2045252-6ebd-4eba-b453-8546f9660fde","61e1ec61-13c7-4a8f-bf47-a91ec9909364","","2901","
    <div style=""display: flex; justify-content: center; align-items: center;"">
      <img src=""images/red_deck_2.png"" style=""width: 300px; height: 300px; margin-right: 10px;"" />
      <img src=""images/blue_deck_1.png"" style=""width: 300px; height: 300px;"" />
    </div>","1","1"
"","","","","","html-keyboard-response","9","167041","0.0-9.0-1.0-0.0","20C7D855D1124DEF99BC26A3724087D7","b2045252-6ebd-4eba-b453-8546f9660fde","61e1ec61-13c7-4a8f-bf47-a91ec9909364","","null","<div style=""display: flex; justify-content: center; align-items: center;"">
                <img src=""images/semantic/semantic_series_5/semantic_series_5_d.jpg"" style=""width: 300px; height: 300px;"" />
              </div>","null",""
"","","","","","html-keyboard-response","10","170044","0.0-10.0","20C7D855D1124DEF99BC26A3724087D7","b2045252-6ebd-4eba-b453-8546f9660fde","61e1ec61-13c7-4a8f-bf47-a91ec9909364","","null","<div style=""display: flex; justify-content: center; align-items: center;"">
                <img src=""images/other/blank.jpg"" style=""width: 300px; height: 300px;"" />
              </div>","null",""
"","","","","","html-keyboard-response","11","173057","0.0-11.0","20C7D855D1124DEF99BC26A3724087D7","b2045252-6ebd-4eba-b453-8546f9660fde","61e1ec61-13c7-4a8f-bf47-a91ec9909364","","null","<div style=""display: flex; justify-content: center; align-items: center;"">
                <img src=""images/causal/causal_series_16/causal_series_16_a.jpg"" style=""width: 300px; height: 300px;"" />
              </div>","null",""
"","","","","","html-keyboard-response","12","176064","0.0-12.0","20C7D855D1124DEF99BC26A3724087D7","b2045252-6ebd-4eba-b453-8546f9660fde","61e1ec61-13c7-4a8f-bf47-a91ec9909364","","null","<div style=""display: flex; justify-content: center; align-items: center;"">
                <img src=""images/causal/causal_series_16/causal_series_16_b.jpg"" style=""width: 300px; height: 300px;"" />
              </div>","null",""
"","","","","","html-keyboard-response","13","179072","0.0-13.0","20C7D855D1124DEF99BC26A3724087D7","b2045252-6ebd-4eba-b453-8546f9660fde","61e1ec61-13c7-4a8f-bf47-a91ec9909364","","null","<div style=""display: flex; justify-content: center; align-items: center;"">
                <img src=""images/causal/causal_series_16/causal_series_16_c.jpg"" style=""width: 300px; height: 300px;"" />
              </div>","null",""
"","","","","","html-button-response","14","181168","0.0-14.0","20C7D855D1124DEF99BC26A3724087D7","b2045252-6ebd-4eba-b453-8546f9660fde","61e1ec61-13c7-4a8f-bf47-a91ec9909364","","2093","
    <div style=""display: flex; justify-content: center; align-items: center;"">
      <img src=""images/red_deck_2.png"" style=""width: 300px; height: 300px; margin-right: 10px;"" />
      <img src=""images/blue_deck_1.png"" style=""width: 300px; height: 300px;"" />
    </div>","1","1"
"","","","","","html-keyboard-response","15","184179","0.0-15.0-1.0-0.0","20C7D855D1124DEF99BC26A3724087D7","b2045252-6ebd-4eba-b453-8546f9660fde","61e1ec61-13c7-4a8f-bf47-a91ec9909364","","null","<div style=""display: flex; justify-content: center; align-items: center;"">
                <img src=""images/semantic/semantic_series_15/semantic_series_15_d.jpg"" style=""width: 300px; height: 300px;"" />
              </div>","null",""
"","","","","","html-keyboard-response","16","187182","0.0-16.0","20C7D855D1124DEF99BC26A3724087D7","b2045252-6ebd-4eba-b453-8546f9660fde","61e1ec61-13c7-4a8f-bf47-a91ec9909364","","null","<div style=""display: flex; justify-content: center; align-items: center;"">
                <img src=""images/other/blank.jpg"" style=""width: 300px; height: 300px;"" />
              </div>","null",""
"","","","","","html-keyboard-response","17","190186","0.0-17.0","20C7D855D1124DEF99BC26A3724087D7","b2045252-6ebd-4eba-b453-8546f9660fde","61e1ec61-13c7-4a8f-bf47-a91ec9909364","","null","<div style=""display: flex; justify-content: center; align-items: center;"">
                <img src=""images/causal/causal_series_12/causal_series_12_a.jpg"" style=""width: 300px; height: 300px;"" />
              </div>","null",""
"","","","","","html-keyboard-response","18","193190","0.0-18.0","20C7D855D1124DEF99BC26A3724087D7","b2045252-6ebd-4eba-b453-8546f9660fde","61e1ec61-13c7-4a8f-bf47-a91ec9909364","","null","<div style=""display: flex; justify-content: center; align-items: center;"">
                <img src=""images/causal/causal_series_12/causal_series_12_b.jpg"" style=""width: 300px; height: 300px;"" />
              </div>","null",""
"","","","","","html-keyboard-response","19","196193","0.0-19.0","20C7D855D1124DEF99BC26A3724087D7","b2045252-6ebd-4eba-b453-8546f9660fde","61e1ec61-13c7-4a8f-bf47-a91ec9909364","","null","<div style=""display: flex; justify-content: center; align-items: center;"">
                <img src=""images/causal/causal_series_12/causal_series_12_c.jpg"" style=""width: 300px; height: 300px;"" />
              </div>","null",""
"","","","","","html-button-response","20","197271","0.0-20.0","20C7D855D1124DEF99BC26A3724087D7","b2045252-6ebd-4eba-b453-8546f9660fde","61e1ec61-13c7-4a8f-bf47-a91ec9909364","","1075","
    <div style=""display: flex; justify-content: center; align-items: center;"">
      <img src=""images/red_deck_2.png"" style=""width: 300px; height: 300px; margin-right: 10px;"" />
      <img src=""images/blue_deck_1.png"" style=""width: 300px; height: 300px;"" />
    </div>","0","0"
"","","","","","html-keyboard-response","21","200290","0.0-21.0-0.0-0.0","20C7D855D1124DEF99BC26A3724087D7","b2045252-6ebd-4eba-b453-8546f9660fde","61e1ec61-13c7-4a8f-bf47-a91ec9909364","","null","<div style=""display: flex; justify-content: center; align-items: center;"">
                <img src=""images/causal/causal_series_12/causal_series_12_d.jpg"" style=""width: 300px; height: 300px;"" />
              </div>","null",""
"","","","","","html-keyboard-response","22","203295","0.0-22.0","20C7D855D1124DEF99BC26A3724087D7","b2045252-6ebd-4eba-b453-8546f9660fde","61e1ec61-13c7-4a8f-bf47-a91ec9909364","","null","<div style=""display: flex; justify-content: center; align-items: center;"">
                <img src=""images/other/blank.jpg"" style=""width: 300px; height: 300px;"" />
              </div>","null",""
"","","","","","html-keyboard-response","23","206310","0.0-23.0","20C7D855D1124DEF99BC26A3724087D7","b2045252-6ebd-4eba-b453-8546f9660fde","61e1ec61-13c7-4a8f-bf47-a91ec9909364","","null","<div style=""display: flex; justify-content: center; align-items: center;"">
                <img src=""images/causal/causal_series_13/causal_series_13_a.jpg"" style=""width: 300px; height: 300px;"" />
              </div>","null",""
"","","","","","html-keyboard-response","24","209319","0.0-24.0","20C7D855D1124DEF99BC26A3724087D7","b2045252-6ebd-4eba-b453-8546f9660fde","61e1ec61-13c7-4a8f-bf47-a91ec9909364","","null","<div style=""display: flex; justify-content: center; align-items: center;"">
                <img src=""images/causal/causal_series_13/causal_series_13_b.jpg"" style=""width: 300px; height: 300px;"" />
              </div>","null",""
"","","","","","html-keyboard-response","25","212322","0.0-25.0","20C7D855D1124DEF99BC26A3724087D7","b2045252-6ebd-4eba-b453-8546f9660fde","61e1ec61-13c7-4a8f-bf47-a91ec9909364","","null","<div style=""display: flex; justify-content: center; align-items: center;"">
                <img src=""images/causal/causal_series_13/causal_series_13_c.jpg"" style=""width: 300px; height: 300px;"" />
              </div>","null",""
"","","","","","html-button-response","26","213929","0.0-26.0","20C7D855D1124DEF99BC26A3724087D7","b2045252-6ebd-4eba-b453-8546f9660fde","61e1ec61-13c7-4a8f-bf47-a91ec9909364","","1603","
    <div style=""display: flex; justify-content: center; align-items: center;"">
      <img src=""images/red_deck_2.png"" style=""width: 300px; height: 300px; margin-right: 10px;"" />
      <img src=""images/blue_deck_1.png"" style=""width: 300px; height: 300px;"" />
    </div>","1","1"
"","","","","","html-keyboard-response","27","216936","0.0-27.0-1.0-0.0","20C7D855D1124DEF99BC26A3724087D7","b2045252-6ebd-4eba-b453-8546f9660fde","61e1ec61-13c7-4a8f-bf47-a91ec9909364","","null","<div style=""display: flex; justify-content: center; align-items: center;"">
                <img src=""images/semantic/semantic_series_12/semantic_series_12_d.jpg"" style=""width: 300px; height: 300px;"" />
              </div>","null",""
"","","","","","html-keyboard-response","28","219945","0.0-28.0","20C7D855D1124DEF99BC26A3724087D7","b2045252-6ebd-4eba-b453-8546f9660fde","61e1ec61-13c7-4a8f-bf47-a91ec9909364","","null","<div style=""display: flex; justify-content: center; align-items: center;"">
                <img src=""images/other/blank.jpg"" style=""width: 300px; height: 300px;"" />
              </div>","null",""
"","","","","","html-keyboard-response","29","222963","0.0-29.0","20C7D855D1124DEF99BC26A3724087D7","b2045252-6ebd-4eba-b453-8546f9660fde","61e1ec61-13c7-4a8f-bf47-a91ec9909364","","null","<div style=""display: flex; justify-content: center; align-items: center;"">
                <img src=""images/causal/causal_series_10/causal_series_10_a.jpg"" style=""width: 300px; height: 300px;"" />
              </div>","null",""
"","","","","","html-keyboard-response","30","225975","0.0-30.0","20C7D855D1124DEF99BC26A3724087D7","b2045252-6ebd-4eba-b453-8546f9660fde","61e1ec61-13c7-4a8f-bf47-a91ec9909364","","null","<div style=""display: flex; justify-content: center; align-items: center;"">
                <img src=""images/causal/causal_series_10/causal_series_10_b.jpg"" style=""width: 300px; height: 300px;"" />
              </div>","null",""
"","","","","","html-keyboard-response","31","228981","0.0-31.0","20C7D855D1124DEF99BC26A3724087D7","b2045252-6ebd-4eba-b453-8546f9660fde","61e1ec61-13c7-4a8f-bf47-a91ec9909364","","null","<div style=""display: flex; justify-content: center; align-items: center;"">
                <img src=""images/causal/causal_series_10/causal_series_10_c.jpg"" style=""width: 300px; height: 300px;"" />
              </div>","null",""
"","","","","","html-button-response","32","229945","0.0-32.0","20C7D855D1124DEF99BC26A3724087D7","b2045252-6ebd-4eba-b453-8546f9660fde","61e1ec61-13c7-4a8f-bf47-a91ec9909364","","962","
    <div style=""display: flex; justify-content: center; align-items: center;"">
      <img src=""images/red_deck_2.png"" style=""width: 300px; height: 300px; margin-right: 10px;"" />
      <img src=""images/blue_deck_1.png"" style=""width: 300px; height: 300px;"" />
    </div>","0","0"
"","","","","","html-keyboard-response","33","232962","0.0-33.0-0.0-0.0","20C7D855D1124DEF99BC26A3724087D7","b2045252-6ebd-4eba-b453-8546f9660fde","61e1ec61-13c7-4a8f-bf47-a91ec9909364","","null","<div style=""display: flex; justify-content: center; align-items: center;"">
                <img src=""images/causal/causal_series_10/causal_series_10_d.jpg"" style=""width: 300px; height: 300px;"" />
              </div>","null",""
"","","","","","html-keyboard-response","34","235979","0.0-34.0","20C7D855D1124DEF99BC26A3724087D7","b2045252-6ebd-4eba-b453-8546f9660fde","61e1ec61-13c7-4a8f-bf47-a91ec9909364","","null","<div style=""display: flex; justify-content: center; align-items: center;"">
                <img src=""images/other/blank.jpg"" style=""width: 300px; height: 300px;"" />
              </div>","null",""
"","","","","","html-keyboard-response","35","238993","0.0-35.0","20C7D855D1124DEF99BC26A3724087D7","b2045252-6ebd-4eba-b453-8546f9660fde","61e1ec61-13c7-4a8f-bf47-a91ec9909364","","null","<div style=""display: flex; justify-content: center; align-items: center;"">
                <img src=""images/causal/causal_series_3/causal_series_3_a.jpg"" style=""width: 300px; height: 300px;"" />
              </div>","null",""
"","","","","","html-keyboard-response","36","242009","0.0-36.0","20C7D855D1124DEF99BC26A3724087D7","b2045252-6ebd-4eba-b453-8546f9660fde","61e1ec61-13c7-4a8f-bf47-a91ec9909364","","null","<div style=""display: flex; justify-content: center; align-items: center;"">
                <img src=""images/causal/causal_series_3/causal_series_3_b.jpg"" style=""width: 300px; height: 300px;"" />
              </div>","null",""
"","","","","","html-keyboard-response","37","245027","0.0-37.0","20C7D855D1124DEF99BC26A3724087D7","b2045252-6ebd-4eba-b453-8546f9660fde","61e1ec61-13c7-4a8f-bf47-a91ec9909364","","null","<div style=""display: flex; justify-content: center; align-items: center;"">
                <img src=""images/causal/causal_series_3/causal_series_3_c.jpg"" style=""width: 300px; height: 300px;"" />
              </div>","null",""
"","","","","","html-button-response","38","245872","0.0-38.0","20C7D855D1124DEF99BC26A3724087D7","b2045252-6ebd-4eba-b453-8546f9660fde","61e1ec61-13c7-4a8f-bf47-a91ec9909364","","841","
    <div style=""display: flex; justify-content: center; align-items: center;"">
      <img src=""images/red_deck_2.png"" style=""width: 300px; height: 300px; margin-right: 10px;"" />
      <img src=""images/blue_deck_1.png"" style=""width: 300px; height: 300px;"" />
    </div>","1","1"
"","","","","","html-keyboard-response","39","248878","0.0-39.0-1.0-0.0","20C7D855D1124DEF99BC26A3724087D7","b2045252-6ebd-4eba-b453-8546f9660fde","61e1ec61-13c7-4a8f-bf47-a91ec9909364","","null","<div style=""display: flex; justify-content: center; align-items: center;"">
                <img src=""images/semantic/semantic_series_2/semantic_series_2_d.jpg"" style=""width: 300px; height: 300px;"" />
              </div>","null",""
"","","","","","html-keyboard-response","40","251888","0.0-40.0","20C7D855D1124DEF99BC26A3724087D7","b2045252-6ebd-4eba-b453-8546f9660fde","61e1ec61-13c7-4a8f-bf47-a91ec9909364","","null","<div style=""display: flex; justify-content: center; align-items: center;"">
                <img src=""images/other/blank.jpg"" style=""width: 300px; height: 300px;"" />
              </div>","null",""
"","","","","","html-keyboard-response","41","254896","0.0-41.0","20C7D855D1124DEF99BC26A3724087D7","b2045252-6ebd-4eba-b453-8546f9660fde","61e1ec61-13c7-4a8f-bf47-a91ec9909364","","null","<div style=""display: flex; justify-content: center; align-items: center;"">
                <img src=""images/causal/causal_series_9/causal_series_9_a.jpg"" style=""width: 300px; height: 300px;"" />
              </div>","null",""
"","","","","","html-keyboard-response","42","257900","0.0-42.0","20C7D855D1124DEF99BC26A3724087D7","b2045252-6ebd-4eba-b453-8546f9660fde","61e1ec61-13c7-4a8f-bf47-a91ec9909364","","null","<div style=""display: flex; justify-content: center; align-items: center;"">
                <img src=""images/causal/causal_series_9/causal_series_9_b.jpg"" style=""width: 300px; height: 300px;"" />
              </div>","null",""
"","","","","","html-keyboard-response","43","260907","0.0-43.0","20C7D855D1124DEF99BC26A3724087D7","b2045252-6ebd-4eba-b453-8546f9660fde","61e1ec61-13c7-4a8f-bf47-a91ec9909364","","null","<div style=""display: flex; justify-content: center; align-items: center;"">
                <img src=""images/causal/causal_series_9/causal_series_9_c.jpg"" style=""width: 300px; height: 300px;"" />
              </div>","null",""
"","","","","","html-button-response","44","262051","0.0-44.0","20C7D855D1124DEF99BC26A3724087D7","b2045252-6ebd-4eba-b453-8546f9660fde","61e1ec61-13c7-4a8f-bf47-a91ec9909364","","1140","
    <div style=""display: flex; justify-content: center; align-items: center;"">
      <img src=""images/red_deck_2.png"" style=""width: 300px; height: 300px; margin-right: 10px;"" />
      <img src=""images/blue_deck_1.png"" style=""width: 300px; height: 300px;"" />
    </div>","1","1"
"","","","","","html-keyboard-response","45","265062","0.0-45.0-1.0-0.0","20C7D855D1124DEF99BC26A3724087D7","b2045252-6ebd-4eba-b453-8546f9660fde","61e1ec61-13c7-4a8f-bf47-a91ec9909364","","null","<div style=""display: flex; justify-content: center; align-items: center;"">
                <img src=""images/semantic/semantic_series_8/semantic_series_8_d.jpg"" style=""width: 300px; height: 300px;"" />
              </div>","null",""
"","","","","","html-keyboard-response","46","268071","0.0-46.0","20C7D855D1124DEF99BC26A3724087D7","b2045252-6ebd-4eba-b453-8546f9660fde","61e1ec61-13c7-4a8f-bf47-a91ec9909364","","null","<div style=""display: flex; justify-content: center; align-items: center;"">
                <img src=""images/other/blank.jpg"" style=""width: 300px; height: 300px;"" />
              </div>","null",""
"","","","","","html-keyboard-response","47","271077","0.0-47.0","20C7D855D1124DEF99BC26A3724087D7","b2045252-6ebd-4eba-b453-8546f9660fde","61e1ec61-13c7-4a8f-bf47-a91ec9909364","","null","<div style=""display: flex; justify-content: center; align-items: center;"">
                <img src=""images/causal/causal_series_18/causal_series_18_a.jpg"" style=""width: 300px; height: 300px;"" />
              </div>","null",""
"","","","","","html-keyboard-response","48","274086","0.0-48.0","20C7D855D1124DEF99BC26A3724087D7","b2045252-6ebd-4eba-b453-8546f9660fde","61e1ec61-13c7-4a8f-bf47-a91ec9909364","","null","<div style=""display: flex; justify-content: center; align-items: center;"">
                <img src=""images/causal/causal_series_18/causal_series_18_b.jpg"" style=""width: 300px; height: 300px;"" />
              </div>","null",""
"","","","","","html-keyboard-response","49","277098","0.0-49.0","20C7D855D1124DEF99BC26A3724087D7","b2045252-6ebd-4eba-b453-8546f9660fde","61e1ec61-13c7-4a8f-bf47-a91ec9909364","","null","<div style=""display: flex; justify-content: center; align-items: center;"">
                <img src=""images/causal/causal_series_18/causal_series_18_c.jpg"" style=""width: 300px; height: 300px;"" />
              </div>","null",""
"","","","","","html-button-response","50","278187","0.0-50.0","20C7D855D1124DEF99BC26A3724087D7","b2045252-6ebd-4eba-b453-8546f9660fde","61e1ec61-13c7-4a8f-bf47-a91ec9909364","","1085","
    <div style=""display: flex; justify-content: center; align-items: center;"">
      <img src=""images/red_deck_2.png"" style=""width: 300px; height: 300px; margin-right: 10px;"" />
      <img src=""images/blue_deck_1.png"" style=""width: 300px; height: 300px;"" />
    </div>","0","0"
"","","","","","html-keyboard-response","51","281200","0.0-51.0-0.0-0.0","20C7D855D1124DEF99BC26A3724087D7","b2045252-6ebd-4eba-b453-8546f9660fde","61e1ec61-13c7-4a8f-bf47-a91ec9909364","","null","<div style=""display: flex; justify-content: center; align-items: center;"">
                <img src=""images/causal/causal_series_18/causal_series_18_d.jpg"" style=""width: 300px; height: 300px;"" />
              </div>","null",""
"","","","","","html-keyboard-response","52","284212","0.0-52.0","20C7D855D1124DEF99BC26A3724087D7","b2045252-6ebd-4eba-b453-8546f9660fde","61e1ec61-13c7-4a8f-bf47-a91ec9909364","","null","<div style=""display: flex; justify-content: center; align-items: center;"">
                <img src=""images/other/blank.jpg"" style=""width: 300px; height: 300px;"" />
              </div>","null",""
"","","","","","html-keyboard-response","53","287216","0.0-53.0","20C7D855D1124DEF99BC26A3724087D7","b2045252-6ebd-4eba-b453-8546f9660fde","61e1ec61-13c7-4a8f-bf47-a91ec9909364","","null","<div style=""display: flex; justify-content: center; align-items: center;"">
                <img src=""images/causal/causal_series_5/causal_series_5_a.jpg"" style=""width: 300px; height: 300px;"" />
              </div>","null",""
"","","","","","html-keyboard-response","54","290222","0.0-54.0","20C7D855D1124DEF99BC26A3724087D7","b2045252-6ebd-4eba-b453-8546f9660fde","61e1ec61-13c7-4a8f-bf47-a91ec9909364","","null","<div style=""display: flex; justify-content: center; align-items: center;"">
                <img src=""images/causal/causal_series_5/causal_series_5_b.jpg"" style=""width: 300px; height: 300px;"" />
              </div>","null",""
"","","","","","html-keyboard-response","55","293227","0.0-55.0","20C7D855D1124DEF99BC26A3724087D7","b2045252-6ebd-4eba-b453-8546f9660fde","61e1ec61-13c7-4a8f-bf47-a91ec9909364","","null","<div style=""display: flex; justify-content: center; align-items: center;"">
                <img src=""images/causal/causal_series_5/causal_series_5_c.jpg"" style=""width: 300px; height: 300px;"" />
              </div>","null",""
"","","","","","html-button-response","56","294440","0.0-56.0","20C7D855D1124DEF99BC26A3724087D7","b2045252-6ebd-4eba-b453-8546f9660fde","61e1ec61-13c7-4a8f-bf47-a91ec9909364","","1210","
    <div style=""display: flex; justify-content: center; align-items: center;"">
      <img src=""images/red_deck_2.png"" style=""width: 300px; height: 300px; margin-right: 10px;"" />
      <img src=""images/blue_deck_1.png"" style=""width: 300px; height: 300px;"" />
    </div>","1","1"
"","","","","","html-keyboard-response","57","297454","0.0-57.0-1.0-0.0","20C7D855D1124DEF99BC26A3724087D7","b2045252-6ebd-4eba-b453-8546f9660fde","61e1ec61-13c7-4a8f-bf47-a91ec9909364","","null","<div style=""display: flex; justify-content: center; align-items: center;"">
                <img src=""images/semantic/semantic_series_4/semantic_series_4_d.jpg"" style=""width: 300px; height: 300px;"" />
              </div>","null",""
"","","","","","html-keyboard-response","58","300456","0.0-58.0","20C7D855D1124DEF99BC26A3724087D7","b2045252-6ebd-4eba-b453-8546f9660fde","61e1ec61-13c7-4a8f-bf47-a91ec9909364","","null","<div style=""display: flex; justify-content: center; align-items: center;"">
                <img src=""images/other/blank.jpg"" style=""width: 300px; height: 300px;"" />
              </div>","null",""
"","","","","","html-keyboard-response","59","303473","0.0-59.0","20C7D855D1124DEF99BC26A3724087D7","b2045252-6ebd-4eba-b453-8546f9660fde","61e1ec61-13c7-4a8f-bf47-a91ec9909364","","null","<div style=""display: flex; justify-content: center; align-items: center;"">
                <img src=""images/causal/causal_series_1/causal_series_1_a.jpg"" style=""width: 300px; height: 300px;"" />
              </div>","null",""
"","","","","","html-keyboard-response","60","306480","0.0-60.0","20C7D855D1124DEF99BC26A3724087D7","b2045252-6ebd-4eba-b453-8546f9660fde","61e1ec61-13c7-4a8f-bf47-a91ec9909364","","null","<div style=""display: flex; justify-content: center; align-items: center;"">
                <img src=""images/causal/causal_series_1/causal_series_1_b.jpg"" style=""width: 300px; height: 300px;"" />
              </div>","null",""
"","","","","","html-keyboard-response","61","309492","0.0-61.0","20C7D855D1124DEF99BC26A3724087D7","b2045252-6ebd-4eba-b453-8546f9660fde","61e1ec61-13c7-4a8f-bf47-a91ec9909364","","null","<div style=""display: flex; justify-content: center; align-items: center;"">
                <img src=""images/causal/causal_series_1/causal_series_1_c.jpg"" style=""width: 300px; height: 300px;"" />
              </div>","null",""
"","","","","","html-button-response","62","310274","0.0-62.0","20C7D855D1124DEF99BC26A3724087D7","b2045252-6ebd-4eba-b453-8546f9660fde","61e1ec61-13c7-4a8f-bf47-a91ec9909364","","779","
    <div style=""display: flex; justify-content: center; align-items: center;"">
      <img src=""images/red_deck_2.png"" style=""width: 300px; height: 300px; margin-right: 10px;"" />
      <img src=""images/blue_deck_1.png"" style=""width: 300px; height: 300px;"" />
    </div>","1","1"
"","","","","","html-keyboard-response","63","313284","0.0-63.0-1.0-0.0","20C7D855D1124DEF99BC26A3724087D7","b2045252-6ebd-4eba-b453-8546f9660fde","61e1ec61-13c7-4a8f-bf47-a91ec9909364","","null","<div style=""display: flex; justify-content: center; align-items: center;"">
                <img src=""images/semantic/semantic_series_18/semantic_series_18_d.jpg"" style=""width: 300px; height: 300px;"" />
              </div>","null",""
"","","","","","html-keyboard-response","64","316300","0.0-64.0","20C7D855D1124DEF99BC26A3724087D7","b2045252-6ebd-4eba-b453-8546f9660fde","61e1ec61-13c7-4a8f-bf47-a91ec9909364","","null","<div style=""display: flex; justify-content: center; align-items: center;"">
                <img src=""images/other/blank.jpg"" style=""width: 300px; height: 300px;"" />
              </div>","null",""
"","","","","","html-keyboard-response","65","319308","0.0-65.0","20C7D855D1124DEF99BC26A3724087D7","b2045252-6ebd-4eba-b453-8546f9660fde","61e1ec61-13c7-4a8f-bf47-a91ec9909364","","null","<div style=""display: flex; justify-content: center; align-items: center;"">
                <img src=""images/causal/causal_series_14/causal_series_14_a.jpg"" style=""width: 300px; height: 300px;"" />
              </div>","null",""
"","","","","","html-keyboard-response","66","322317","0.0-66.0","20C7D855D1124DEF99BC26A3724087D7","b2045252-6ebd-4eba-b453-8546f9660fde","61e1ec61-13c7-4a8f-bf47-a91ec9909364","","null","<div style=""display: flex; justify-content: center; align-items: center;"">
                <img src=""images/causal/causal_series_14/causal_series_14_b.jpg"" style=""width: 300px; height: 300px;"" />
              </div>","null",""
"","","","","","html-keyboard-response","67","325322","0.0-67.0","20C7D855D1124DEF99BC26A3724087D7","b2045252-6ebd-4eba-b453-8546f9660fde","61e1ec61-13c7-4a8f-bf47-a91ec9909364","","null","<div style=""display: flex; justify-content: center; align-items: center;"">
                <img src=""images/causal/causal_series_14/causal_series_14_c.jpg"" style=""width: 300px; height: 300px;"" />
              </div>","null",""
"","","","","","html-button-response","68","326596","0.0-68.0","20C7D855D1124DEF99BC26A3724087D7","b2045252-6ebd-4eba-b453-8546f9660fde","61e1ec61-13c7-4a8f-bf47-a91ec9909364","","1271","
    <div style=""display: flex; justify-content: center; align-items: center;"">
      <img src=""images/red_deck_2.png"" style=""width: 300px; height: 300px; margin-right: 10px;"" />
      <img src=""images/blue_deck_1.png"" style=""width: 300px; height: 300px;"" />
    </div>","0","0"
"","","","","","html-keyboard-response","69","329609","0.0-69.0-0.0-0.0","20C7D855D1124DEF99BC26A3724087D7","b2045252-6ebd-4eba-b453-8546f9660fde","61e1ec61-13c7-4a8f-bf47-a91ec9909364","","null","<div style=""display: flex; justify-content: center; align-items: center;"">
                <img src=""images/causal/causal_series_14/causal_series_14_d.jpg"" style=""width: 300px; height: 300px;"" />
              </div>","null",""
"","","","","","html-keyboard-response","70","332613","0.0-70.0","20C7D855D1124DEF99BC26A3724087D7","b2045252-6ebd-4eba-b453-8546f9660fde","61e1ec61-13c7-4a8f-bf47-a91ec9909364","","null","<div style=""display: flex; justify-content: center; align-items: center;"">
                <img src=""images/other/blank.jpg"" style=""width: 300px; height: 300px;"" />
              </div>","null",""
"","","","","","html-keyboard-response","71","335616","0.0-71.0","20C7D855D1124DEF99BC26A3724087D7","b2045252-6ebd-4eba-b453-8546f9660fde","61e1ec61-13c7-4a8f-bf47-a91ec9909364","","null","<div style=""display: flex; justify-content: center; align-items: center;"">
                <img src=""images/causal/causal_series_15/causal_series_15_a.jpg"" style=""width: 300px; height: 300px;"" />
              </div>","null",""
"","","","","","html-keyboard-response","72","338619","0.0-72.0","20C7D855D1124DEF99BC26A3724087D7","b2045252-6ebd-4eba-b453-8546f9660fde","61e1ec61-13c7-4a8f-bf47-a91ec9909364","","null","<div style=""display: flex; justify-content: center; align-items: center;"">
                <img src=""images/causal/causal_series_15/causal_series_15_b.jpg"" style=""width: 300px; height: 300px;"" />
              </div>","null",""
"","","","","","html-keyboard-response","73","341628","0.0-73.0","20C7D855D1124DEF99BC26A3724087D7","b2045252-6ebd-4eba-b453-8546f9660fde","61e1ec61-13c7-4a8f-bf47-a91ec9909364","","null","<div style=""display: flex; justify-content: center; align-items: center;"">
                <img src=""images/causal/causal_series_15/causal_series_15_c.jpg"" style=""width: 300px; height: 300px;"" />
              </div>","null",""
"","","","","","html-button-response","74","342543","0.0-74.0","20C7D855D1124DEF99BC26A3724087D7","b2045252-6ebd-4eba-b453-8546f9660fde","61e1ec61-13c7-4a8f-bf47-a91ec9909364","","911","
    <div style=""display: flex; justify-content: center; align-items: center;"">
      <img src=""images/red_deck_2.png"" style=""width: 300px; height: 300px; margin-right: 10px;"" />
      <img src=""images/blue_deck_1.png"" style=""width: 300px; height: 300px;"" />
    </div>","1","1"
"","","","","","html-keyboard-response","75","345548","0.0-75.0-1.0-0.0","20C7D855D1124DEF99BC26A3724087D7","b2045252-6ebd-4eba-b453-8546f9660fde","61e1ec61-13c7-4a8f-bf47-a91ec9909364","","null","<div style=""display: flex; justify-content: center; align-items: center;"">
                <img src=""images/semantic/semantic_series_14/semantic_series_14_d.jpg"" style=""width: 300px; height: 300px;"" />
              </div>","null",""
"","","","","","html-keyboard-response","76","348565","0.0-76.0","20C7D855D1124DEF99BC26A3724087D7","b2045252-6ebd-4eba-b453-8546f9660fde","61e1ec61-13c7-4a8f-bf47-a91ec9909364","","null","<div style=""display: flex; justify-content: center; align-items: center;"">
                <img src=""images/other/blank.jpg"" style=""width: 300px; height: 300px;"" />
              </div>","null",""
"","","","","","html-keyboard-response","77","351567","0.0-77.0","20C7D855D1124DEF99BC26A3724087D7","b2045252-6ebd-4eba-b453-8546f9660fde","61e1ec61-13c7-4a8f-bf47-a91ec9909364","","null","<div style=""display: flex; justify-content: center; align-items: center;"">
                <img src=""images/causal/causal_series_8/causal_series_8_a.jpg"" style=""width: 300px; height: 300px;"" />
              </div>","null",""
"","","","","","html-keyboard-response","78","354580","0.0-78.0","20C7D855D1124DEF99BC26A3724087D7","b2045252-6ebd-4eba-b453-8546f9660fde","61e1ec61-13c7-4a8f-bf47-a91ec9909364","","null","<div style=""display: flex; justify-content: center; align-items: center;"">
                <img src=""images/causal/causal_series_8/causal_series_8_b.jpg"" style=""width: 300px; height: 300px;"" />
              </div>","null",""
"","","","","","html-keyboard-response","79","357588","0.0-79.0","20C7D855D1124DEF99BC26A3724087D7","b2045252-6ebd-4eba-b453-8546f9660fde","61e1ec61-13c7-4a8f-bf47-a91ec9909364","","null","<div style=""display: flex; justify-content: center; align-items: center;"">
                <img src=""images/causal/causal_series_8/causal_series_8_c.jpg"" style=""width: 300px; height: 300px;"" />
              </div>","null",""
"","","","","","html-button-response","80","359041","0.0-80.0","20C7D855D1124DEF99BC26A3724087D7","b2045252-6ebd-4eba-b453-8546f9660fde","61e1ec61-13c7-4a8f-bf47-a91ec9909364","","1450","
    <div style=""display: flex; justify-content: center; align-items: center;"">
      <img src=""images/red_deck_2.png"" style=""width: 300px; height: 300px; margin-right: 10px;"" />
      <img src=""images/blue_deck_1.png"" style=""width: 300px; height: 300px;"" />
    </div>","1","1"
"","","","","","html-keyboard-response","81","362054","0.0-81.0-1.0-0.0","20C7D855D1124DEF99BC26A3724087D7","b2045252-6ebd-4eba-b453-8546f9660fde","61e1ec61-13c7-4a8f-bf47-a91ec9909364","","null","<div style=""display: flex; justify-content: center; align-items: center;"">
                <img src=""images/semantic/semantic_series_7/semantic_series_7_d.jpg"" style=""width: 300px; height: 300px;"" />
              </div>","null",""
"","","","","","html-keyboard-response","82","365067","0.0-82.0","20C7D855D1124DEF99BC26A3724087D7","b2045252-6ebd-4eba-b453-8546f9660fde","61e1ec61-13c7-4a8f-bf47-a91ec9909364","","null","<div style=""display: flex; justify-content: center; align-items: center;"">
                <img src=""images/other/blank.jpg"" style=""width: 300px; height: 300px;"" />
              </div>","null",""
"","","","","","html-keyboard-response","83","368076","0.0-83.0","20C7D855D1124DEF99BC26A3724087D7","b2045252-6ebd-4eba-b453-8546f9660fde","61e1ec61-13c7-4a8f-bf47-a91ec9909364","","null","<div style=""display: flex; justify-content: center; align-items: center;"">
                <img src=""images/causal/causal_series_7/causal_series_7_a.jpg"" style=""width: 300px; height: 300px;"" />
              </div>","null",""
"","","","","","html-keyboard-response","84","371083","0.0-84.0","20C7D855D1124DEF99BC26A3724087D7","b2045252-6ebd-4eba-b453-8546f9660fde","61e1ec61-13c7-4a8f-bf47-a91ec9909364","","null","<div style=""display: flex; justify-content: center; align-items: center;"">
                <img src=""images/causal/causal_series_7/causal_series_7_b.jpg"" style=""width: 300px; height: 300px;"" />
              </div>","null",""
"","","","","","html-keyboard-response","85","374098","0.0-85.0","20C7D855D1124DEF99BC26A3724087D7","b2045252-6ebd-4eba-b453-8546f9660fde","61e1ec61-13c7-4a8f-bf47-a91ec9909364","","null","<div style=""display: flex; justify-content: center; align-items: center;"">
                <img src=""images/causal/causal_series_7/causal_series_7_c.jpg"" style=""width: 300px; height: 300px;"" />
              </div>","null",""
"","","","","","html-button-response","86","374925","0.0-86.0","20C7D855D1124DEF99BC26A3724087D7","b2045252-6ebd-4eba-b453-8546f9660fde","61e1ec61-13c7-4a8f-bf47-a91ec9909364","","825","
    <div style=""display: flex; justify-content: center; align-items: center;"">
      <img src=""images/red_deck_2.png"" style=""width: 300px; height: 300px; margin-right: 10px;"" />
      <img src=""images/blue_deck_1.png"" style=""width: 300px; height: 300px;"" />
    </div>","1","1"
"","","","","","html-keyboard-response","87","377936","0.0-87.0-1.0-0.0","20C7D855D1124DEF99BC26A3724087D7","b2045252-6ebd-4eba-b453-8546f9660fde","61e1ec61-13c7-4a8f-bf47-a91ec9909364","","null","<div style=""display: flex; justify-content: center; align-items: center;"">
                <img src=""images/semantic/semantic_series_6/semantic_series_6_d.jpg"" style=""width: 300px; height: 300px;"" />
              </div>","null",""
"","","","","","html-keyboard-response","88","380947","0.0-88.0","20C7D855D1124DEF99BC26A3724087D7","b2045252-6ebd-4eba-b453-8546f9660fde","61e1ec61-13c7-4a8f-bf47-a91ec9909364","","null","<div style=""display: flex; justify-content: center; align-items: center;"">
                <img src=""images/other/blank.jpg"" style=""width: 300px; height: 300px;"" />
              </div>","null",""
"","","","","","html-keyboard-response","89","383964","0.0-89.0","20C7D855D1124DEF99BC26A3724087D7","b2045252-6ebd-4eba-b453-8546f9660fde","61e1ec61-13c7-4a8f-bf47-a91ec9909364","","null","<div style=""display: flex; justify-content: center; align-items: center;"">
                <img src=""images/causal/causal_series_11/causal_series_11_a.jpg"" style=""width: 300px; height: 300px;"" />
              </div>","null",""
"","","","","","html-keyboard-response","90","386978","0.0-90.0","20C7D855D1124DEF99BC26A3724087D7","b2045252-6ebd-4eba-b453-8546f9660fde","61e1ec61-13c7-4a8f-bf47-a91ec9909364","","null","<div style=""display: flex; justify-content: center; align-items: center;"">
                <img src=""images/causal/causal_series_11/causal_series_11_b.jpg"" style=""width: 300px; height: 300px;"" />
              </div>","null",""
"","","","","","html-keyboard-response","91","389989","0.0-91.0","20C7D855D1124DEF99BC26A3724087D7","b2045252-6ebd-4eba-b453-8546f9660fde","61e1ec61-13c7-4a8f-bf47-a91ec9909364","","null","<div style=""display: flex; justify-content: center; align-items: center;"">
                <img src=""images/causal/causal_series_11/causal_series_11_c.jpg"" style=""width: 300px; height: 300px;"" />
              </div>","null",""
"","","","","","html-button-response","92","390809","0.0-92.0","20C7D855D1124DEF99BC26A3724087D7","b2045252-6ebd-4eba-b453-8546f9660fde","61e1ec61-13c7-4a8f-bf47-a91ec9909364","","817","
    <div style=""display: flex; justify-content: center; align-items: center;"">
      <img src=""images/red_deck_2.png"" style=""width: 300px; height: 300px; margin-right: 10px;"" />
      <img src=""images/blue_deck_1.png"" style=""width: 300px; height: 300px;"" />
    </div>","1","1"
"","","","","","html-keyboard-response","93","393826","0.0-93.0-1.0-0.0","20C7D855D1124DEF99BC26A3724087D7","b2045252-6ebd-4eba-b453-8546f9660fde","61e1ec61-13c7-4a8f-bf47-a91ec9909364","","null","<div style=""display: flex; justify-content: center; align-items: center;"">
                <img src=""images/semantic/semantic_series_10/semantic_series_10_d.jpg"" style=""width: 300px; height: 300px;"" />
              </div>","null",""
"","","","","","html-keyboard-response","94","396831","0.0-94.0","20C7D855D1124DEF99BC26A3724087D7","b2045252-6ebd-4eba-b453-8546f9660fde","61e1ec61-13c7-4a8f-bf47-a91ec9909364","","null","<div style=""display: flex; justify-content: center; align-items: center;"">
                <img src=""images/other/blank.jpg"" style=""width: 300px; height: 300px;"" />
              </div>","null",""
"","","","","","html-keyboard-response","95","399847","0.0-95.0","20C7D855D1124DEF99BC26A3724087D7","b2045252-6ebd-4eba-b453-8546f9660fde","61e1ec61-13c7-4a8f-bf47-a91ec9909364","","null","<div style=""display: flex; justify-content: center; align-items: center;"">
                <img src=""images/causal/causal_series_4/causal_series_4_a.jpg"" style=""width: 300px; height: 300px;"" />
              </div>","null",""
"","","","","","html-keyboard-response","96","402849","0.0-96.0","20C7D855D1124DEF99BC26A3724087D7","b2045252-6ebd-4eba-b453-8546f9660fde","61e1ec61-13c7-4a8f-bf47-a91ec9909364","","null","<div style=""display: flex; justify-content: center; align-items: center;"">
                <img src=""images/causal/causal_series_4/causal_series_4_b.jpg"" style=""width: 300px; height: 300px;"" />
              </div>","null",""
"","","","","","html-keyboard-response","97","405856","0.0-97.0","20C7D855D1124DEF99BC26A3724087D7","b2045252-6ebd-4eba-b453-8546f9660fde","61e1ec61-13c7-4a8f-bf47-a91ec9909364","","null","<div style=""display: flex; justify-content: center; align-items: center;"">
                <img src=""images/causal/causal_series_4/causal_series_4_c.jpg"" style=""width: 300px; height: 300px;"" />
              </div>","null",""
"","","","","","html-button-response","98","406842","0.0-98.0","20C7D855D1124DEF99BC26A3724087D7","b2045252-6ebd-4eba-b453-8546f9660fde","61e1ec61-13c7-4a8f-bf47-a91ec9909364","","984","
    <div style=""display: flex; justify-content: center; align-items: center;"">
      <img src=""images/red_deck_2.png"" style=""width: 300px; height: 300px; margin-right: 10px;"" />
      <img src=""images/blue_deck_1.png"" style=""width: 300px; height: 300px;"" />
    </div>","1","1"
"","","","","","html-keyboard-response","99","409851","0.0-99.0-1.0-0.0","20C7D855D1124DEF99BC26A3724087D7","b2045252-6ebd-4eba-b453-8546f9660fde","61e1ec61-13c7-4a8f-bf47-a91ec9909364","","null","<div style=""display: flex; justify-content: center; align-items: center;"">
                <img src=""images/semantic/semantic_series_3/semantic_series_3_d.jpg"" style=""width: 300px; height: 300px;"" />
              </div>","null",""
"","","","","","html-keyboard-response","100","412855","0.0-100.0","20C7D855D1124DEF99BC26A3724087D7","b2045252-6ebd-4eba-b453-8546f9660fde","61e1ec61-13c7-4a8f-bf47-a91ec9909364","","null","<div style=""display: flex; justify-content: center; align-items: center;"">
                <img src=""images/other/blank.jpg"" style=""width: 300px; height: 300px;"" />
              </div>","null",""
"","","","","","html-keyboard-response","101","415859","0.0-101.0","20C7D855D1124DEF99BC26A3724087D7","b2045252-6ebd-4eba-b453-8546f9660fde","61e1ec61-13c7-4a8f-bf47-a91ec9909364","","null","<div style=""display: flex; justify-content: center; align-items: center;"">
                <img src=""images/causal/causal_series_2/causal_series_2_a.jpg"" style=""width: 300px; height: 300px;"" />
              </div>","null",""
"","","","","","html-keyboard-response","102","418875","0.0-102.0","20C7D855D1124DEF99BC26A3724087D7","b2045252-6ebd-4eba-b453-8546f9660fde","61e1ec61-13c7-4a8f-bf47-a91ec9909364","","null","<div style=""display: flex; justify-content: center; align-items: center;"">
                <img src=""images/causal/causal_series_2/causal_series_2_b.jpg"" style=""width: 300px; height: 300px;"" />
              </div>","null",""
"","","","","","html-keyboard-response","103","421879","0.0-103.0","20C7D855D1124DEF99BC26A3724087D7","b2045252-6ebd-4eba-b453-8546f9660fde","61e1ec61-13c7-4a8f-bf47-a91ec9909364","","null","<div style=""display: flex; justify-content: center; align-items: center;"">
                <img src=""images/causal/causal_series_2/causal_series_2_c.jpg"" style=""width: 300px; height: 300px;"" />
              </div>","null",""
"","","","","","html-button-response","104","422663","0.0-104.0","20C7D855D1124DEF99BC26A3724087D7","b2045252-6ebd-4eba-b453-8546f9660fde","61e1ec61-13c7-4a8f-bf47-a91ec9909364","","781","
    <div style=""display: flex; justify-content: center; align-items: center;"">
      <img src=""images/red_deck_2.png"" style=""width: 300px; height: 300px; margin-right: 10px;"" />
      <img src=""images/blue_deck_1.png"" style=""width: 300px; height: 300px;"" />
    </div>","0","0"
"","","","","","html-keyboard-response","105","425672","0.0-105.0-0.0-0.0","20C7D855D1124DEF99BC26A3724087D7","b2045252-6ebd-4eba-b453-8546f9660fde","61e1ec61-13c7-4a8f-bf47-a91ec9909364","","null","<div style=""display: flex; justify-content: center; align-items: center;"">
                <img src=""images/causal/causal_series_2/causal_series_2_d.jpg"" style=""width: 300px; height: 300px;"" />
              </div>","null",""
"","","","","","html-keyboard-response","106","428690","0.0-106.0","20C7D855D1124DEF99BC26A3724087D7","b2045252-6ebd-4eba-b453-8546f9660fde","61e1ec61-13c7-4a8f-bf47-a91ec9909364","","null","<div style=""display: flex; justify-content: center; align-items: center;"">
                <img src=""images/other/blank.jpg"" style=""width: 300px; height: 300px;"" />
              </div>","null",""
"","","","","","html-keyboard-response","107","431705","0.0-107.0","20C7D855D1124DEF99BC26A3724087D7","b2045252-6ebd-4eba-b453-8546f9660fde","61e1ec61-13c7-4a8f-bf47-a91ec9909364","","null","<div style=""display: flex; justify-content: center; align-items: center;"">
                <img src=""images/causal/causal_series_17/causal_series_17_a.jpg"" style=""width: 300px; height: 300px;"" />
              </div>","null",""
"","","","","","html-keyboard-response","108","434708","0.0-108.0","20C7D855D1124DEF99BC26A3724087D7","b2045252-6ebd-4eba-b453-8546f9660fde","61e1ec61-13c7-4a8f-bf47-a91ec9909364","","null","<div style=""display: flex; justify-content: center; align-items: center;"">
                <img src=""images/causal/causal_series_17/causal_series_17_b.jpg"" style=""width: 300px; height: 300px;"" />
              </div>","null",""
"","","","","","html-keyboard-response","109","437712","0.0-109.0","20C7D855D1124DEF99BC26A3724087D7","b2045252-6ebd-4eba-b453-8546f9660fde","61e1ec61-13c7-4a8f-bf47-a91ec9909364","","null","<div style=""display: flex; justify-content: center; align-items: center;"">
                <img src=""images/causal/causal_series_17/causal_series_17_c.jpg"" style=""width: 300px; height: 300px;"" />
              </div>","null",""
"","","","","","html-button-response","110","438394","0.0-110.0","20C7D855D1124DEF99BC26A3724087D7","b2045252-6ebd-4eba-b453-8546f9660fde","61e1ec61-13c7-4a8f-bf47-a91ec9909364","","680","
    <div style=""display: flex; justify-content: center; align-items: center;"">
      <img src=""images/red_deck_2.png"" style=""width: 300px; height: 300px; margin-right: 10px;"" />
      <img src=""images/blue_deck_1.png"" style=""width: 300px; height: 300px;"" />
    </div>","0","0"
"","","","","","html-keyboard-response","111","441401","0.0-111.0-0.0-0.0","20C7D855D1124DEF99BC26A3724087D7","b2045252-6ebd-4eba-b453-8546f9660fde","61e1ec61-13c7-4a8f-bf47-a91ec9909364","","null","<div style=""display: flex; justify-content: center; align-items: center;"">
                <img src=""images/causal/causal_series_17/causal_series_17_d.jpg"" style=""width: 300px; height: 300px;"" />
              </div>","null",""
"","","","","","html-keyboard-response","112","444406","0.0-112.0","20C7D855D1124DEF99BC26A3724087D7","b2045252-6ebd-4eba-b453-8546f9660fde","61e1ec61-13c7-4a8f-bf47-a91ec9909364","","null","<div style=""display: flex; justify-content: center; align-items: center;"">
                <img src=""images/other/blank.jpg"" style=""width: 300px; height: 300px;"" />
              </div>","null",""
"","","","","","survey-text","113","492792","0.0-113.0","20C7D855D1124DEF99BC26A3724087D7","b2045252-6ebd-4eba-b453-8546f9660fde","61e1ec61-13c7-4a8f-bf47-a91ec9909364","","48371","","{""Q0"":""Red is always the next part of the story? Or it seemed like it. Blue had lots of cards that did not fit the narrative.""}",""
"","","","","","survey-text","114","500855","0.0-114.0","20C7D855D1124DEF99BC26A3724087D7","b2045252-6ebd-4eba-b453-8546f9660fde","61e1ec61-13c7-4a8f-bf47-a91ec9909364","","8053","","{""Q0"":""Red""}",""
"","","","","","html-button-response","115","504667","0.0-115.0","20C7D855D1124DEF99BC26A3724087D7","b2045252-6ebd-4eba-b453-8546f9660fde","61e1ec61-13c7-4a8f-bf47-a91ec9909364","","3809","Which color deck does the fourth image continue the story from the series?","1",""
"","","","","","html-button-response","116","508325","0.0-116.0","20C7D855D1124DEF99BC26A3724087D7","b2045252-6ebd-4eba-b453-8546f9660fde","61e1ec61-13c7-4a8f-bf47-a91ec9909364","","3654","Which color deck does the fourth image not follow the story from the series?","0",""
"","","","","","survey-text","117","514557","0.0-117.0","20C7D855D1124DEF99BC26A3724087D7","b2045252-6ebd-4eba-b453-8546f9660fde","61e1ec61-13c7-4a8f-bf47-a91ec9909364","","6217","","{""Q0"":""Male"",""Q1"":""23""}",""
"","","","","","instructions","118","519718","0.0-118.0","20C7D855D1124DEF99BC26A3724087D7","b2045252-6ebd-4eba-b453-8546f9660fde","61e1ec61-13c7-4a8f-bf47-a91ec9909364","[{""page_index"":0,""viewing_time"":5158}]","5159","","",""
