"success","timeout","failed_images","failed_audio","failed_video","trial_type","trial_index","time_elapsed","internal_node_id","subject_id","study_id","session_id","view_history","rt","stimulus","response","choice"
"true","false","[]","[]","[]","preload","0","939","0.0-0.0","FB469A0CC87245F09B147031601ECA2A","0199b048-400a-7b2f-b745-2f8dd7f031f5","0199b046-8dbe-72ff-97c2-b3cf5c366c31","","","","",""
"","","","","","instructions","1","11178","0.0-1.0","FB469A0CC87245F09B147031601ECA2A","0199b048-400a-7b2f-b745-2f8dd7f031f5","0199b046-8dbe-72ff-97c2-b3cf5c366c31","[{""page_index"":0,""viewing_time"":10237}]","10238","","",""
"","","","","","instructions","2","28413","0.0-2.0","FB469A0CC87245F09B147031601ECA2A","0199b048-400a-7b2f-b745-2f8dd7f031f5","0199b046-8dbe-72ff-97c2-b3cf5c366c31","[{""page_index"":0,""viewing_time"":17234}]","17234","","",""
"true","","","","","fullscreen","3","31467","0.0-3.0","FB469A0CC87245F09B147031601ECA2A","0199b048-400a-7b2f-b745-2f8dd7f031f5","0199b046-8dbe-72ff-97c2-b3cf5c366c31","","2041","","",""
"","","","","","instructions","4","50474","0.0-4.0","FB469A0CC87245F09B147031601ECA2A","0199b048-400a-7b2f-b745-2f8dd7f031f5","0199b046-8dbe-72ff-97c2-b3cf5c366c31","[{""page_index"":0,""viewing_time"":19005}]","19005","","",""
"","","","","","html-keyboard-response","5","57476","0.0-5.0","FB469A0CC87245F09B147031601ECA2A","0199b048-400a-7b2f-b745-2f8dd7f031f5","0199b046-8dbe-72ff-97c2-b3cf5c366c31","","null","<div style=""display: flex; justify-content: center; align-items: center;"">
                     <img src=""images/causal/causal_series_4/causal_series_4_a.png"" style=""width: 300px; height: 300px;"" />
                   </div>","null",""
"","","","","","html-button-response","6","66770","0.0-6.0","FB469A0CC87245F09B147031601ECA2A","0199b048-400a-7b2f-b745-2f8dd7f031f5","0199b046-8dbe-72ff-97c2-b3cf5c366c31","","9293","
        <div style=""display: flex; justify-content: center; align-items: center;"">
          <img src=""images/red_deck_2.png"" style=""width: 300px; height: 300px; margin-right: 10px;"" />
          <img src=""images/blue_deck_1.png"" style=""width: 300px; height: 300px;"" />
        </div>","1","1"
"","","","","","html-keyboard-response","7","73787","0.0-7.0-1.0-0.0","FB469A0CC87245F09B147031601ECA2A","0199b048-400a-7b2f-b745-2f8dd7f031f5","0199b046-8dbe-72ff-97c2-b3cf5c366c31","","null","<div style=""display: flex; justify-content: center; align-items: center;"">
                     <img src=""images/semantic/semantic_series_4/semantic_series_4_b.png"" style=""width: 300px; height: 300px;"" />
                   </div>","null",""
"","","","","","html-keyboard-response","8","80796","0.0-7.0-1.0-1.0","FB469A0CC87245F09B147031601ECA2A","0199b048-400a-7b2f-b745-2f8dd7f031f5","0199b046-8dbe-72ff-97c2-b3cf5c366c31","","null","<div style=""display: flex; justify-content: center; align-items: center;"">
                     <img src=""images/semantic/semantic_series_4/semantic_series_4_c.png"" style=""width: 300px; height: 300px;"" />
                   </div>","null",""
"","","","","","html-keyboard-response","9","87802","0.0-7.0-1.0-2.0","FB469A0CC87245F09B147031601ECA2A","0199b048-400a-7b2f-b745-2f8dd7f031f5","0199b046-8dbe-72ff-97c2-b3cf5c366c31","","null","<div style=""display: flex; justify-content: center; align-items: center;"">
                     <img src=""images/semantic/semantic_series_4/semantic_series_4_d.png"" style=""width: 300px; height: 300px;"" />
                   </div>","null",""
"","","","","","html-keyboard-response","10","94805","0.0-8.0","FB469A0CC87245F09B147031601ECA2A","0199b048-400a-7b2f-b745-2f8dd7f031f5","0199b046-8dbe-72ff-97c2-b3cf5c366c31","","null","<div style=""display: flex; justify-content: center; align-items: center;"">
                     <img src=""images/other/blank.png"" style=""width: 300px; height: 300px;"" />
                   </div>","null",""
"","","","","","html-keyboard-response","11","101822","0.0-9.0","FB469A0CC87245F09B147031601ECA2A","0199b048-400a-7b2f-b745-2f8dd7f031f5","0199b046-8dbe-72ff-97c2-b3cf5c366c31","","null","<div style=""display: flex; justify-content: center; align-items: center;"">
                     <img src=""images/causal/causal_series_5/causal_series_5_a.png"" style=""width: 300px; height: 300px;"" />
                   </div>","null",""
"","","","","","html-button-response","12","103579","0.0-10.0","FB469A0CC87245F09B147031601ECA2A","0199b048-400a-7b2f-b745-2f8dd7f031f5","0199b046-8dbe-72ff-97c2-b3cf5c366c31","","1755","
        <div style=""display: flex; justify-content: center; align-items: center;"">
          <img src=""images/red_deck_2.png"" style=""width: 300px; height: 300px; margin-right: 10px;"" />
          <img src=""images/blue_deck_1.png"" style=""width: 300px; height: 300px;"" />
        </div>","1","1"
"","","","","","html-keyboard-response","13","110583","0.0-11.0-1.0-0.0","FB469A0CC87245F09B147031601ECA2A","0199b048-400a-7b2f-b745-2f8dd7f031f5","0199b046-8dbe-72ff-97c2-b3cf5c366c31","","null","<div style=""display: flex; justify-content: center; align-items: center;"">
                     <img src=""images/semantic/semantic_series_5/semantic_series_5_b.png"" style=""width: 300px; height: 300px;"" />
                   </div>","null",""
"","","","","","html-keyboard-response","14","117598","0.0-11.0-1.0-1.0","FB469A0CC87245F09B147031601ECA2A","0199b048-400a-7b2f-b745-2f8dd7f031f5","0199b046-8dbe-72ff-97c2-b3cf5c366c31","","null","<div style=""display: flex; justify-content: center; align-items: center;"">
                     <img src=""images/semantic/semantic_series_5/semantic_series_5_c.png"" style=""width: 300px; height: 300px;"" />
                   </div>","null",""
"","","","","","html-keyboard-response","15","124613","0.0-11.0-1.0-2.0","FB469A0CC87245F09B147031601ECA2A","0199b048-400a-7b2f-b745-2f8dd7f031f5","0199b046-8dbe-72ff-97c2-b3cf5c366c31","","null","<div style=""display: flex; justify-content: center; align-items: center;"">
                     <img src=""images/semantic/semantic_series_5/semantic_series_5_d.png"" style=""width: 300px; height: 300px;"" />
                   </div>","null",""
"","","","","","html-keyboard-response","16","131628","0.0-12.0","FB469A0CC87245F09B147031601ECA2A","0199b048-400a-7b2f-b745-2f8dd7f031f5","0199b046-8dbe-72ff-97c2-b3cf5c366c31","","null","<div style=""display: flex; justify-content: center; align-items: center;"">
                     <img src=""images/other/blank.png"" style=""width: 300px; height: 300px;"" />
                   </div>","null",""
"","","","","","html-keyboard-response","17","138642","0.0-13.0","FB469A0CC87245F09B147031601ECA2A","0199b048-400a-7b2f-b745-2f8dd7f031f5","0199b046-8dbe-72ff-97c2-b3cf5c366c31","","null","<div style=""display: flex; justify-content: center; align-items: center;"">
                     <img src=""images/causal/causal_series_7/causal_series_7_a.png"" style=""width: 300px; height: 300px;"" />
                   </div>","null",""
"","","","","","html-button-response","18","140743","0.0-14.0","FB469A0CC87245F09B147031601ECA2A","0199b048-400a-7b2f-b745-2f8dd7f031f5","0199b046-8dbe-72ff-97c2-b3cf5c366c31","","2099","
        <div style=""display: flex; justify-content: center; align-items: center;"">
          <img src=""images/red_deck_2.png"" style=""width: 300px; height: 300px; margin-right: 10px;"" />
          <img src=""images/blue_deck_1.png"" style=""width: 300px; height: 300px;"" />
        </div>","1","1"
"","","","","","html-keyboard-response","19","147745","0.0-15.0-1.0-0.0","FB469A0CC87245F09B147031601ECA2A","0199b048-400a-7b2f-b745-2f8dd7f031f5","0199b046-8dbe-72ff-97c2-b3cf5c366c31","","null","<div style=""display: flex; justify-content: center; align-items: center;"">
                     <img src=""images/semantic/semantic_series_7/semantic_series_7_b.png"" style=""width: 300px; height: 300px;"" />
                   </div>","null",""
"","","","","","html-keyboard-response","20","154756","0.0-15.0-1.0-1.0","FB469A0CC87245F09B147031601ECA2A","0199b048-400a-7b2f-b745-2f8dd7f031f5","0199b046-8dbe-72ff-97c2-b3cf5c366c31","","null","<div style=""display: flex; justify-content: center; align-items: center;"">
                     <img src=""images/semantic/semantic_series_7/semantic_series_7_c.png"" style=""width: 300px; height: 300px;"" />
                   </div>","null",""
"","","","","","html-keyboard-response","21","161773","0.0-15.0-1.0-2.0","FB469A0CC87245F09B147031601ECA2A","0199b048-400a-7b2f-b745-2f8dd7f031f5","0199b046-8dbe-72ff-97c2-b3cf5c366c31","","null","<div style=""display: flex; justify-content: center; align-items: center;"">
                     <img src=""images/semantic/semantic_series_7/semantic_series_7_d.png"" style=""width: 300px; height: 300px;"" />
                   </div>","null",""
"","","","","","html-keyboard-response","22","168776","0.0-16.0","FB469A0CC87245F09B147031601ECA2A","0199b048-400a-7b2f-b745-2f8dd7f031f5","0199b046-8dbe-72ff-97c2-b3cf5c366c31","","null","<div style=""display: flex; justify-content: center; align-items: center;"">
                     <img src=""images/other/blank.png"" style=""width: 300px; height: 300px;"" />
                   </div>","null",""
"","","","","","html-keyboard-response","23","175780","0.0-17.0","FB469A0CC87245F09B147031601ECA2A","0199b048-400a-7b2f-b745-2f8dd7f031f5","0199b046-8dbe-72ff-97c2-b3cf5c366c31","","null","<div style=""display: flex; justify-content: center; align-items: center;"">
                     <img src=""images/causal/causal_series_2/causal_series_2_a.png"" style=""width: 300px; height: 300px;"" />
                   </div>","null",""
"","","","","","html-button-response","24","176720","0.0-18.0","FB469A0CC87245F09B147031601ECA2A","0199b048-400a-7b2f-b745-2f8dd7f031f5","0199b046-8dbe-72ff-97c2-b3cf5c366c31","","938","
        <div style=""display: flex; justify-content: center; align-items: center;"">
          <img src=""images/red_deck_2.png"" style=""width: 300px; height: 300px; margin-right: 10px;"" />
          <img src=""images/blue_deck_1.png"" style=""width: 300px; height: 300px;"" />
        </div>","1","1"
"","","","","","html-keyboard-response","25","183723","0.0-19.0-1.0-0.0","FB469A0CC87245F09B147031601ECA2A","0199b048-400a-7b2f-b745-2f8dd7f031f5","0199b046-8dbe-72ff-97c2-b3cf5c366c31","","null","<div style=""display: flex; justify-content: center; align-items: center;"">
                     <img src=""images/semantic/semantic_series_2/semantic_series_2_b.png"" style=""width: 300px; height: 300px;"" />
                   </div>","null",""
"","","","","","html-keyboard-response","26","190734","0.0-19.0-1.0-1.0","FB469A0CC87245F09B147031601ECA2A","0199b048-400a-7b2f-b745-2f8dd7f031f5","0199b046-8dbe-72ff-97c2-b3cf5c366c31","","null","<div style=""display: flex; justify-content: center; align-items: center;"">
                     <img src=""images/semantic/semantic_series_2/semantic_series_2_c.png"" style=""width: 300px; height: 300px;"" />
                   </div>","null",""
"","","","","","html-keyboard-response","27","197745","0.0-19.0-1.0-2.0","FB469A0CC87245F09B147031601ECA2A","0199b048-400a-7b2f-b745-2f8dd7f031f5","0199b046-8dbe-72ff-97c2-b3cf5c366c31","","null","<div style=""display: flex; justify-content: center; align-items: center;"">
                     <img src=""images/semantic/semantic_series_2/semantic_series_2_d.png"" style=""width: 300px; height: 300px;"" />
                   </div>","null",""
"","","","","","html-keyboard-response","28","204748","0.0-20.0","FB469A0CC87245F09B147031601ECA2A","0199b048-400a-7b2f-b745-2f8dd7f031f5","0199b046-8dbe-72ff-97c2-b3cf5c366c31","","null","<div style=""display: flex; justify-content: center; align-items: center;"">
                     <img src=""images/other/blank.png"" style=""width: 300px; height: 300px;"" />
                   </div>","null",""
"","","","","","html-keyboard-response","29","211765","0.0-21.0","FB469A0CC87245F09B147031601ECA2A","0199b048-400a-7b2f-b745-2f8dd7f031f5","0199b046-8dbe-72ff-97c2-b3cf5c366c31","","null","<div style=""display: flex; justify-content: center; align-items: center;"">
                     <img src=""images/causal/causal_series_1/causal_series_1_a.png"" style=""width: 300px; height: 300px;"" />
                   </div>","null",""
"","","","","","html-button-response","30","213545","0.0-22.0","FB469A0CC87245F09B147031601ECA2A","0199b048-400a-7b2f-b745-2f8dd7f031f5","0199b046-8dbe-72ff-97c2-b3cf5c366c31","","1777","
        <div style=""display: flex; justify-content: center; align-items: center;"">
          <img src=""images/red_deck_2.png"" style=""width: 300px; height: 300px; margin-right: 10px;"" />
          <img src=""images/blue_deck_1.png"" style=""width: 300px; height: 300px;"" />
        </div>","1","1"
"","","","","","html-keyboard-response","31","220560","0.0-23.0-1.0-0.0","FB469A0CC87245F09B147031601ECA2A","0199b048-400a-7b2f-b745-2f8dd7f031f5","0199b046-8dbe-72ff-97c2-b3cf5c366c31","","null","<div style=""display: flex; justify-content: center; align-items: center;"">
                     <img src=""images/semantic/semantic_series_1/semantic_series_1_b.png"" style=""width: 300px; height: 300px;"" />
                   </div>","null",""
"","","","","","html-keyboard-response","32","227563","0.0-23.0-1.0-1.0","FB469A0CC87245F09B147031601ECA2A","0199b048-400a-7b2f-b745-2f8dd7f031f5","0199b046-8dbe-72ff-97c2-b3cf5c366c31","","null","<div style=""display: flex; justify-content: center; align-items: center;"">
                     <img src=""images/semantic/semantic_series_1/semantic_series_1_c.png"" style=""width: 300px; height: 300px;"" />
                   </div>","null",""
"","","","","","html-keyboard-response","33","234577","0.0-23.0-1.0-2.0","FB469A0CC87245F09B147031601ECA2A","0199b048-400a-7b2f-b745-2f8dd7f031f5","0199b046-8dbe-72ff-97c2-b3cf5c366c31","","null","<div style=""display: flex; justify-content: center; align-items: center;"">
                     <img src=""images/semantic/semantic_series_1/semantic_series_1_d.png"" style=""width: 300px; height: 300px;"" />
                   </div>","null",""
"","","","","","html-keyboard-response","34","241589","0.0-24.0","FB469A0CC87245F09B147031601ECA2A","0199b048-400a-7b2f-b745-2f8dd7f031f5","0199b046-8dbe-72ff-97c2-b3cf5c366c31","","null","<div style=""display: flex; justify-content: center; align-items: center;"">
                     <img src=""images/other/blank.png"" style=""width: 300px; height: 300px;"" />
                   </div>","null",""
"","","","","","html-keyboard-response","35","248599","0.0-25.0","FB469A0CC87245F09B147031601ECA2A","0199b048-400a-7b2f-b745-2f8dd7f031f5","0199b046-8dbe-72ff-97c2-b3cf5c366c31","","null","<div style=""display: flex; justify-content: center; align-items: center;"">
                     <img src=""images/causal/causal_series_6/causal_series_6_a.png"" style=""width: 300px; height: 300px;"" />
                   </div>","null",""
"","","","","","html-button-response","36","250391","0.0-26.0","FB469A0CC87245F09B147031601ECA2A","0199b048-400a-7b2f-b745-2f8dd7f031f5","0199b046-8dbe-72ff-97c2-b3cf5c366c31","","1790","
        <div style=""display: flex; justify-content: center; align-items: center;"">
          <img src=""images/red_deck_2.png"" style=""width: 300px; height: 300px; margin-right: 10px;"" />
          <img src=""images/blue_deck_1.png"" style=""width: 300px; height: 300px;"" />
        </div>","1","1"
"","","","","","html-keyboard-response","37","257405","0.0-27.0-1.0-0.0","FB469A0CC87245F09B147031601ECA2A","0199b048-400a-7b2f-b745-2f8dd7f031f5","0199b046-8dbe-72ff-97c2-b3cf5c366c31","","null","<div style=""display: flex; justify-content: center; align-items: center;"">
                     <img src=""images/semantic/semantic_series_6/semantic_series_6_b.png"" style=""width: 300px; height: 300px;"" />
                   </div>","null",""
"","","","","","html-keyboard-response","38","264417","0.0-27.0-1.0-1.0","FB469A0CC87245F09B147031601ECA2A","0199b048-400a-7b2f-b745-2f8dd7f031f5","0199b046-8dbe-72ff-97c2-b3cf5c366c31","","null","<div style=""display: flex; justify-content: center; align-items: center;"">
                     <img src=""images/semantic/semantic_series_6/semantic_series_6_c.png"" style=""width: 300px; height: 300px;"" />
                   </div>","null",""
"","","","","","html-keyboard-response","39","271433","0.0-27.0-1.0-2.0","FB469A0CC87245F09B147031601ECA2A","0199b048-400a-7b2f-b745-2f8dd7f031f5","0199b046-8dbe-72ff-97c2-b3cf5c366c31","","null","<div style=""display: flex; justify-content: center; align-items: center;"">
                     <img src=""images/semantic/semantic_series_6/semantic_series_6_d.png"" style=""width: 300px; height: 300px;"" />
                   </div>","null",""
"","","","","","html-keyboard-response","40","278441","0.0-28.0","FB469A0CC87245F09B147031601ECA2A","0199b048-400a-7b2f-b745-2f8dd7f031f5","0199b046-8dbe-72ff-97c2-b3cf5c366c31","","null","<div style=""display: flex; justify-content: center; align-items: center;"">
                     <img src=""images/other/blank.png"" style=""width: 300px; height: 300px;"" />
                   </div>","null",""
"","","","","","html-keyboard-response","41","285458","0.0-29.0","FB469A0CC87245F09B147031601ECA2A","0199b048-400a-7b2f-b745-2f8dd7f031f5","0199b046-8dbe-72ff-97c2-b3cf5c366c31","","null","<div style=""display: flex; justify-content: center; align-items: center;"">
                     <img src=""images/causal/causal_series_8/causal_series_8_a.png"" style=""width: 300px; height: 300px;"" />
                   </div>","null",""
"","","","","","html-button-response","42","286533","0.0-30.0","FB469A0CC87245F09B147031601ECA2A","0199b048-400a-7b2f-b745-2f8dd7f031f5","0199b046-8dbe-72ff-97c2-b3cf5c366c31","","1074","
        <div style=""display: flex; justify-content: center; align-items: center;"">
          <img src=""images/red_deck_2.png"" style=""width: 300px; height: 300px; margin-right: 10px;"" />
          <img src=""images/blue_deck_1.png"" style=""width: 300px; height: 300px;"" />
        </div>","1","1"
"","","","","","html-keyboard-response","43","293535","0.0-31.0-1.0-0.0","FB469A0CC87245F09B147031601ECA2A","0199b048-400a-7b2f-b745-2f8dd7f031f5","0199b046-8dbe-72ff-97c2-b3cf5c366c31","","null","<div style=""display: flex; justify-content: center; align-items: center;"">
                     <img src=""images/semantic/semantic_series_8/semantic_series_8_b.png"" style=""width: 300px; height: 300px;"" />
                   </div>","null",""
"","","","","","html-keyboard-response","44","300545","0.0-31.0-1.0-1.0","FB469A0CC87245F09B147031601ECA2A","0199b048-400a-7b2f-b745-2f8dd7f031f5","0199b046-8dbe-72ff-97c2-b3cf5c366c31","","null","<div style=""display: flex; justify-content: center; align-items: center;"">
                     <img src=""images/semantic/semantic_series_8/semantic_series_8_c.png"" style=""width: 300px; height: 300px;"" />
                   </div>","null",""
"","","","","","html-keyboard-response","45","307559","0.0-31.0-1.0-2.0","FB469A0CC87245F09B147031601ECA2A","0199b048-400a-7b2f-b745-2f8dd7f031f5","0199b046-8dbe-72ff-97c2-b3cf5c366c31","","null","<div style=""display: flex; justify-content: center; align-items: center;"">
                     <img src=""images/semantic/semantic_series_8/semantic_series_8_d.png"" style=""width: 300px; height: 300px;"" />
                   </div>","null",""
"","","","","","html-keyboard-response","46","314569","0.0-32.0","FB469A0CC87245F09B147031601ECA2A","0199b048-400a-7b2f-b745-2f8dd7f031f5","0199b046-8dbe-72ff-97c2-b3cf5c366c31","","null","<div style=""display: flex; justify-content: center; align-items: center;"">
                     <img src=""images/other/blank.png"" style=""width: 300px; height: 300px;"" />
                   </div>","null",""
"","","","","","html-keyboard-response","47","321584","0.0-33.0","FB469A0CC87245F09B147031601ECA2A","0199b048-400a-7b2f-b745-2f8dd7f031f5","0199b046-8dbe-72ff-97c2-b3cf5c366c31","","null","<div style=""display: flex; justify-content: center; align-items: center;"">
                     <img src=""images/causal/causal_series_10/causal_series_10_a.png"" style=""width: 300px; height: 300px;"" />
                   </div>","null",""
"","","","","","html-button-response","48","324012","0.0-34.0","FB469A0CC87245F09B147031601ECA2A","0199b048-400a-7b2f-b745-2f8dd7f031f5","0199b046-8dbe-72ff-97c2-b3cf5c366c31","","2424","
        <div style=""display: flex; justify-content: center; align-items: center;"">
          <img src=""images/red_deck_2.png"" style=""width: 300px; height: 300px; margin-right: 10px;"" />
          <img src=""images/blue_deck_1.png"" style=""width: 300px; height: 300px;"" />
        </div>","1","1"
"","","","","","html-keyboard-response","49","331020","0.0-35.0-1.0-0.0","FB469A0CC87245F09B147031601ECA2A","0199b048-400a-7b2f-b745-2f8dd7f031f5","0199b046-8dbe-72ff-97c2-b3cf5c366c31","","null","<div style=""display: flex; justify-content: center; align-items: center;"">
                     <img src=""images/semantic/semantic_series_10/semantic_series_10_b.png"" style=""width: 300px; height: 300px;"" />
                   </div>","null",""
"","","","","","html-keyboard-response","50","338032","0.0-35.0-1.0-1.0","FB469A0CC87245F09B147031601ECA2A","0199b048-400a-7b2f-b745-2f8dd7f031f5","0199b046-8dbe-72ff-97c2-b3cf5c366c31","","null","<div style=""display: flex; justify-content: center; align-items: center;"">
                     <img src=""images/semantic/semantic_series_10/semantic_series_10_c.png"" style=""width: 300px; height: 300px;"" />
                   </div>","null",""
"","","","","","html-keyboard-response","51","345036","0.0-35.0-1.0-2.0","FB469A0CC87245F09B147031601ECA2A","0199b048-400a-7b2f-b745-2f8dd7f031f5","0199b046-8dbe-72ff-97c2-b3cf5c366c31","","null","<div style=""display: flex; justify-content: center; align-items: center;"">
                     <img src=""images/semantic/semantic_series_10/semantic_series_10_d.png"" style=""width: 300px; height: 300px;"" />
                   </div>","null",""
"","","","","","html-keyboard-response","52","352041","0.0-36.0","FB469A0CC87245F09B147031601ECA2A","0199b048-400a-7b2f-b745-2f8dd7f031f5","0199b046-8dbe-72ff-97c2-b3cf5c366c31","","null","<div style=""display: flex; justify-content: center; align-items: center;"">
                     <img src=""images/other/blank.png"" style=""width: 300px; height: 300px;"" />
                   </div>","null",""
"","","","","","html-keyboard-response","53","359047","0.0-37.0","FB469A0CC87245F09B147031601ECA2A","0199b048-400a-7b2f-b745-2f8dd7f031f5","0199b046-8dbe-72ff-97c2-b3cf5c366c31","","null","<div style=""display: flex; justify-content: center; align-items: center;"">
                     <img src=""images/causal/causal_series_9/causal_series_9_a.png"" style=""width: 300px; height: 300px;"" />
                   </div>","null",""
"","","","","","html-button-response","54","360532","0.0-38.0","FB469A0CC87245F09B147031601ECA2A","0199b048-400a-7b2f-b745-2f8dd7f031f5","0199b046-8dbe-72ff-97c2-b3cf5c366c31","","1483","
        <div style=""display: flex; justify-content: center; align-items: center;"">
          <img src=""images/red_deck_2.png"" style=""width: 300px; height: 300px; margin-right: 10px;"" />
          <img src=""images/blue_deck_1.png"" style=""width: 300px; height: 300px;"" />
        </div>","1","1"
"","","","","","html-keyboard-response","55","367548","0.0-39.0-1.0-0.0","FB469A0CC87245F09B147031601ECA2A","0199b048-400a-7b2f-b745-2f8dd7f031f5","0199b046-8dbe-72ff-97c2-b3cf5c366c31","","null","<div style=""display: flex; justify-content: center; align-items: center;"">
                     <img src=""images/semantic/semantic_series_9/semantic_series_9_b.png"" style=""width: 300px; height: 300px;"" />
                   </div>","null",""
"","","","","","html-keyboard-response","56","374556","0.0-39.0-1.0-1.0","FB469A0CC87245F09B147031601ECA2A","0199b048-400a-7b2f-b745-2f8dd7f031f5","0199b046-8dbe-72ff-97c2-b3cf5c366c31","","null","<div style=""display: flex; justify-content: center; align-items: center;"">
                     <img src=""images/semantic/semantic_series_9/semantic_series_9_c.png"" style=""width: 300px; height: 300px;"" />
                   </div>","null",""
"","","","","","html-keyboard-response","57","381564","0.0-39.0-1.0-2.0","FB469A0CC87245F09B147031601ECA2A","0199b048-400a-7b2f-b745-2f8dd7f031f5","0199b046-8dbe-72ff-97c2-b3cf5c366c31","","null","<div style=""display: flex; justify-content: center; align-items: center;"">
                     <img src=""images/semantic/semantic_series_9/semantic_series_9_d.png"" style=""width: 300px; height: 300px;"" />
                   </div>","null",""
"","","","","","html-keyboard-response","58","388569","0.0-40.0","FB469A0CC87245F09B147031601ECA2A","0199b048-400a-7b2f-b745-2f8dd7f031f5","0199b046-8dbe-72ff-97c2-b3cf5c366c31","","null","<div style=""display: flex; justify-content: center; align-items: center;"">
                     <img src=""images/other/blank.png"" style=""width: 300px; height: 300px;"" />
                   </div>","null",""
"","","","","","html-keyboard-response","59","395582","0.0-41.0","FB469A0CC87245F09B147031601ECA2A","0199b048-400a-7b2f-b745-2f8dd7f031f5","0199b046-8dbe-72ff-97c2-b3cf5c366c31","","null","<div style=""display: flex; justify-content: center; align-items: center;"">
                     <img src=""images/causal/causal_series_3/causal_series_3_a.png"" style=""width: 300px; height: 300px;"" />
                   </div>","null",""
"","","","","","html-button-response","60","396554","0.0-42.0","FB469A0CC87245F09B147031601ECA2A","0199b048-400a-7b2f-b745-2f8dd7f031f5","0199b046-8dbe-72ff-97c2-b3cf5c366c31","","970","
        <div style=""display: flex; justify-content: center; align-items: center;"">
          <img src=""images/red_deck_2.png"" style=""width: 300px; height: 300px; margin-right: 10px;"" />
          <img src=""images/blue_deck_1.png"" style=""width: 300px; height: 300px;"" />
        </div>","1","1"
"","","","","","html-keyboard-response","61","403571","0.0-43.0-1.0-0.0","FB469A0CC87245F09B147031601ECA2A","0199b048-400a-7b2f-b745-2f8dd7f031f5","0199b046-8dbe-72ff-97c2-b3cf5c366c31","","null","<div style=""display: flex; justify-content: center; align-items: center;"">
                     <img src=""images/semantic/semantic_series_3/semantic_series_3_b.png"" style=""width: 300px; height: 300px;"" />
                   </div>","null",""
"","","","","","html-keyboard-response","62","410585","0.0-43.0-1.0-1.0","FB469A0CC87245F09B147031601ECA2A","0199b048-400a-7b2f-b745-2f8dd7f031f5","0199b046-8dbe-72ff-97c2-b3cf5c366c31","","null","<div style=""display: flex; justify-content: center; align-items: center;"">
                     <img src=""images/semantic/semantic_series_3/semantic_series_3_c.png"" style=""width: 300px; height: 300px;"" />
                   </div>","null",""
"","","","","","html-keyboard-response","63","417594","0.0-43.0-1.0-2.0","FB469A0CC87245F09B147031601ECA2A","0199b048-400a-7b2f-b745-2f8dd7f031f5","0199b046-8dbe-72ff-97c2-b3cf5c366c31","","null","<div style=""display: flex; justify-content: center; align-items: center;"">
                     <img src=""images/semantic/semantic_series_3/semantic_series_3_d.png"" style=""width: 300px; height: 300px;"" />
                   </div>","null",""
"","","","","","html-keyboard-response","64","424605","0.0-44.0","FB469A0CC87245F09B147031601ECA2A","0199b048-400a-7b2f-b745-2f8dd7f031f5","0199b046-8dbe-72ff-97c2-b3cf5c366c31","","null","<div style=""display: flex; justify-content: center; align-items: center;"">
                     <img src=""images/other/blank.png"" style=""width: 300px; height: 300px;"" />
                   </div>","null",""
"","","","","","survey-text","65","448175","0.0-45.0","FB469A0CC87245F09B147031601ECA2A","0199b048-400a-7b2f-b745-2f8dd7f031f5","0199b046-8dbe-72ff-97c2-b3cf5c366c31","","23556","","{""Q0"":""I only chose blue.""}",""
"","","","","","survey-text","66","452974","0.0-46.0","FB469A0CC87245F09B147031601ECA2A","0199b048-400a-7b2f-b745-2f8dd7f031f5","0199b046-8dbe-72ff-97c2-b3cf5c366c31","","4797","","{""Q0"":""Blue.""}",""
"","","","","","html-button-response","67","463274","0.0-47.0","FB469A0CC87245F09B147031601ECA2A","0199b048-400a-7b2f-b745-2f8dd7f031f5","0199b046-8dbe-72ff-97c2-b3cf5c366c31","","10300","Which color deck does the following images continue the story from?","0",""
"","","","","","html-button-response","68","467440","0.0-48.0","FB469A0CC87245F09B147031601ECA2A","0199b048-400a-7b2f-b745-2f8dd7f031f5","0199b046-8dbe-72ff-97c2-b3cf5c366c31","","4165","Which color deck do the following images NOT follow the story from?","1",""
"","","","","","survey-text","69","477348","0.0-49.0","FB469A0CC87245F09B147031601ECA2A","0199b048-400a-7b2f-b745-2f8dd7f031f5","0199b046-8dbe-72ff-97c2-b3cf5c366c31","","9905","","{""Q0"":""Female"",""Q1"":""19""}",""
"","","","","","instructions","70","482814","0.0-50.0","FB469A0CC87245F09B147031601ECA2A","0199b048-400a-7b2f-b745-2f8dd7f031f5","0199b046-8dbe-72ff-97c2-b3cf5c366c31","[{""page_index"":0,""viewing_time"":5466}]","5466","","",""
