"success","timeout","failed_images","failed_audio","failed_video","trial_type","trial_index","time_elapsed","internal_node_id","subject_id","study_id","session_id","view_history","rt","stimulus","response","choice"
"true","false","[]","[]","[]","preload","0","3398","0.0-0.0","ED19DDF31D2C4884BED51128199919E6","c6401d3c-d46e-4ef3-8304-de6721c4b0ba","4f03f330-5f91-43fc-aa61-d9dda6d26521","","","","",""
"","","","","","instructions","1","6563","0.0-1.0","ED19DDF31D2C4884BED51128199919E6","c6401d3c-d46e-4ef3-8304-de6721c4b0ba","4f03f330-5f91-43fc-aa61-d9dda6d26521","[{""page_index"":0,""viewing_time"":3165}]","3165","","",""
"","","","","","instructions","2","11139","0.0-2.0","ED19DDF31D2C4884BED51128199919E6","c6401d3c-d46e-4ef3-8304-de6721c4b0ba","4f03f330-5f91-43fc-aa61-d9dda6d26521","[{""page_index"":0,""viewing_time"":4575}]","4575","","",""
"true","","","","","fullscreen","3","13939","0.0-3.0","ED19DDF31D2C4884BED51128199919E6","c6401d3c-d46e-4ef3-8304-de6721c4b0ba","4f03f330-5f91-43fc-aa61-d9dda6d26521","","1783","","",""
"","","","","","instructions","4","28066","0.0-4.0","ED19DDF31D2C4884BED51128199919E6","c6401d3c-d46e-4ef3-8304-de6721c4b0ba","4f03f330-5f91-43fc-aa61-d9dda6d26521","[{""page_index"":0,""viewing_time"":14127}]","14127","","",""
"","","","","","html-keyboard-response","5","31075","0.0-5.0","ED19DDF31D2C4884BED51128199919E6","c6401d3c-d46e-4ef3-8304-de6721c4b0ba","4f03f330-5f91-43fc-aa61-d9dda6d26521","","null","<div style=""display: flex; justify-content: center; align-items: center;"">
                <img src=""images/causal/causal_series_10/causal_series_10_a.jpg"" style=""width: 300px; height: 300px;"" />
              </div>","null",""
"","","","","","html-button-response","6","34082","0.0-6.0","ED19DDF31D2C4884BED51128199919E6","c6401d3c-d46e-4ef3-8304-de6721c4b0ba","4f03f330-5f91-43fc-aa61-d9dda6d26521","","3006","
    <div style=""display: flex; justify-content: center; align-items: center;"">
      <img src=""images/red_deck_2.png"" style=""width: 300px; height: 300px; margin-right: 10px;"" />
      <img src=""images/blue_deck_1.png"" style=""width: 300px; height: 300px;"" />
    </div>","1","1"
"","","","","","html-keyboard-response","7","37095","0.0-7.0-1.0-0.0","ED19DDF31D2C4884BED51128199919E6","c6401d3c-d46e-4ef3-8304-de6721c4b0ba","4f03f330-5f91-43fc-aa61-d9dda6d26521","","null","<div style=""display: flex; justify-content: center; align-items: center;"">
                <img src=""images/semantic/semantic_series_9/semantic_series_9_d.jpg"" style=""width: 300px; height: 300px;"" />
              </div>","null",""
"","","","","","html-keyboard-response","8","40103","0.0-7.0-1.0-1.0","ED19DDF31D2C4884BED51128199919E6","c6401d3c-d46e-4ef3-8304-de6721c4b0ba","4f03f330-5f91-43fc-aa61-d9dda6d26521","","null","<div style=""display: flex; justify-content: center; align-items: center;"">
                <img src=""images/semantic/semantic_series_10/semantic_series_10_d.jpg"" style=""width: 300px; height: 300px;"" />
              </div>","null",""
"","","","","","html-keyboard-response","9","43119","0.0-7.0-1.0-2.0","ED19DDF31D2C4884BED51128199919E6","c6401d3c-d46e-4ef3-8304-de6721c4b0ba","4f03f330-5f91-43fc-aa61-d9dda6d26521","","null","<div style=""display: flex; justify-content: center; align-items: center;"">
                <img src=""images/semantic/semantic_series_11/semantic_series_11_d.jpg"" style=""width: 300px; height: 300px;"" />
              </div>","null",""
"","","","","","html-keyboard-response","10","46126","0.0-8.0","ED19DDF31D2C4884BED51128199919E6","c6401d3c-d46e-4ef3-8304-de6721c4b0ba","4f03f330-5f91-43fc-aa61-d9dda6d26521","","null","<div style=""display: flex; justify-content: center; align-items: center;"">
                <img src=""images/other/blank.jpg"" style=""width: 300px; height: 300px;"" />
              </div>","null",""
"","","","","","html-keyboard-response","11","49137","0.0-9.0","ED19DDF31D2C4884BED51128199919E6","c6401d3c-d46e-4ef3-8304-de6721c4b0ba","4f03f330-5f91-43fc-aa61-d9dda6d26521","","null","<div style=""display: flex; justify-content: center; align-items: center;"">
                <img src=""images/causal/causal_series_6/causal_series_6_a.jpg"" style=""width: 300px; height: 300px;"" />
              </div>","null",""
"","","","","","html-button-response","12","51732","0.0-10.0","ED19DDF31D2C4884BED51128199919E6","c6401d3c-d46e-4ef3-8304-de6721c4b0ba","4f03f330-5f91-43fc-aa61-d9dda6d26521","","2594","
    <div style=""display: flex; justify-content: center; align-items: center;"">
      <img src=""images/red_deck_2.png"" style=""width: 300px; height: 300px; margin-right: 10px;"" />
      <img src=""images/blue_deck_1.png"" style=""width: 300px; height: 300px;"" />
    </div>","1","1"
"","","","","","html-keyboard-response","13","54735","0.0-11.0-1.0-0.0","ED19DDF31D2C4884BED51128199919E6","c6401d3c-d46e-4ef3-8304-de6721c4b0ba","4f03f330-5f91-43fc-aa61-d9dda6d26521","","null","<div style=""display: flex; justify-content: center; align-items: center;"">
                <img src=""images/semantic/semantic_series_15/semantic_series_15_d.jpg"" style=""width: 300px; height: 300px;"" />
              </div>","null",""
"","","","","","html-keyboard-response","14","57737","0.0-11.0-1.0-1.0","ED19DDF31D2C4884BED51128199919E6","c6401d3c-d46e-4ef3-8304-de6721c4b0ba","4f03f330-5f91-43fc-aa61-d9dda6d26521","","null","<div style=""display: flex; justify-content: center; align-items: center;"">
                <img src=""images/semantic/semantic_series_16/semantic_series_16_d.jpg"" style=""width: 300px; height: 300px;"" />
              </div>","null",""
"","","","","","html-keyboard-response","15","60747","0.0-11.0-1.0-2.0","ED19DDF31D2C4884BED51128199919E6","c6401d3c-d46e-4ef3-8304-de6721c4b0ba","4f03f330-5f91-43fc-aa61-d9dda6d26521","","null","<div style=""display: flex; justify-content: center; align-items: center;"">
                <img src=""images/semantic/semantic_series_17/semantic_series_17_d.jpg"" style=""width: 300px; height: 300px;"" />
              </div>","null",""
"","","","","","html-keyboard-response","16","63762","0.0-12.0","ED19DDF31D2C4884BED51128199919E6","c6401d3c-d46e-4ef3-8304-de6721c4b0ba","4f03f330-5f91-43fc-aa61-d9dda6d26521","","null","<div style=""display: flex; justify-content: center; align-items: center;"">
                <img src=""images/other/blank.jpg"" style=""width: 300px; height: 300px;"" />
              </div>","null",""
"","","","","","html-keyboard-response","17","66775","0.0-13.0","ED19DDF31D2C4884BED51128199919E6","c6401d3c-d46e-4ef3-8304-de6721c4b0ba","4f03f330-5f91-43fc-aa61-d9dda6d26521","","null","<div style=""display: flex; justify-content: center; align-items: center;"">
                <img src=""images/causal/causal_series_14/causal_series_14_a.jpg"" style=""width: 300px; height: 300px;"" />
              </div>","null",""
"","","","","","html-button-response","18","81338","0.0-14.0","ED19DDF31D2C4884BED51128199919E6","c6401d3c-d46e-4ef3-8304-de6721c4b0ba","4f03f330-5f91-43fc-aa61-d9dda6d26521","","14563","
    <div style=""display: flex; justify-content: center; align-items: center;"">
      <img src=""images/red_deck_2.png"" style=""width: 300px; height: 300px; margin-right: 10px;"" />
      <img src=""images/blue_deck_1.png"" style=""width: 300px; height: 300px;"" />
    </div>","0","0"
"","","","","","html-keyboard-response","19","84351","0.0-15.0-0.0-0.0","ED19DDF31D2C4884BED51128199919E6","c6401d3c-d46e-4ef3-8304-de6721c4b0ba","4f03f330-5f91-43fc-aa61-d9dda6d26521","","null","<div style=""display: flex; justify-content: center; align-items: center;"">
                <img src=""images/causal/causal_series_14/causal_series_14_b.jpg"" style=""width: 300px; height: 300px;"" />
              </div>","null",""
"","","","","","html-keyboard-response","20","87366","0.0-15.0-0.0-1.0","ED19DDF31D2C4884BED51128199919E6","c6401d3c-d46e-4ef3-8304-de6721c4b0ba","4f03f330-5f91-43fc-aa61-d9dda6d26521","","null","<div style=""display: flex; justify-content: center; align-items: center;"">
                <img src=""images/causal/causal_series_14/causal_series_14_c.jpg"" style=""width: 300px; height: 300px;"" />
              </div>","null",""
"","","","","","html-keyboard-response","21","90382","0.0-15.0-0.0-2.0","ED19DDF31D2C4884BED51128199919E6","c6401d3c-d46e-4ef3-8304-de6721c4b0ba","4f03f330-5f91-43fc-aa61-d9dda6d26521","","null","<div style=""display: flex; justify-content: center; align-items: center;"">
                <img src=""images/causal/causal_series_14/causal_series_14_d.jpg"" style=""width: 300px; height: 300px;"" />
              </div>","null",""
"","","","","","html-keyboard-response","22","93394","0.0-16.0","ED19DDF31D2C4884BED51128199919E6","c6401d3c-d46e-4ef3-8304-de6721c4b0ba","4f03f330-5f91-43fc-aa61-d9dda6d26521","","null","<div style=""display: flex; justify-content: center; align-items: center;"">
                <img src=""images/other/blank.jpg"" style=""width: 300px; height: 300px;"" />
              </div>","null",""
"","","","","","html-keyboard-response","23","96399","0.0-17.0","ED19DDF31D2C4884BED51128199919E6","c6401d3c-d46e-4ef3-8304-de6721c4b0ba","4f03f330-5f91-43fc-aa61-d9dda6d26521","","null","<div style=""display: flex; justify-content: center; align-items: center;"">
                <img src=""images/causal/causal_series_5/causal_series_5_a.jpg"" style=""width: 300px; height: 300px;"" />
              </div>","null",""
"","","","","","html-button-response","24","99650","0.0-18.0","ED19DDF31D2C4884BED51128199919E6","c6401d3c-d46e-4ef3-8304-de6721c4b0ba","4f03f330-5f91-43fc-aa61-d9dda6d26521","","3250","
    <div style=""display: flex; justify-content: center; align-items: center;"">
      <img src=""images/red_deck_2.png"" style=""width: 300px; height: 300px; margin-right: 10px;"" />
      <img src=""images/blue_deck_1.png"" style=""width: 300px; height: 300px;"" />
    </div>","1","1"
"","","","","","html-keyboard-response","25","102666","0.0-19.0-1.0-0.0","ED19DDF31D2C4884BED51128199919E6","c6401d3c-d46e-4ef3-8304-de6721c4b0ba","4f03f330-5f91-43fc-aa61-d9dda6d26521","","null","<div style=""display: flex; justify-content: center; align-items: center;"">
                <img src=""images/semantic/semantic_series_12/semantic_series_12_d.jpg"" style=""width: 300px; height: 300px;"" />
              </div>","null",""
"","","","","","html-keyboard-response","26","105670","0.0-19.0-1.0-1.0","ED19DDF31D2C4884BED51128199919E6","c6401d3c-d46e-4ef3-8304-de6721c4b0ba","4f03f330-5f91-43fc-aa61-d9dda6d26521","","null","<div style=""display: flex; justify-content: center; align-items: center;"">
                <img src=""images/semantic/semantic_series_13/semantic_series_13_d.jpg"" style=""width: 300px; height: 300px;"" />
              </div>","null",""
"","","","","","html-keyboard-response","27","108673","0.0-19.0-1.0-2.0","ED19DDF31D2C4884BED51128199919E6","c6401d3c-d46e-4ef3-8304-de6721c4b0ba","4f03f330-5f91-43fc-aa61-d9dda6d26521","","null","<div style=""display: flex; justify-content: center; align-items: center;"">
                <img src=""images/semantic/semantic_series_14/semantic_series_14_d.jpg"" style=""width: 300px; height: 300px;"" />
              </div>","null",""
"","","","","","html-keyboard-response","28","111686","0.0-20.0","ED19DDF31D2C4884BED51128199919E6","c6401d3c-d46e-4ef3-8304-de6721c4b0ba","4f03f330-5f91-43fc-aa61-d9dda6d26521","","null","<div style=""display: flex; justify-content: center; align-items: center;"">
                <img src=""images/other/blank.jpg"" style=""width: 300px; height: 300px;"" />
              </div>","null",""
"","","","","","html-keyboard-response","29","114698","0.0-21.0","ED19DDF31D2C4884BED51128199919E6","c6401d3c-d46e-4ef3-8304-de6721c4b0ba","4f03f330-5f91-43fc-aa61-d9dda6d26521","","null","<div style=""display: flex; justify-content: center; align-items: center;"">
                <img src=""images/causal/causal_series_15/causal_series_15_a.jpg"" style=""width: 300px; height: 300px;"" />
              </div>","null",""
"","","","","","html-button-response","30","115923","0.0-22.0","ED19DDF31D2C4884BED51128199919E6","c6401d3c-d46e-4ef3-8304-de6721c4b0ba","4f03f330-5f91-43fc-aa61-d9dda6d26521","","1224","
    <div style=""display: flex; justify-content: center; align-items: center;"">
      <img src=""images/red_deck_2.png"" style=""width: 300px; height: 300px; margin-right: 10px;"" />
      <img src=""images/blue_deck_1.png"" style=""width: 300px; height: 300px;"" />
    </div>","0","0"
"","","","","","html-keyboard-response","31","118937","0.0-23.0-0.0-0.0","ED19DDF31D2C4884BED51128199919E6","c6401d3c-d46e-4ef3-8304-de6721c4b0ba","4f03f330-5f91-43fc-aa61-d9dda6d26521","","null","<div style=""display: flex; justify-content: center; align-items: center;"">
                <img src=""images/causal/causal_series_15/causal_series_15_b.jpg"" style=""width: 300px; height: 300px;"" />
              </div>","null",""
"","","","","","html-keyboard-response","32","121940","0.0-23.0-0.0-1.0","ED19DDF31D2C4884BED51128199919E6","c6401d3c-d46e-4ef3-8304-de6721c4b0ba","4f03f330-5f91-43fc-aa61-d9dda6d26521","","null","<div style=""display: flex; justify-content: center; align-items: center;"">
                <img src=""images/causal/causal_series_15/causal_series_15_c.jpg"" style=""width: 300px; height: 300px;"" />
              </div>","null",""
"","","","","","html-keyboard-response","33","124967","0.0-23.0-0.0-2.0","ED19DDF31D2C4884BED51128199919E6","c6401d3c-d46e-4ef3-8304-de6721c4b0ba","4f03f330-5f91-43fc-aa61-d9dda6d26521","","null","<div style=""display: flex; justify-content: center; align-items: center;"">
                <img src=""images/causal/causal_series_15/causal_series_15_d.jpg"" style=""width: 300px; height: 300px;"" />
              </div>","null",""
"","","","","","html-keyboard-response","34","128954","0.0-24.0","ED19DDF31D2C4884BED51128199919E6","c6401d3c-d46e-4ef3-8304-de6721c4b0ba","4f03f330-5f91-43fc-aa61-d9dda6d26521","","null","<div style=""display: flex; justify-content: center; align-items: center;"">
                <img src=""images/other/blank.jpg"" style=""width: 300px; height: 300px;"" />
              </div>","null",""
"","","","","","html-keyboard-response","35","131966","0.0-25.0","ED19DDF31D2C4884BED51128199919E6","c6401d3c-d46e-4ef3-8304-de6721c4b0ba","4f03f330-5f91-43fc-aa61-d9dda6d26521","","null","<div style=""display: flex; justify-content: center; align-items: center;"">
                <img src=""images/causal/causal_series_2/causal_series_2_a.jpg"" style=""width: 300px; height: 300px;"" />
              </div>","null",""
"","","","","","html-button-response","36","135522","0.0-26.0","ED19DDF31D2C4884BED51128199919E6","c6401d3c-d46e-4ef3-8304-de6721c4b0ba","4f03f330-5f91-43fc-aa61-d9dda6d26521","","3554","
    <div style=""display: flex; justify-content: center; align-items: center;"">
      <img src=""images/red_deck_2.png"" style=""width: 300px; height: 300px; margin-right: 10px;"" />
      <img src=""images/blue_deck_1.png"" style=""width: 300px; height: 300px;"" />
    </div>","1","1"
"","","","","","html-keyboard-response","37","138538","0.0-27.0-1.0-0.0","ED19DDF31D2C4884BED51128199919E6","c6401d3c-d46e-4ef3-8304-de6721c4b0ba","4f03f330-5f91-43fc-aa61-d9dda6d26521","","null","<div style=""display: flex; justify-content: center; align-items: center;"">
                <img src=""images/semantic/semantic_series_3/semantic_series_3_d.jpg"" style=""width: 300px; height: 300px;"" />
              </div>","null",""
"","","","","","html-keyboard-response","38","141539","0.0-27.0-1.0-1.0","ED19DDF31D2C4884BED51128199919E6","c6401d3c-d46e-4ef3-8304-de6721c4b0ba","4f03f330-5f91-43fc-aa61-d9dda6d26521","","null","<div style=""display: flex; justify-content: center; align-items: center;"">
                <img src=""images/semantic/semantic_series_4/semantic_series_4_d.jpg"" style=""width: 300px; height: 300px;"" />
              </div>","null",""
"","","","","","html-keyboard-response","39","144547","0.0-27.0-1.0-2.0","ED19DDF31D2C4884BED51128199919E6","c6401d3c-d46e-4ef3-8304-de6721c4b0ba","4f03f330-5f91-43fc-aa61-d9dda6d26521","","null","<div style=""display: flex; justify-content: center; align-items: center;"">
                <img src=""images/semantic/semantic_series_5/semantic_series_5_d.jpg"" style=""width: 300px; height: 300px;"" />
              </div>","null",""
"","","","","","html-keyboard-response","40","147553","0.0-28.0","ED19DDF31D2C4884BED51128199919E6","c6401d3c-d46e-4ef3-8304-de6721c4b0ba","4f03f330-5f91-43fc-aa61-d9dda6d26521","","null","<div style=""display: flex; justify-content: center; align-items: center;"">
                <img src=""images/other/blank.jpg"" style=""width: 300px; height: 300px;"" />
              </div>","null",""
"","","","","","html-keyboard-response","41","150569","0.0-29.0","ED19DDF31D2C4884BED51128199919E6","c6401d3c-d46e-4ef3-8304-de6721c4b0ba","4f03f330-5f91-43fc-aa61-d9dda6d26521","","null","<div style=""display: flex; justify-content: center; align-items: center;"">
                <img src=""images/causal/causal_series_7/causal_series_7_a.jpg"" style=""width: 300px; height: 300px;"" />
              </div>","null",""
"","","","","","html-button-response","42","151386","0.0-30.0","ED19DDF31D2C4884BED51128199919E6","c6401d3c-d46e-4ef3-8304-de6721c4b0ba","4f03f330-5f91-43fc-aa61-d9dda6d26521","","817","
    <div style=""display: flex; justify-content: center; align-items: center;"">
      <img src=""images/red_deck_2.png"" style=""width: 300px; height: 300px; margin-right: 10px;"" />
      <img src=""images/blue_deck_1.png"" style=""width: 300px; height: 300px;"" />
    </div>","0","0"
"","","","","","html-keyboard-response","43","154391","0.0-31.0-0.0-0.0","ED19DDF31D2C4884BED51128199919E6","c6401d3c-d46e-4ef3-8304-de6721c4b0ba","4f03f330-5f91-43fc-aa61-d9dda6d26521","","null","<div style=""display: flex; justify-content: center; align-items: center;"">
                <img src=""images/causal/causal_series_7/causal_series_7_b.jpg"" style=""width: 300px; height: 300px;"" />
              </div>","null",""
"","","","","","html-keyboard-response","44","157393","0.0-31.0-0.0-1.0","ED19DDF31D2C4884BED51128199919E6","c6401d3c-d46e-4ef3-8304-de6721c4b0ba","4f03f330-5f91-43fc-aa61-d9dda6d26521","","null","<div style=""display: flex; justify-content: center; align-items: center;"">
                <img src=""images/causal/causal_series_7/causal_series_7_c.jpg"" style=""width: 300px; height: 300px;"" />
              </div>","null",""
"","","","","","html-keyboard-response","45","160409","0.0-31.0-0.0-2.0","ED19DDF31D2C4884BED51128199919E6","c6401d3c-d46e-4ef3-8304-de6721c4b0ba","4f03f330-5f91-43fc-aa61-d9dda6d26521","","null","<div style=""display: flex; justify-content: center; align-items: center;"">
                <img src=""images/causal/causal_series_7/causal_series_7_d.jpg"" style=""width: 300px; height: 300px;"" />
              </div>","null",""
"","","","","","html-keyboard-response","46","163412","0.0-32.0","ED19DDF31D2C4884BED51128199919E6","c6401d3c-d46e-4ef3-8304-de6721c4b0ba","4f03f330-5f91-43fc-aa61-d9dda6d26521","","null","<div style=""display: flex; justify-content: center; align-items: center;"">
                <img src=""images/other/blank.jpg"" style=""width: 300px; height: 300px;"" />
              </div>","null",""
"","","","","","html-keyboard-response","47","166426","0.0-33.0","ED19DDF31D2C4884BED51128199919E6","c6401d3c-d46e-4ef3-8304-de6721c4b0ba","4f03f330-5f91-43fc-aa61-d9dda6d26521","","null","<div style=""display: flex; justify-content: center; align-items: center;"">
                <img src=""images/causal/causal_series_1/causal_series_1_a.jpg"" style=""width: 300px; height: 300px;"" />
              </div>","null",""
"","","","","","html-button-response","48","167251","0.0-34.0","ED19DDF31D2C4884BED51128199919E6","c6401d3c-d46e-4ef3-8304-de6721c4b0ba","4f03f330-5f91-43fc-aa61-d9dda6d26521","","824","
    <div style=""display: flex; justify-content: center; align-items: center;"">
      <img src=""images/red_deck_2.png"" style=""width: 300px; height: 300px; margin-right: 10px;"" />
      <img src=""images/blue_deck_1.png"" style=""width: 300px; height: 300px;"" />
    </div>","1","1"
"","","","","","html-keyboard-response","49","170266","0.0-35.0-1.0-0.0","ED19DDF31D2C4884BED51128199919E6","c6401d3c-d46e-4ef3-8304-de6721c4b0ba","4f03f330-5f91-43fc-aa61-d9dda6d26521","","null","<div style=""display: flex; justify-content: center; align-items: center;"">
                <img src=""images/semantic/semantic_series_18/semantic_series_18_d.jpg"" style=""width: 300px; height: 300px;"" />
              </div>","null",""
"","","","","","html-keyboard-response","50","173267","0.0-35.0-1.0-1.0","ED19DDF31D2C4884BED51128199919E6","c6401d3c-d46e-4ef3-8304-de6721c4b0ba","4f03f330-5f91-43fc-aa61-d9dda6d26521","","null","<div style=""display: flex; justify-content: center; align-items: center;"">
                <img src=""images/semantic/semantic_series_1/semantic_series_1_d.jpg"" style=""width: 300px; height: 300px;"" />
              </div>","null",""
"","","","","","html-keyboard-response","51","176276","0.0-35.0-1.0-2.0","ED19DDF31D2C4884BED51128199919E6","c6401d3c-d46e-4ef3-8304-de6721c4b0ba","4f03f330-5f91-43fc-aa61-d9dda6d26521","","null","<div style=""display: flex; justify-content: center; align-items: center;"">
                <img src=""images/semantic/semantic_series_2/semantic_series_2_d.jpg"" style=""width: 300px; height: 300px;"" />
              </div>","null",""
"","","","","","html-keyboard-response","52","179287","0.0-36.0","ED19DDF31D2C4884BED51128199919E6","c6401d3c-d46e-4ef3-8304-de6721c4b0ba","4f03f330-5f91-43fc-aa61-d9dda6d26521","","null","<div style=""display: flex; justify-content: center; align-items: center;"">
                <img src=""images/other/blank.jpg"" style=""width: 300px; height: 300px;"" />
              </div>","null",""
"","","","","","html-keyboard-response","53","182300","0.0-37.0","ED19DDF31D2C4884BED51128199919E6","c6401d3c-d46e-4ef3-8304-de6721c4b0ba","4f03f330-5f91-43fc-aa61-d9dda6d26521","","null","<div style=""display: flex; justify-content: center; align-items: center;"">
                <img src=""images/causal/causal_series_9/causal_series_9_a.jpg"" style=""width: 300px; height: 300px;"" />
              </div>","null",""
"","","","","","html-button-response","54","183067","0.0-38.0","ED19DDF31D2C4884BED51128199919E6","c6401d3c-d46e-4ef3-8304-de6721c4b0ba","4f03f330-5f91-43fc-aa61-d9dda6d26521","","765","
    <div style=""display: flex; justify-content: center; align-items: center;"">
      <img src=""images/red_deck_2.png"" style=""width: 300px; height: 300px; margin-right: 10px;"" />
      <img src=""images/blue_deck_1.png"" style=""width: 300px; height: 300px;"" />
    </div>","0","0"
"","","","","","html-keyboard-response","55","186082","0.0-39.0-0.0-0.0","ED19DDF31D2C4884BED51128199919E6","c6401d3c-d46e-4ef3-8304-de6721c4b0ba","4f03f330-5f91-43fc-aa61-d9dda6d26521","","null","<div style=""display: flex; justify-content: center; align-items: center;"">
                <img src=""images/causal/causal_series_9/causal_series_9_b.jpg"" style=""width: 300px; height: 300px;"" />
              </div>","null",""
"","","","","","html-keyboard-response","56","189090","0.0-39.0-0.0-1.0","ED19DDF31D2C4884BED51128199919E6","c6401d3c-d46e-4ef3-8304-de6721c4b0ba","4f03f330-5f91-43fc-aa61-d9dda6d26521","","null","<div style=""display: flex; justify-content: center; align-items: center;"">
                <img src=""images/causal/causal_series_9/causal_series_9_c.jpg"" style=""width: 300px; height: 300px;"" />
              </div>","null",""
"","","","","","html-keyboard-response","57","192100","0.0-39.0-0.0-2.0","ED19DDF31D2C4884BED51128199919E6","c6401d3c-d46e-4ef3-8304-de6721c4b0ba","4f03f330-5f91-43fc-aa61-d9dda6d26521","","null","<div style=""display: flex; justify-content: center; align-items: center;"">
                <img src=""images/causal/causal_series_9/causal_series_9_d.jpg"" style=""width: 300px; height: 300px;"" />
              </div>","null",""
"","","","","","html-keyboard-response","58","195116","0.0-40.0","ED19DDF31D2C4884BED51128199919E6","c6401d3c-d46e-4ef3-8304-de6721c4b0ba","4f03f330-5f91-43fc-aa61-d9dda6d26521","","null","<div style=""display: flex; justify-content: center; align-items: center;"">
                <img src=""images/other/blank.jpg"" style=""width: 300px; height: 300px;"" />
              </div>","null",""
"","","","","","html-keyboard-response","59","198133","0.0-41.0","ED19DDF31D2C4884BED51128199919E6","c6401d3c-d46e-4ef3-8304-de6721c4b0ba","4f03f330-5f91-43fc-aa61-d9dda6d26521","","null","<div style=""display: flex; justify-content: center; align-items: center;"">
                <img src=""images/causal/causal_series_12/causal_series_12_a.jpg"" style=""width: 300px; height: 300px;"" />
              </div>","null",""
"","","","","","html-button-response","60","201395","0.0-42.0","ED19DDF31D2C4884BED51128199919E6","c6401d3c-d46e-4ef3-8304-de6721c4b0ba","4f03f330-5f91-43fc-aa61-d9dda6d26521","","3261","
    <div style=""display: flex; justify-content: center; align-items: center;"">
      <img src=""images/red_deck_2.png"" style=""width: 300px; height: 300px; margin-right: 10px;"" />
      <img src=""images/blue_deck_1.png"" style=""width: 300px; height: 300px;"" />
    </div>","1","1"
"","","","","","html-keyboard-response","61","204399","0.0-43.0-1.0-0.0","ED19DDF31D2C4884BED51128199919E6","c6401d3c-d46e-4ef3-8304-de6721c4b0ba","4f03f330-5f91-43fc-aa61-d9dda6d26521","","null","<div style=""display: flex; justify-content: center; align-items: center;"">
                <img src=""images/semantic/semantic_series_15/semantic_series_15_d.jpg"" style=""width: 300px; height: 300px;"" />
              </div>","null",""
"","","","","","html-keyboard-response","62","207416","0.0-43.0-1.0-1.0","ED19DDF31D2C4884BED51128199919E6","c6401d3c-d46e-4ef3-8304-de6721c4b0ba","4f03f330-5f91-43fc-aa61-d9dda6d26521","","null","<div style=""display: flex; justify-content: center; align-items: center;"">
                <img src=""images/semantic/semantic_series_16/semantic_series_16_d.jpg"" style=""width: 300px; height: 300px;"" />
              </div>","null",""
"","","","","","html-keyboard-response","63","210417","0.0-43.0-1.0-2.0","ED19DDF31D2C4884BED51128199919E6","c6401d3c-d46e-4ef3-8304-de6721c4b0ba","4f03f330-5f91-43fc-aa61-d9dda6d26521","","null","<div style=""display: flex; justify-content: center; align-items: center;"">
                <img src=""images/semantic/semantic_series_17/semantic_series_17_d.jpg"" style=""width: 300px; height: 300px;"" />
              </div>","null",""
"","","","","","html-keyboard-response","64","213421","0.0-44.0","ED19DDF31D2C4884BED51128199919E6","c6401d3c-d46e-4ef3-8304-de6721c4b0ba","4f03f330-5f91-43fc-aa61-d9dda6d26521","","null","<div style=""display: flex; justify-content: center; align-items: center;"">
                <img src=""images/other/blank.jpg"" style=""width: 300px; height: 300px;"" />
              </div>","null",""
"","","","","","html-keyboard-response","65","216424","0.0-45.0","ED19DDF31D2C4884BED51128199919E6","c6401d3c-d46e-4ef3-8304-de6721c4b0ba","4f03f330-5f91-43fc-aa61-d9dda6d26521","","null","<div style=""display: flex; justify-content: center; align-items: center;"">
                <img src=""images/causal/causal_series_8/causal_series_8_a.jpg"" style=""width: 300px; height: 300px;"" />
              </div>","null",""
"","","","","","html-button-response","66","216986","0.0-46.0","ED19DDF31D2C4884BED51128199919E6","c6401d3c-d46e-4ef3-8304-de6721c4b0ba","4f03f330-5f91-43fc-aa61-d9dda6d26521","","562","
    <div style=""display: flex; justify-content: center; align-items: center;"">
      <img src=""images/red_deck_2.png"" style=""width: 300px; height: 300px; margin-right: 10px;"" />
      <img src=""images/blue_deck_1.png"" style=""width: 300px; height: 300px;"" />
    </div>","0","0"
"","","","","","html-keyboard-response","67","219991","0.0-47.0-0.0-0.0","ED19DDF31D2C4884BED51128199919E6","c6401d3c-d46e-4ef3-8304-de6721c4b0ba","4f03f330-5f91-43fc-aa61-d9dda6d26521","","null","<div style=""display: flex; justify-content: center; align-items: center;"">
                <img src=""images/causal/causal_series_8/causal_series_8_b.jpg"" style=""width: 300px; height: 300px;"" />
              </div>","null",""
"","","","","","html-keyboard-response","68","222994","0.0-47.0-0.0-1.0","ED19DDF31D2C4884BED51128199919E6","c6401d3c-d46e-4ef3-8304-de6721c4b0ba","4f03f330-5f91-43fc-aa61-d9dda6d26521","","null","<div style=""display: flex; justify-content: center; align-items: center;"">
                <img src=""images/causal/causal_series_8/causal_series_8_c.jpg"" style=""width: 300px; height: 300px;"" />
              </div>","null",""
"","","","","","html-keyboard-response","69","226002","0.0-47.0-0.0-2.0","ED19DDF31D2C4884BED51128199919E6","c6401d3c-d46e-4ef3-8304-de6721c4b0ba","4f03f330-5f91-43fc-aa61-d9dda6d26521","","null","<div style=""display: flex; justify-content: center; align-items: center;"">
                <img src=""images/causal/causal_series_8/causal_series_8_d.jpg"" style=""width: 300px; height: 300px;"" />
              </div>","null",""
"","","","","","html-keyboard-response","70","229016","0.0-48.0","ED19DDF31D2C4884BED51128199919E6","c6401d3c-d46e-4ef3-8304-de6721c4b0ba","4f03f330-5f91-43fc-aa61-d9dda6d26521","","null","<div style=""display: flex; justify-content: center; align-items: center;"">
                <img src=""images/other/blank.jpg"" style=""width: 300px; height: 300px;"" />
              </div>","null",""
"","","","","","html-keyboard-response","71","232030","0.0-49.0","ED19DDF31D2C4884BED51128199919E6","c6401d3c-d46e-4ef3-8304-de6721c4b0ba","4f03f330-5f91-43fc-aa61-d9dda6d26521","","null","<div style=""display: flex; justify-content: center; align-items: center;"">
                <img src=""images/causal/causal_series_17/causal_series_17_a.jpg"" style=""width: 300px; height: 300px;"" />
              </div>","null",""
"","","","","","html-button-response","72","232681","0.0-50.0","ED19DDF31D2C4884BED51128199919E6","c6401d3c-d46e-4ef3-8304-de6721c4b0ba","4f03f330-5f91-43fc-aa61-d9dda6d26521","","650","
    <div style=""display: flex; justify-content: center; align-items: center;"">
      <img src=""images/red_deck_2.png"" style=""width: 300px; height: 300px; margin-right: 10px;"" />
      <img src=""images/blue_deck_1.png"" style=""width: 300px; height: 300px;"" />
    </div>","1","1"
"","","","","","html-keyboard-response","73","235685","0.0-51.0-1.0-0.0","ED19DDF31D2C4884BED51128199919E6","c6401d3c-d46e-4ef3-8304-de6721c4b0ba","4f03f330-5f91-43fc-aa61-d9dda6d26521","","null","<div style=""display: flex; justify-content: center; align-items: center;"">
                <img src=""images/semantic/semantic_series_12/semantic_series_12_d.jpg"" style=""width: 300px; height: 300px;"" />
              </div>","null",""
"","","","","","html-keyboard-response","74","238689","0.0-51.0-1.0-1.0","ED19DDF31D2C4884BED51128199919E6","c6401d3c-d46e-4ef3-8304-de6721c4b0ba","4f03f330-5f91-43fc-aa61-d9dda6d26521","","null","<div style=""display: flex; justify-content: center; align-items: center;"">
                <img src=""images/semantic/semantic_series_13/semantic_series_13_d.jpg"" style=""width: 300px; height: 300px;"" />
              </div>","null",""
"","","","","","html-keyboard-response","75","241692","0.0-51.0-1.0-2.0","ED19DDF31D2C4884BED51128199919E6","c6401d3c-d46e-4ef3-8304-de6721c4b0ba","4f03f330-5f91-43fc-aa61-d9dda6d26521","","null","<div style=""display: flex; justify-content: center; align-items: center;"">
                <img src=""images/semantic/semantic_series_14/semantic_series_14_d.jpg"" style=""width: 300px; height: 300px;"" />
              </div>","null",""
"","","","","","html-keyboard-response","76","244693","0.0-52.0","ED19DDF31D2C4884BED51128199919E6","c6401d3c-d46e-4ef3-8304-de6721c4b0ba","4f03f330-5f91-43fc-aa61-d9dda6d26521","","null","<div style=""display: flex; justify-content: center; align-items: center;"">
                <img src=""images/other/blank.jpg"" style=""width: 300px; height: 300px;"" />
              </div>","null",""
"","","","","","html-keyboard-response","77","247707","0.0-53.0","ED19DDF31D2C4884BED51128199919E6","c6401d3c-d46e-4ef3-8304-de6721c4b0ba","4f03f330-5f91-43fc-aa61-d9dda6d26521","","null","<div style=""display: flex; justify-content: center; align-items: center;"">
                <img src=""images/causal/causal_series_13/causal_series_13_a.jpg"" style=""width: 300px; height: 300px;"" />
              </div>","null",""
"","","","","","html-button-response","78","257851","0.0-54.0","ED19DDF31D2C4884BED51128199919E6","c6401d3c-d46e-4ef3-8304-de6721c4b0ba","4f03f330-5f91-43fc-aa61-d9dda6d26521","","10143","
    <div style=""display: flex; justify-content: center; align-items: center;"">
      <img src=""images/red_deck_2.png"" style=""width: 300px; height: 300px; margin-right: 10px;"" />
      <img src=""images/blue_deck_1.png"" style=""width: 300px; height: 300px;"" />
    </div>","1","1"
"","","","","","html-keyboard-response","79","260957","0.0-55.0-1.0-0.0","ED19DDF31D2C4884BED51128199919E6","c6401d3c-d46e-4ef3-8304-de6721c4b0ba","4f03f330-5f91-43fc-aa61-d9dda6d26521","","null","<div style=""display: flex; justify-content: center; align-items: center;"">
                <img src=""images/semantic/semantic_series_18/semantic_series_18_d.jpg"" style=""width: 300px; height: 300px;"" />
              </div>","null",""
"","","","","","html-keyboard-response","80","263968","0.0-55.0-1.0-1.0","ED19DDF31D2C4884BED51128199919E6","c6401d3c-d46e-4ef3-8304-de6721c4b0ba","4f03f330-5f91-43fc-aa61-d9dda6d26521","","null","<div style=""display: flex; justify-content: center; align-items: center;"">
                <img src=""images/semantic/semantic_series_1/semantic_series_1_d.jpg"" style=""width: 300px; height: 300px;"" />
              </div>","null",""
"","","","","","html-keyboard-response","81","266974","0.0-55.0-1.0-2.0","ED19DDF31D2C4884BED51128199919E6","c6401d3c-d46e-4ef3-8304-de6721c4b0ba","4f03f330-5f91-43fc-aa61-d9dda6d26521","","null","<div style=""display: flex; justify-content: center; align-items: center;"">
                <img src=""images/semantic/semantic_series_2/semantic_series_2_d.jpg"" style=""width: 300px; height: 300px;"" />
              </div>","null",""
"","","","","","html-keyboard-response","82","269985","0.0-56.0","ED19DDF31D2C4884BED51128199919E6","c6401d3c-d46e-4ef3-8304-de6721c4b0ba","4f03f330-5f91-43fc-aa61-d9dda6d26521","","null","<div style=""display: flex; justify-content: center; align-items: center;"">
                <img src=""images/other/blank.jpg"" style=""width: 300px; height: 300px;"" />
              </div>","null",""
"","","","","","html-keyboard-response","83","272999","0.0-57.0","ED19DDF31D2C4884BED51128199919E6","c6401d3c-d46e-4ef3-8304-de6721c4b0ba","4f03f330-5f91-43fc-aa61-d9dda6d26521","","null","<div style=""display: flex; justify-content: center; align-items: center;"">
                <img src=""images/causal/causal_series_16/causal_series_16_a.jpg"" style=""width: 300px; height: 300px;"" />
              </div>","null",""
"","","","","","html-button-response","84","277130","0.0-58.0","ED19DDF31D2C4884BED51128199919E6","c6401d3c-d46e-4ef3-8304-de6721c4b0ba","4f03f330-5f91-43fc-aa61-d9dda6d26521","","4130","
    <div style=""display: flex; justify-content: center; align-items: center;"">
      <img src=""images/red_deck_2.png"" style=""width: 300px; height: 300px; margin-right: 10px;"" />
      <img src=""images/blue_deck_1.png"" style=""width: 300px; height: 300px;"" />
    </div>","0","0"
"","","","","","html-keyboard-response","85","280132","0.0-59.0-0.0-0.0","ED19DDF31D2C4884BED51128199919E6","c6401d3c-d46e-4ef3-8304-de6721c4b0ba","4f03f330-5f91-43fc-aa61-d9dda6d26521","","null","<div style=""display: flex; justify-content: center; align-items: center;"">
                <img src=""images/causal/causal_series_16/causal_series_16_b.jpg"" style=""width: 300px; height: 300px;"" />
              </div>","null",""
"","","","","","html-keyboard-response","86","283137","0.0-59.0-0.0-1.0","ED19DDF31D2C4884BED51128199919E6","c6401d3c-d46e-4ef3-8304-de6721c4b0ba","4f03f330-5f91-43fc-aa61-d9dda6d26521","","null","<div style=""display: flex; justify-content: center; align-items: center;"">
                <img src=""images/causal/causal_series_16/causal_series_16_c.jpg"" style=""width: 300px; height: 300px;"" />
              </div>","null",""
"","","","","","html-keyboard-response","87","286146","0.0-59.0-0.0-2.0","ED19DDF31D2C4884BED51128199919E6","c6401d3c-d46e-4ef3-8304-de6721c4b0ba","4f03f330-5f91-43fc-aa61-d9dda6d26521","","null","<div style=""display: flex; justify-content: center; align-items: center;"">
                <img src=""images/causal/causal_series_16/causal_series_16_d.jpg"" style=""width: 300px; height: 300px;"" />
              </div>","null",""
"","","","","","html-keyboard-response","88","289147","0.0-60.0","ED19DDF31D2C4884BED51128199919E6","c6401d3c-d46e-4ef3-8304-de6721c4b0ba","4f03f330-5f91-43fc-aa61-d9dda6d26521","","null","<div style=""display: flex; justify-content: center; align-items: center;"">
                <img src=""images/other/blank.jpg"" style=""width: 300px; height: 300px;"" />
              </div>","null",""
"","","","","","html-keyboard-response","89","292161","0.0-61.0","ED19DDF31D2C4884BED51128199919E6","c6401d3c-d46e-4ef3-8304-de6721c4b0ba","4f03f330-5f91-43fc-aa61-d9dda6d26521","","null","<div style=""display: flex; justify-content: center; align-items: center;"">
                <img src=""images/causal/causal_series_4/causal_series_4_a.jpg"" style=""width: 300px; height: 300px;"" />
              </div>","null",""
"","","","","","html-button-response","90","293162","0.0-62.0","ED19DDF31D2C4884BED51128199919E6","c6401d3c-d46e-4ef3-8304-de6721c4b0ba","4f03f330-5f91-43fc-aa61-d9dda6d26521","","1000","
    <div style=""display: flex; justify-content: center; align-items: center;"">
      <img src=""images/red_deck_2.png"" style=""width: 300px; height: 300px; margin-right: 10px;"" />
      <img src=""images/blue_deck_1.png"" style=""width: 300px; height: 300px;"" />
    </div>","0","0"
"","","","","","html-keyboard-response","91","296965","0.0-63.0-0.0-0.0","ED19DDF31D2C4884BED51128199919E6","c6401d3c-d46e-4ef3-8304-de6721c4b0ba","4f03f330-5f91-43fc-aa61-d9dda6d26521","","null","<div style=""display: flex; justify-content: center; align-items: center;"">
                <img src=""images/causal/causal_series_4/causal_series_4_b.jpg"" style=""width: 300px; height: 300px;"" />
              </div>","null",""
"","","","","","html-keyboard-response","92","299974","0.0-63.0-0.0-1.0","ED19DDF31D2C4884BED51128199919E6","c6401d3c-d46e-4ef3-8304-de6721c4b0ba","4f03f330-5f91-43fc-aa61-d9dda6d26521","","null","<div style=""display: flex; justify-content: center; align-items: center;"">
                <img src=""images/causal/causal_series_4/causal_series_4_c.jpg"" style=""width: 300px; height: 300px;"" />
              </div>","null",""
"","","","","","html-keyboard-response","93","302987","0.0-63.0-0.0-2.0","ED19DDF31D2C4884BED51128199919E6","c6401d3c-d46e-4ef3-8304-de6721c4b0ba","4f03f330-5f91-43fc-aa61-d9dda6d26521","","null","<div style=""display: flex; justify-content: center; align-items: center;"">
                <img src=""images/causal/causal_series_4/causal_series_4_d.jpg"" style=""width: 300px; height: 300px;"" />
              </div>","null",""
"","","","","","html-keyboard-response","94","305995","0.0-64.0","ED19DDF31D2C4884BED51128199919E6","c6401d3c-d46e-4ef3-8304-de6721c4b0ba","4f03f330-5f91-43fc-aa61-d9dda6d26521","","null","<div style=""display: flex; justify-content: center; align-items: center;"">
                <img src=""images/other/blank.jpg"" style=""width: 300px; height: 300px;"" />
              </div>","null",""
"","","","","","html-keyboard-response","95","308997","0.0-65.0","ED19DDF31D2C4884BED51128199919E6","c6401d3c-d46e-4ef3-8304-de6721c4b0ba","4f03f330-5f91-43fc-aa61-d9dda6d26521","","null","<div style=""display: flex; justify-content: center; align-items: center;"">
                <img src=""images/causal/causal_series_11/causal_series_11_a.jpg"" style=""width: 300px; height: 300px;"" />
              </div>","null",""
"","","","","","html-button-response","96","309731","0.0-66.0","ED19DDF31D2C4884BED51128199919E6","c6401d3c-d46e-4ef3-8304-de6721c4b0ba","4f03f330-5f91-43fc-aa61-d9dda6d26521","","733","
    <div style=""display: flex; justify-content: center; align-items: center;"">
      <img src=""images/red_deck_2.png"" style=""width: 300px; height: 300px; margin-right: 10px;"" />
      <img src=""images/blue_deck_1.png"" style=""width: 300px; height: 300px;"" />
    </div>","0","0"
"","","","","","html-keyboard-response","97","312733","0.0-67.0-0.0-0.0","ED19DDF31D2C4884BED51128199919E6","c6401d3c-d46e-4ef3-8304-de6721c4b0ba","4f03f330-5f91-43fc-aa61-d9dda6d26521","","null","<div style=""display: flex; justify-content: center; align-items: center;"">
                <img src=""images/causal/causal_series_11/causal_series_11_b.jpg"" style=""width: 300px; height: 300px;"" />
              </div>","null",""
"","","","","","html-keyboard-response","98","315735","0.0-67.0-0.0-1.0","ED19DDF31D2C4884BED51128199919E6","c6401d3c-d46e-4ef3-8304-de6721c4b0ba","4f03f330-5f91-43fc-aa61-d9dda6d26521","","null","<div style=""display: flex; justify-content: center; align-items: center;"">
                <img src=""images/causal/causal_series_11/causal_series_11_c.jpg"" style=""width: 300px; height: 300px;"" />
              </div>","null",""
"","","","","","html-keyboard-response","99","318748","0.0-67.0-0.0-2.0","ED19DDF31D2C4884BED51128199919E6","c6401d3c-d46e-4ef3-8304-de6721c4b0ba","4f03f330-5f91-43fc-aa61-d9dda6d26521","","null","<div style=""display: flex; justify-content: center; align-items: center;"">
                <img src=""images/causal/causal_series_11/causal_series_11_d.jpg"" style=""width: 300px; height: 300px;"" />
              </div>","null",""
"","","","","","html-keyboard-response","100","321755","0.0-68.0","ED19DDF31D2C4884BED51128199919E6","c6401d3c-d46e-4ef3-8304-de6721c4b0ba","4f03f330-5f91-43fc-aa61-d9dda6d26521","","null","<div style=""display: flex; justify-content: center; align-items: center;"">
                <img src=""images/other/blank.jpg"" style=""width: 300px; height: 300px;"" />
              </div>","null",""
"","","","","","html-keyboard-response","101","324771","0.0-69.0","ED19DDF31D2C4884BED51128199919E6","c6401d3c-d46e-4ef3-8304-de6721c4b0ba","4f03f330-5f91-43fc-aa61-d9dda6d26521","","null","<div style=""display: flex; justify-content: center; align-items: center;"">
                <img src=""images/causal/causal_series_18/causal_series_18_a.jpg"" style=""width: 300px; height: 300px;"" />
              </div>","null",""
"","","","","","html-button-response","102","325362","0.0-70.0","ED19DDF31D2C4884BED51128199919E6","c6401d3c-d46e-4ef3-8304-de6721c4b0ba","4f03f330-5f91-43fc-aa61-d9dda6d26521","","590","
    <div style=""display: flex; justify-content: center; align-items: center;"">
      <img src=""images/red_deck_2.png"" style=""width: 300px; height: 300px; margin-right: 10px;"" />
      <img src=""images/blue_deck_1.png"" style=""width: 300px; height: 300px;"" />
    </div>","0","0"
"","","","","","html-keyboard-response","103","328368","0.0-71.0-0.0-0.0","ED19DDF31D2C4884BED51128199919E6","c6401d3c-d46e-4ef3-8304-de6721c4b0ba","4f03f330-5f91-43fc-aa61-d9dda6d26521","","null","<div style=""display: flex; justify-content: center; align-items: center;"">
                <img src=""images/causal/causal_series_18/causal_series_18_b.jpg"" style=""width: 300px; height: 300px;"" />
              </div>","null",""
"","","","","","html-keyboard-response","104","331375","0.0-71.0-0.0-1.0","ED19DDF31D2C4884BED51128199919E6","c6401d3c-d46e-4ef3-8304-de6721c4b0ba","4f03f330-5f91-43fc-aa61-d9dda6d26521","","null","<div style=""display: flex; justify-content: center; align-items: center;"">
                <img src=""images/causal/causal_series_18/causal_series_18_c.jpg"" style=""width: 300px; height: 300px;"" />
              </div>","null",""
"","","","","","html-keyboard-response","105","334380","0.0-71.0-0.0-2.0","ED19DDF31D2C4884BED51128199919E6","c6401d3c-d46e-4ef3-8304-de6721c4b0ba","4f03f330-5f91-43fc-aa61-d9dda6d26521","","null","<div style=""display: flex; justify-content: center; align-items: center;"">
                <img src=""images/causal/causal_series_18/causal_series_18_d.jpg"" style=""width: 300px; height: 300px;"" />
              </div>","null",""
"","","","","","html-keyboard-response","106","337387","0.0-72.0","ED19DDF31D2C4884BED51128199919E6","c6401d3c-d46e-4ef3-8304-de6721c4b0ba","4f03f330-5f91-43fc-aa61-d9dda6d26521","","null","<div style=""display: flex; justify-content: center; align-items: center;"">
                <img src=""images/other/blank.jpg"" style=""width: 300px; height: 300px;"" />
              </div>","null",""
"","","","","","html-keyboard-response","107","340402","0.0-73.0","ED19DDF31D2C4884BED51128199919E6","c6401d3c-d46e-4ef3-8304-de6721c4b0ba","4f03f330-5f91-43fc-aa61-d9dda6d26521","","null","<div style=""display: flex; justify-content: center; align-items: center;"">
                <img src=""images/causal/causal_series_3/causal_series_3_a.jpg"" style=""width: 300px; height: 300px;"" />
              </div>","null",""
"","","","","","html-button-response","108","341482","0.0-74.0","ED19DDF31D2C4884BED51128199919E6","c6401d3c-d46e-4ef3-8304-de6721c4b0ba","4f03f330-5f91-43fc-aa61-d9dda6d26521","","1079","
    <div style=""display: flex; justify-content: center; align-items: center;"">
      <img src=""images/red_deck_2.png"" style=""width: 300px; height: 300px; margin-right: 10px;"" />
      <img src=""images/blue_deck_1.png"" style=""width: 300px; height: 300px;"" />
    </div>","1","1"
"","","","","","html-keyboard-response","109","344499","0.0-75.0-1.0-0.0","ED19DDF31D2C4884BED51128199919E6","c6401d3c-d46e-4ef3-8304-de6721c4b0ba","4f03f330-5f91-43fc-aa61-d9dda6d26521","","null","<div style=""display: flex; justify-content: center; align-items: center;"">
                <img src=""images/semantic/semantic_series_6/semantic_series_6_d.jpg"" style=""width: 300px; height: 300px;"" />
              </div>","null",""
"","","","","","html-keyboard-response","110","347503","0.0-75.0-1.0-1.0","ED19DDF31D2C4884BED51128199919E6","c6401d3c-d46e-4ef3-8304-de6721c4b0ba","4f03f330-5f91-43fc-aa61-d9dda6d26521","","null","<div style=""display: flex; justify-content: center; align-items: center;"">
                <img src=""images/semantic/semantic_series_7/semantic_series_7_d.jpg"" style=""width: 300px; height: 300px;"" />
              </div>","null",""
"","","","","","html-keyboard-response","111","350514","0.0-75.0-1.0-2.0","ED19DDF31D2C4884BED51128199919E6","c6401d3c-d46e-4ef3-8304-de6721c4b0ba","4f03f330-5f91-43fc-aa61-d9dda6d26521","","null","<div style=""display: flex; justify-content: center; align-items: center;"">
                <img src=""images/semantic/semantic_series_8/semantic_series_8_d.jpg"" style=""width: 300px; height: 300px;"" />
              </div>","null",""
"","","","","","html-keyboard-response","112","353522","0.0-76.0","ED19DDF31D2C4884BED51128199919E6","c6401d3c-d46e-4ef3-8304-de6721c4b0ba","4f03f330-5f91-43fc-aa61-d9dda6d26521","","null","<div style=""display: flex; justify-content: center; align-items: center;"">
                <img src=""images/other/blank.jpg"" style=""width: 300px; height: 300px;"" />
              </div>","null",""
"","","","","","survey-text","113","391058","0.0-77.0","ED19DDF31D2C4884BED51128199919E6","c6401d3c-d46e-4ef3-8304-de6721c4b0ba","4f03f330-5f91-43fc-aa61-d9dda6d26521","","37533","","{""Q0"":""red deck shows pictures related to the last one shown, blue deck shows images that are completely unrelated""}",""
"","","","","","survey-text","114","417299","0.0-78.0","ED19DDF31D2C4884BED51128199919E6","c6401d3c-d46e-4ef3-8304-de6721c4b0ba","4f03f330-5f91-43fc-aa61-d9dda6d26521","","26239","","{""Q0"":""both were interesting! sometimes I wanted to know what happened in the next frame, sometimes I didn't ""}",""
"","","","","","html-button-response","115","425209","0.0-79.0","ED19DDF31D2C4884BED51128199919E6","c6401d3c-d46e-4ef3-8304-de6721c4b0ba","4f03f330-5f91-43fc-aa61-d9dda6d26521","","7910","Which color deck does the fourth image continue the story from the series?","0",""
"","","","","","html-button-response","116","430451","0.0-80.0","ED19DDF31D2C4884BED51128199919E6","c6401d3c-d46e-4ef3-8304-de6721c4b0ba","4f03f330-5f91-43fc-aa61-d9dda6d26521","","5241","Which color deck does the fourth image not follow the story from the series?","0",""
"","","","","","survey-text","117","446155","0.0-81.0","ED19DDF31D2C4884BED51128199919E6","c6401d3c-d46e-4ef3-8304-de6721c4b0ba","4f03f330-5f91-43fc-aa61-d9dda6d26521","","15700","","{""Q0"":""Female"",""Q1"":""26""}",""
"","","","","","instructions","118","449043","0.0-82.0","ED19DDF31D2C4884BED51128199919E6","c6401d3c-d46e-4ef3-8304-de6721c4b0ba","4f03f330-5f91-43fc-aa61-d9dda6d26521","[{""page_index"":0,""viewing_time"":2887}]","2887","","",""
