"success","timeout","failed_images","failed_audio","failed_video","trial_type","trial_index","time_elapsed","internal_node_id","subject_id","study_id","session_id","view_history","rt","stimulus","response","series","repetition","phase","choice","question_order"
"true","false","[]","[]","[]","preload","0","989","0.0-0.0","03368FA4862340F393964971C7FFC8B2","0199d5f8-a4d4-73ff-89e2-3a47d38f08a8","0199d5ef-c7d4-7cab-a194-b2c3afbaf8e8","","","","","","","","",""
"","","","","","instructions","1","6965","0.0-1.0","03368FA4862340F393964971C7FFC8B2","0199d5f8-a4d4-73ff-89e2-3a47d38f08a8","0199d5ef-c7d4-7cab-a194-b2c3afbaf8e8","[{""page_index"":0,""viewing_time"":5975}]","5976","","","","","","",""
"","","","","","instructions","2","14383","0.0-2.0","03368FA4862340F393964971C7FFC8B2","0199d5f8-a4d4-73ff-89e2-3a47d38f08a8","0199d5ef-c7d4-7cab-a194-b2c3afbaf8e8","[{""page_index"":0,""viewing_time"":7417}]","7418","","","","","","",""
"true","","","","","fullscreen","3","17137","0.0-3.0","03368FA4862340F393964971C7FFC8B2","0199d5f8-a4d4-73ff-89e2-3a47d38f08a8","0199d5ef-c7d4-7cab-a194-b2c3afbaf8e8","","1752","","","","","","",""
"","","","","","instructions","4","48554","0.0-4.0","03368FA4862340F393964971C7FFC8B2","0199d5f8-a4d4-73ff-89e2-3a47d38f08a8","0199d5ef-c7d4-7cab-a194-b2c3afbaf8e8","[{""page_index"":0,""viewing_time"":31416}]","31416","","","","","","",""
"","","","","","html-keyboard-response","5","54566","0.0-5.0","03368FA4862340F393964971C7FFC8B2","0199d5f8-a4d4-73ff-89e2-3a47d38f08a8","0199d5ef-c7d4-7cab-a194-b2c3afbaf8e8","","null","<div style=""display: flex; justify-content: center; align-items: center;"">
                     <img src=""images/causal/causal_series_8/causal_series_8_a.png"" style=""width: 300px; height: 300px;"" />
                   </div>","null","8","1","A","",""
"","","","","","html-keyboard-response","6","60573","0.0-6.0","03368FA4862340F393964971C7FFC8B2","0199d5f8-a4d4-73ff-89e2-3a47d38f08a8","0199d5ef-c7d4-7cab-a194-b2c3afbaf8e8","","null","<div style=""display: flex; justify-content: center; align-items: center;"">
                     <img src=""images/causal/causal_series_8/causal_series_8_b.png"" style=""width: 300px; height: 300px;"" />
                   </div>","null","8","1","B","",""
"","","","","","html-keyboard-response","7","66581","0.0-7.0","03368FA4862340F393964971C7FFC8B2","0199d5f8-a4d4-73ff-89e2-3a47d38f08a8","0199d5ef-c7d4-7cab-a194-b2c3afbaf8e8","","null","<div style=""display: flex; justify-content: center; align-items: center;"">
                     <img src=""images/causal/causal_series_8/causal_series_8_c.png"" style=""width: 300px; height: 300px;"" />
                   </div>","null","8","1","C","",""
"","","","","","html-button-response","8","72102","0.0-8.0","03368FA4862340F393964971C7FFC8B2","0199d5f8-a4d4-73ff-89e2-3a47d38f08a8","0199d5ef-c7d4-7cab-a194-b2c3afbaf8e8","","5520","
        <div style=""display: flex; justify-content: center; align-items: center;"">
          <img src=""images/red_deck_2.png"" style=""width: 300px; height: 300px; margin-right: 10px;"" />
          <img src=""images/blue_deck_1.png"" style=""width: 300px; height: 300px;"" />
        </div>","0","8","1","choice","0",""
"","","","","","html-keyboard-response","9","78107","0.0-9.0-0.0-0.0","03368FA4862340F393964971C7FFC8B2","0199d5f8-a4d4-73ff-89e2-3a47d38f08a8","0199d5ef-c7d4-7cab-a194-b2c3afbaf8e8","","null","<div style=""display: flex; justify-content: center; align-items: center;"">
                     <img src=""images/causal/causal_series_8/causal_series_8_d.png"" style=""width: 300px; height: 300px;"" />
                   </div>","null","8","1","D","",""
"","","","","","html-keyboard-response","10","84118","0.0-9.0-0.0-1.0","03368FA4862340F393964971C7FFC8B2","0199d5f8-a4d4-73ff-89e2-3a47d38f08a8","0199d5ef-c7d4-7cab-a194-b2c3afbaf8e8","","null","<div style=""display: flex; justify-content: center; align-items: center;"">
                     <img src=""images/causal/causal_series_8/causal_series_8_e.png"" style=""width: 300px; height: 300px;"" />
                   </div>","null","8","1","E","",""
"","","","","","html-keyboard-response","11","90129","0.0-9.0-0.0-2.0","03368FA4862340F393964971C7FFC8B2","0199d5f8-a4d4-73ff-89e2-3a47d38f08a8","0199d5ef-c7d4-7cab-a194-b2c3afbaf8e8","","null","<div style=""display: flex; justify-content: center; align-items: center;"">
                     <img src=""images/causal/causal_series_8/causal_series_8_f.png"" style=""width: 300px; height: 300px;"" />
                   </div>","null","8","1","F","",""
"","","","","","survey-likert","12","97611","0.0-10.0","03368FA4862340F393964971C7FFC8B2","0199d5f8-a4d4-73ff-89e2-3a47d38f08a8","0199d5ef-c7d4-7cab-a194-b2c3afbaf8e8","","7481","","{""Q0"":0}","8","1","surprise_rating","","[0]"
"","","","","","survey-likert","13","103041","0.0-11.0","03368FA4862340F393964971C7FFC8B2","0199d5f8-a4d4-73ff-89e2-3a47d38f08a8","0199d5ef-c7d4-7cab-a194-b2c3afbaf8e8","","5429","","{""Q0"":2}","8","1","enjoyment_rating","","[0]"
"","","","","","html-keyboard-response","14","109047","0.0-12.0","03368FA4862340F393964971C7FFC8B2","0199d5f8-a4d4-73ff-89e2-3a47d38f08a8","0199d5ef-c7d4-7cab-a194-b2c3afbaf8e8","","null","<div style=""display: flex; justify-content: center; align-items: center;"">
                     <img src=""images/other/blank.png"" style=""width: 300px; height: 300px;"" />
                   </div>","null","0","0","blank","",""
"","","","","","html-keyboard-response","15","115054","0.0-13.0","03368FA4862340F393964971C7FFC8B2","0199d5f8-a4d4-73ff-89e2-3a47d38f08a8","0199d5ef-c7d4-7cab-a194-b2c3afbaf8e8","","null","<div style=""display: flex; justify-content: center; align-items: center;"">
                     <img src=""images/causal/causal_series_10/causal_series_10_a.png"" style=""width: 300px; height: 300px;"" />
                   </div>","null","10","2","A","",""
"","","","","","html-keyboard-response","16","121060","0.0-14.0","03368FA4862340F393964971C7FFC8B2","0199d5f8-a4d4-73ff-89e2-3a47d38f08a8","0199d5ef-c7d4-7cab-a194-b2c3afbaf8e8","","null","<div style=""display: flex; justify-content: center; align-items: center;"">
                     <img src=""images/causal/causal_series_10/causal_series_10_b.png"" style=""width: 300px; height: 300px;"" />
                   </div>","null","10","2","B","",""
"","","","","","html-keyboard-response","17","127065","0.0-15.0","03368FA4862340F393964971C7FFC8B2","0199d5f8-a4d4-73ff-89e2-3a47d38f08a8","0199d5ef-c7d4-7cab-a194-b2c3afbaf8e8","","null","<div style=""display: flex; justify-content: center; align-items: center;"">
                     <img src=""images/causal/causal_series_10/causal_series_10_c.png"" style=""width: 300px; height: 300px;"" />
                   </div>","null","10","2","C","",""
"","","","","","html-button-response","18","132395","0.0-16.0","03368FA4862340F393964971C7FFC8B2","0199d5f8-a4d4-73ff-89e2-3a47d38f08a8","0199d5ef-c7d4-7cab-a194-b2c3afbaf8e8","","5330","
        <div style=""display: flex; justify-content: center; align-items: center;"">
          <img src=""images/red_deck_2.png"" style=""width: 300px; height: 300px; margin-right: 10px;"" />
          <img src=""images/blue_deck_1.png"" style=""width: 300px; height: 300px;"" />
        </div>","0","10","2","choice","0",""
"","","","","","html-keyboard-response","19","138403","0.0-17.0-0.0-0.0","03368FA4862340F393964971C7FFC8B2","0199d5f8-a4d4-73ff-89e2-3a47d38f08a8","0199d5ef-c7d4-7cab-a194-b2c3afbaf8e8","","null","<div style=""display: flex; justify-content: center; align-items: center;"">
                     <img src=""images/causal/causal_series_10/causal_series_10_d.png"" style=""width: 300px; height: 300px;"" />
                   </div>","null","10","2","D","",""
"","","","","","html-keyboard-response","20","144408","0.0-17.0-0.0-1.0","03368FA4862340F393964971C7FFC8B2","0199d5f8-a4d4-73ff-89e2-3a47d38f08a8","0199d5ef-c7d4-7cab-a194-b2c3afbaf8e8","","null","<div style=""display: flex; justify-content: center; align-items: center;"">
                     <img src=""images/causal/causal_series_10/causal_series_10_e.png"" style=""width: 300px; height: 300px;"" />
                   </div>","null","10","2","E","",""
"","","","","","html-keyboard-response","21","150419","0.0-17.0-0.0-2.0","03368FA4862340F393964971C7FFC8B2","0199d5f8-a4d4-73ff-89e2-3a47d38f08a8","0199d5ef-c7d4-7cab-a194-b2c3afbaf8e8","","null","<div style=""display: flex; justify-content: center; align-items: center;"">
                     <img src=""images/causal/causal_series_10/causal_series_10_f.png"" style=""width: 300px; height: 300px;"" />
                   </div>","null","10","2","F","",""
"","","","","","survey-likert","22","159041","0.0-18.0","03368FA4862340F393964971C7FFC8B2","0199d5f8-a4d4-73ff-89e2-3a47d38f08a8","0199d5ef-c7d4-7cab-a194-b2c3afbaf8e8","","8621","","{""Q0"":1}","10","2","surprise_rating","","[0]"
"","","","","","survey-likert","23","161611","0.0-19.0","03368FA4862340F393964971C7FFC8B2","0199d5f8-a4d4-73ff-89e2-3a47d38f08a8","0199d5ef-c7d4-7cab-a194-b2c3afbaf8e8","","2569","","{""Q0"":3}","10","2","enjoyment_rating","","[0]"
"","","","","","html-keyboard-response","24","167622","0.0-20.0","03368FA4862340F393964971C7FFC8B2","0199d5f8-a4d4-73ff-89e2-3a47d38f08a8","0199d5ef-c7d4-7cab-a194-b2c3afbaf8e8","","null","<div style=""display: flex; justify-content: center; align-items: center;"">
                     <img src=""images/other/blank.png"" style=""width: 300px; height: 300px;"" />
                   </div>","null","0","0","blank","",""
"","","","","","html-keyboard-response","25","173626","0.0-21.0","03368FA4862340F393964971C7FFC8B2","0199d5f8-a4d4-73ff-89e2-3a47d38f08a8","0199d5ef-c7d4-7cab-a194-b2c3afbaf8e8","","null","<div style=""display: flex; justify-content: center; align-items: center;"">
                     <img src=""images/causal/causal_series_1/causal_series_1_a.png"" style=""width: 300px; height: 300px;"" />
                   </div>","null","1","2","A","",""
"","","","","","html-keyboard-response","26","179635","0.0-22.0","03368FA4862340F393964971C7FFC8B2","0199d5f8-a4d4-73ff-89e2-3a47d38f08a8","0199d5ef-c7d4-7cab-a194-b2c3afbaf8e8","","null","<div style=""display: flex; justify-content: center; align-items: center;"">
                     <img src=""images/causal/causal_series_1/causal_series_1_b.png"" style=""width: 300px; height: 300px;"" />
                   </div>","null","1","2","B","",""
"","","","","","html-keyboard-response","27","185636","0.0-23.0","03368FA4862340F393964971C7FFC8B2","0199d5f8-a4d4-73ff-89e2-3a47d38f08a8","0199d5ef-c7d4-7cab-a194-b2c3afbaf8e8","","null","<div style=""display: flex; justify-content: center; align-items: center;"">
                     <img src=""images/causal/causal_series_1/causal_series_1_c.png"" style=""width: 300px; height: 300px;"" />
                   </div>","null","1","2","C","",""
"","","","","","html-button-response","28","186527","0.0-24.0","03368FA4862340F393964971C7FFC8B2","0199d5f8-a4d4-73ff-89e2-3a47d38f08a8","0199d5ef-c7d4-7cab-a194-b2c3afbaf8e8","","891","
        <div style=""display: flex; justify-content: center; align-items: center;"">
          <img src=""images/red_deck_2.png"" style=""width: 300px; height: 300px; margin-right: 10px;"" />
          <img src=""images/blue_deck_1.png"" style=""width: 300px; height: 300px;"" />
        </div>","1","1","2","choice","1",""
"","","","","","html-keyboard-response","29","192531","0.0-25.0-1.0-0.0","03368FA4862340F393964971C7FFC8B2","0199d5f8-a4d4-73ff-89e2-3a47d38f08a8","0199d5ef-c7d4-7cab-a194-b2c3afbaf8e8","","null","<div style=""display: flex; justify-content: center; align-items: center;"">
                     <img src=""images/semantic/semantic_series_1/semantic_series_1_d.png"" style=""width: 300px; height: 300px;"" />
                   </div>","null","1","2","D","",""
"","","","","","html-keyboard-response","30","198535","0.0-25.0-1.0-1.0","03368FA4862340F393964971C7FFC8B2","0199d5f8-a4d4-73ff-89e2-3a47d38f08a8","0199d5ef-c7d4-7cab-a194-b2c3afbaf8e8","","null","<div style=""display: flex; justify-content: center; align-items: center;"">
                     <img src=""images/semantic/semantic_series_1/semantic_series_1_e.png"" style=""width: 300px; height: 300px;"" />
                   </div>","null","1","2","E","",""
"","","","","","html-keyboard-response","31","204535","0.0-25.0-1.0-2.0","03368FA4862340F393964971C7FFC8B2","0199d5f8-a4d4-73ff-89e2-3a47d38f08a8","0199d5ef-c7d4-7cab-a194-b2c3afbaf8e8","","null","<div style=""display: flex; justify-content: center; align-items: center;"">
                     <img src=""images/semantic/semantic_series_1/semantic_series_1_f.png"" style=""width: 300px; height: 300px;"" />
                   </div>","null","1","2","F","",""
"","","","","","survey-likert","32","209893","0.0-26.0","03368FA4862340F393964971C7FFC8B2","0199d5f8-a4d4-73ff-89e2-3a47d38f08a8","0199d5ef-c7d4-7cab-a194-b2c3afbaf8e8","","5357","","{""Q0"":1}","1","2","surprise_rating","","[0]"
"","","","","","survey-likert","33","214253","0.0-27.0","03368FA4862340F393964971C7FFC8B2","0199d5f8-a4d4-73ff-89e2-3a47d38f08a8","0199d5ef-c7d4-7cab-a194-b2c3afbaf8e8","","4359","","{""Q0"":1}","1","2","enjoyment_rating","","[0]"
"","","","","","html-keyboard-response","34","220259","0.0-28.0","03368FA4862340F393964971C7FFC8B2","0199d5f8-a4d4-73ff-89e2-3a47d38f08a8","0199d5ef-c7d4-7cab-a194-b2c3afbaf8e8","","null","<div style=""display: flex; justify-content: center; align-items: center;"">
                     <img src=""images/other/blank.png"" style=""width: 300px; height: 300px;"" />
                   </div>","null","0","0","blank","",""
"","","","","","html-keyboard-response","35","226271","0.0-29.0","03368FA4862340F393964971C7FFC8B2","0199d5f8-a4d4-73ff-89e2-3a47d38f08a8","0199d5ef-c7d4-7cab-a194-b2c3afbaf8e8","","null","<div style=""display: flex; justify-content: center; align-items: center;"">
                     <img src=""images/causal/causal_series_5/causal_series_5_a.png"" style=""width: 300px; height: 300px;"" />
                   </div>","null","5","2","A","",""
"","","","","","html-keyboard-response","36","232286","0.0-30.0","03368FA4862340F393964971C7FFC8B2","0199d5f8-a4d4-73ff-89e2-3a47d38f08a8","0199d5ef-c7d4-7cab-a194-b2c3afbaf8e8","","null","<div style=""display: flex; justify-content: center; align-items: center;"">
                     <img src=""images/causal/causal_series_5/causal_series_5_b.png"" style=""width: 300px; height: 300px;"" />
                   </div>","null","5","2","B","",""
"","","","","","html-keyboard-response","37","238289","0.0-31.0","03368FA4862340F393964971C7FFC8B2","0199d5f8-a4d4-73ff-89e2-3a47d38f08a8","0199d5ef-c7d4-7cab-a194-b2c3afbaf8e8","","null","<div style=""display: flex; justify-content: center; align-items: center;"">
                     <img src=""images/causal/causal_series_5/causal_series_5_c.png"" style=""width: 300px; height: 300px;"" />
                   </div>","null","5","2","C","",""
"","","","","","html-button-response","38","239448","0.0-32.0","03368FA4862340F393964971C7FFC8B2","0199d5f8-a4d4-73ff-89e2-3a47d38f08a8","0199d5ef-c7d4-7cab-a194-b2c3afbaf8e8","","1159","
        <div style=""display: flex; justify-content: center; align-items: center;"">
          <img src=""images/red_deck_2.png"" style=""width: 300px; height: 300px; margin-right: 10px;"" />
          <img src=""images/blue_deck_1.png"" style=""width: 300px; height: 300px;"" />
        </div>","0","5","2","choice","0",""
"","","","","","html-keyboard-response","39","245449","0.0-33.0-0.0-0.0","03368FA4862340F393964971C7FFC8B2","0199d5f8-a4d4-73ff-89e2-3a47d38f08a8","0199d5ef-c7d4-7cab-a194-b2c3afbaf8e8","","null","<div style=""display: flex; justify-content: center; align-items: center;"">
                     <img src=""images/causal/causal_series_5/causal_series_5_d.png"" style=""width: 300px; height: 300px;"" />
                   </div>","null","5","2","D","",""
"","","","","","html-keyboard-response","40","251464","0.0-33.0-0.0-1.0","03368FA4862340F393964971C7FFC8B2","0199d5f8-a4d4-73ff-89e2-3a47d38f08a8","0199d5ef-c7d4-7cab-a194-b2c3afbaf8e8","","null","<div style=""display: flex; justify-content: center; align-items: center;"">
                     <img src=""images/causal/causal_series_5/causal_series_5_e.png"" style=""width: 300px; height: 300px;"" />
                   </div>","null","5","2","E","",""
"","","","","","html-keyboard-response","41","257465","0.0-33.0-0.0-2.0","03368FA4862340F393964971C7FFC8B2","0199d5f8-a4d4-73ff-89e2-3a47d38f08a8","0199d5ef-c7d4-7cab-a194-b2c3afbaf8e8","","null","<div style=""display: flex; justify-content: center; align-items: center;"">
                     <img src=""images/causal/causal_series_5/causal_series_5_f.png"" style=""width: 300px; height: 300px;"" />
                   </div>","null","5","2","F","",""
"","","","","","survey-likert","42","261216","0.0-34.0","03368FA4862340F393964971C7FFC8B2","0199d5f8-a4d4-73ff-89e2-3a47d38f08a8","0199d5ef-c7d4-7cab-a194-b2c3afbaf8e8","","3750","","{""Q0"":3}","5","2","surprise_rating","","[0]"
"","","","","","survey-likert","43","264084","0.0-35.0","03368FA4862340F393964971C7FFC8B2","0199d5f8-a4d4-73ff-89e2-3a47d38f08a8","0199d5ef-c7d4-7cab-a194-b2c3afbaf8e8","","2867","","{""Q0"":3}","5","2","enjoyment_rating","","[0]"
"","","","","","html-keyboard-response","44","270100","0.0-36.0","03368FA4862340F393964971C7FFC8B2","0199d5f8-a4d4-73ff-89e2-3a47d38f08a8","0199d5ef-c7d4-7cab-a194-b2c3afbaf8e8","","null","<div style=""display: flex; justify-content: center; align-items: center;"">
                     <img src=""images/other/blank.png"" style=""width: 300px; height: 300px;"" />
                   </div>","null","0","0","blank","",""
"","","","","","html-keyboard-response","45","276107","0.0-37.0","03368FA4862340F393964971C7FFC8B2","0199d5f8-a4d4-73ff-89e2-3a47d38f08a8","0199d5ef-c7d4-7cab-a194-b2c3afbaf8e8","","null","<div style=""display: flex; justify-content: center; align-items: center;"">
                     <img src=""images/causal/causal_series_4/causal_series_4_a.png"" style=""width: 300px; height: 300px;"" />
                   </div>","null","4","1","A","",""
"","","","","","html-keyboard-response","46","282114","0.0-38.0","03368FA4862340F393964971C7FFC8B2","0199d5f8-a4d4-73ff-89e2-3a47d38f08a8","0199d5ef-c7d4-7cab-a194-b2c3afbaf8e8","","null","<div style=""display: flex; justify-content: center; align-items: center;"">
                     <img src=""images/causal/causal_series_4/causal_series_4_b.png"" style=""width: 300px; height: 300px;"" />
                   </div>","null","4","1","B","",""
"","","","","","html-keyboard-response","47","288117","0.0-39.0","03368FA4862340F393964971C7FFC8B2","0199d5f8-a4d4-73ff-89e2-3a47d38f08a8","0199d5ef-c7d4-7cab-a194-b2c3afbaf8e8","","null","<div style=""display: flex; justify-content: center; align-items: center;"">
                     <img src=""images/causal/causal_series_4/causal_series_4_c.png"" style=""width: 300px; height: 300px;"" />
                   </div>","null","4","1","C","",""
"","","","","","html-button-response","48","289626","0.0-40.0","03368FA4862340F393964971C7FFC8B2","0199d5f8-a4d4-73ff-89e2-3a47d38f08a8","0199d5ef-c7d4-7cab-a194-b2c3afbaf8e8","","1508","
        <div style=""display: flex; justify-content: center; align-items: center;"">
          <img src=""images/red_deck_2.png"" style=""width: 300px; height: 300px; margin-right: 10px;"" />
          <img src=""images/blue_deck_1.png"" style=""width: 300px; height: 300px;"" />
        </div>","0","4","1","choice","0",""
"","","","","","html-keyboard-response","49","295636","0.0-41.0-0.0-0.0","03368FA4862340F393964971C7FFC8B2","0199d5f8-a4d4-73ff-89e2-3a47d38f08a8","0199d5ef-c7d4-7cab-a194-b2c3afbaf8e8","","null","<div style=""display: flex; justify-content: center; align-items: center;"">
                     <img src=""images/causal/causal_series_4/causal_series_4_d.png"" style=""width: 300px; height: 300px;"" />
                   </div>","null","4","1","D","",""
"","","","","","html-keyboard-response","50","301649","0.0-41.0-0.0-1.0","03368FA4862340F393964971C7FFC8B2","0199d5f8-a4d4-73ff-89e2-3a47d38f08a8","0199d5ef-c7d4-7cab-a194-b2c3afbaf8e8","","null","<div style=""display: flex; justify-content: center; align-items: center;"">
                     <img src=""images/causal/causal_series_4/causal_series_4_e.png"" style=""width: 300px; height: 300px;"" />
                   </div>","null","4","1","E","",""
"","","","","","html-keyboard-response","51","307657","0.0-41.0-0.0-2.0","03368FA4862340F393964971C7FFC8B2","0199d5f8-a4d4-73ff-89e2-3a47d38f08a8","0199d5ef-c7d4-7cab-a194-b2c3afbaf8e8","","null","<div style=""display: flex; justify-content: center; align-items: center;"">
                     <img src=""images/causal/causal_series_4/causal_series_4_f.png"" style=""width: 300px; height: 300px;"" />
                   </div>","null","4","1","F","",""
"","","","","","survey-likert","52","311908","0.0-42.0","03368FA4862340F393964971C7FFC8B2","0199d5f8-a4d4-73ff-89e2-3a47d38f08a8","0199d5ef-c7d4-7cab-a194-b2c3afbaf8e8","","4250","","{""Q0"":3}","4","1","surprise_rating","","[0]"
"","","","","","survey-likert","53","314928","0.0-43.0","03368FA4862340F393964971C7FFC8B2","0199d5f8-a4d4-73ff-89e2-3a47d38f08a8","0199d5ef-c7d4-7cab-a194-b2c3afbaf8e8","","3020","","{""Q0"":3}","4","1","enjoyment_rating","","[0]"
"","","","","","html-keyboard-response","54","320931","0.0-44.0","03368FA4862340F393964971C7FFC8B2","0199d5f8-a4d4-73ff-89e2-3a47d38f08a8","0199d5ef-c7d4-7cab-a194-b2c3afbaf8e8","","null","<div style=""display: flex; justify-content: center; align-items: center;"">
                     <img src=""images/other/blank.png"" style=""width: 300px; height: 300px;"" />
                   </div>","null","0","0","blank","",""
"","","","","","html-keyboard-response","55","326940","0.0-45.0","03368FA4862340F393964971C7FFC8B2","0199d5f8-a4d4-73ff-89e2-3a47d38f08a8","0199d5ef-c7d4-7cab-a194-b2c3afbaf8e8","","null","<div style=""display: flex; justify-content: center; align-items: center;"">
                     <img src=""images/causal/causal_series_5/causal_series_5_a.png"" style=""width: 300px; height: 300px;"" />
                   </div>","null","5","1","A","",""
"","","","","","html-keyboard-response","56","332954","0.0-46.0","03368FA4862340F393964971C7FFC8B2","0199d5f8-a4d4-73ff-89e2-3a47d38f08a8","0199d5ef-c7d4-7cab-a194-b2c3afbaf8e8","","null","<div style=""display: flex; justify-content: center; align-items: center;"">
                     <img src=""images/causal/causal_series_5/causal_series_5_b.png"" style=""width: 300px; height: 300px;"" />
                   </div>","null","5","1","B","",""
"","","","","","html-keyboard-response","57","338955","0.0-47.0","03368FA4862340F393964971C7FFC8B2","0199d5f8-a4d4-73ff-89e2-3a47d38f08a8","0199d5ef-c7d4-7cab-a194-b2c3afbaf8e8","","null","<div style=""display: flex; justify-content: center; align-items: center;"">
                     <img src=""images/causal/causal_series_5/causal_series_5_c.png"" style=""width: 300px; height: 300px;"" />
                   </div>","null","5","1","C","",""
"","","","","","html-button-response","58","339913","0.0-48.0","03368FA4862340F393964971C7FFC8B2","0199d5f8-a4d4-73ff-89e2-3a47d38f08a8","0199d5ef-c7d4-7cab-a194-b2c3afbaf8e8","","957","
        <div style=""display: flex; justify-content: center; align-items: center;"">
          <img src=""images/red_deck_2.png"" style=""width: 300px; height: 300px; margin-right: 10px;"" />
          <img src=""images/blue_deck_1.png"" style=""width: 300px; height: 300px;"" />
        </div>","1","5","1","choice","1",""
"","","","","","html-keyboard-response","59","345919","0.0-49.0-1.0-0.0","03368FA4862340F393964971C7FFC8B2","0199d5f8-a4d4-73ff-89e2-3a47d38f08a8","0199d5ef-c7d4-7cab-a194-b2c3afbaf8e8","","null","<div style=""display: flex; justify-content: center; align-items: center;"">
                     <img src=""images/semantic/semantic_series_5/semantic_series_5_d.png"" style=""width: 300px; height: 300px;"" />
                   </div>","null","5","1","D","",""
"","","","","","html-keyboard-response","60","351921","0.0-49.0-1.0-1.0","03368FA4862340F393964971C7FFC8B2","0199d5f8-a4d4-73ff-89e2-3a47d38f08a8","0199d5ef-c7d4-7cab-a194-b2c3afbaf8e8","","null","<div style=""display: flex; justify-content: center; align-items: center;"">
                     <img src=""images/semantic/semantic_series_5/semantic_series_5_e.png"" style=""width: 300px; height: 300px;"" />
                   </div>","null","5","1","E","",""
"","","","","","html-keyboard-response","61","357934","0.0-49.0-1.0-2.0","03368FA4862340F393964971C7FFC8B2","0199d5f8-a4d4-73ff-89e2-3a47d38f08a8","0199d5ef-c7d4-7cab-a194-b2c3afbaf8e8","","null","<div style=""display: flex; justify-content: center; align-items: center;"">
                     <img src=""images/semantic/semantic_series_5/semantic_series_5_f.png"" style=""width: 300px; height: 300px;"" />
                   </div>","null","5","1","F","",""
"","","","","","survey-likert","62","367061","0.0-50.0","03368FA4862340F393964971C7FFC8B2","0199d5f8-a4d4-73ff-89e2-3a47d38f08a8","0199d5ef-c7d4-7cab-a194-b2c3afbaf8e8","","9126","","{""Q0"":4}","5","1","surprise_rating","","[0]"
"","","","","","survey-likert","63","370518","0.0-51.0","03368FA4862340F393964971C7FFC8B2","0199d5f8-a4d4-73ff-89e2-3a47d38f08a8","0199d5ef-c7d4-7cab-a194-b2c3afbaf8e8","","3456","","{""Q0"":1}","5","1","enjoyment_rating","","[0]"
"","","","","","html-keyboard-response","64","376528","0.0-52.0","03368FA4862340F393964971C7FFC8B2","0199d5f8-a4d4-73ff-89e2-3a47d38f08a8","0199d5ef-c7d4-7cab-a194-b2c3afbaf8e8","","null","<div style=""display: flex; justify-content: center; align-items: center;"">
                     <img src=""images/other/blank.png"" style=""width: 300px; height: 300px;"" />
                   </div>","null","0","0","blank","",""
"","","","","","html-keyboard-response","65","382532","0.0-53.0","03368FA4862340F393964971C7FFC8B2","0199d5f8-a4d4-73ff-89e2-3a47d38f08a8","0199d5ef-c7d4-7cab-a194-b2c3afbaf8e8","","null","<div style=""display: flex; justify-content: center; align-items: center;"">
                     <img src=""images/causal/causal_series_3/causal_series_3_a.png"" style=""width: 300px; height: 300px;"" />
                   </div>","null","3","1","A","",""
"","","","","","html-keyboard-response","66","388538","0.0-54.0","03368FA4862340F393964971C7FFC8B2","0199d5f8-a4d4-73ff-89e2-3a47d38f08a8","0199d5ef-c7d4-7cab-a194-b2c3afbaf8e8","","null","<div style=""display: flex; justify-content: center; align-items: center;"">
                     <img src=""images/causal/causal_series_3/causal_series_3_b.png"" style=""width: 300px; height: 300px;"" />
                   </div>","null","3","1","B","",""
"","","","","","html-keyboard-response","67","394539","0.0-55.0","03368FA4862340F393964971C7FFC8B2","0199d5f8-a4d4-73ff-89e2-3a47d38f08a8","0199d5ef-c7d4-7cab-a194-b2c3afbaf8e8","","null","<div style=""display: flex; justify-content: center; align-items: center;"">
                     <img src=""images/causal/causal_series_3/causal_series_3_c.png"" style=""width: 300px; height: 300px;"" />
                   </div>","null","3","1","C","",""
"","","","","","html-button-response","68","396106","0.0-56.0","03368FA4862340F393964971C7FFC8B2","0199d5f8-a4d4-73ff-89e2-3a47d38f08a8","0199d5ef-c7d4-7cab-a194-b2c3afbaf8e8","","1566","
        <div style=""display: flex; justify-content: center; align-items: center;"">
          <img src=""images/red_deck_2.png"" style=""width: 300px; height: 300px; margin-right: 10px;"" />
          <img src=""images/blue_deck_1.png"" style=""width: 300px; height: 300px;"" />
        </div>","0","3","1","choice","0",""
"","","","","","html-keyboard-response","69","402108","0.0-57.0-0.0-0.0","03368FA4862340F393964971C7FFC8B2","0199d5f8-a4d4-73ff-89e2-3a47d38f08a8","0199d5ef-c7d4-7cab-a194-b2c3afbaf8e8","","null","<div style=""display: flex; justify-content: center; align-items: center;"">
                     <img src=""images/causal/causal_series_3/causal_series_3_d.png"" style=""width: 300px; height: 300px;"" />
                   </div>","null","3","1","D","",""
"","","","","","html-keyboard-response","70","408122","0.0-57.0-0.0-1.0","03368FA4862340F393964971C7FFC8B2","0199d5f8-a4d4-73ff-89e2-3a47d38f08a8","0199d5ef-c7d4-7cab-a194-b2c3afbaf8e8","","null","<div style=""display: flex; justify-content: center; align-items: center;"">
                     <img src=""images/causal/causal_series_3/causal_series_3_e.png"" style=""width: 300px; height: 300px;"" />
                   </div>","null","3","1","E","",""
"","","","","","html-keyboard-response","71","414128","0.0-57.0-0.0-2.0","03368FA4862340F393964971C7FFC8B2","0199d5f8-a4d4-73ff-89e2-3a47d38f08a8","0199d5ef-c7d4-7cab-a194-b2c3afbaf8e8","","null","<div style=""display: flex; justify-content: center; align-items: center;"">
                     <img src=""images/causal/causal_series_3/causal_series_3_f.png"" style=""width: 300px; height: 300px;"" />
                   </div>","null","3","1","F","",""
"","","","","","survey-likert","72","417420","0.0-58.0","03368FA4862340F393964971C7FFC8B2","0199d5f8-a4d4-73ff-89e2-3a47d38f08a8","0199d5ef-c7d4-7cab-a194-b2c3afbaf8e8","","3291","","{""Q0"":4}","3","1","surprise_rating","","[0]"
"","","","","","survey-likert","73","419210","0.0-59.0","03368FA4862340F393964971C7FFC8B2","0199d5f8-a4d4-73ff-89e2-3a47d38f08a8","0199d5ef-c7d4-7cab-a194-b2c3afbaf8e8","","1789","","{""Q0"":3}","3","1","enjoyment_rating","","[0]"
"","","","","","html-keyboard-response","74","425223","0.0-60.0","03368FA4862340F393964971C7FFC8B2","0199d5f8-a4d4-73ff-89e2-3a47d38f08a8","0199d5ef-c7d4-7cab-a194-b2c3afbaf8e8","","null","<div style=""display: flex; justify-content: center; align-items: center;"">
                     <img src=""images/other/blank.png"" style=""width: 300px; height: 300px;"" />
                   </div>","null","0","0","blank","",""
"","","","","","html-keyboard-response","75","431234","0.0-61.0","03368FA4862340F393964971C7FFC8B2","0199d5f8-a4d4-73ff-89e2-3a47d38f08a8","0199d5ef-c7d4-7cab-a194-b2c3afbaf8e8","","null","<div style=""display: flex; justify-content: center; align-items: center;"">
                     <img src=""images/causal/causal_series_1/causal_series_1_a.png"" style=""width: 300px; height: 300px;"" />
                   </div>","null","1","1","A","",""
"","","","","","html-keyboard-response","76","437237","0.0-62.0","03368FA4862340F393964971C7FFC8B2","0199d5f8-a4d4-73ff-89e2-3a47d38f08a8","0199d5ef-c7d4-7cab-a194-b2c3afbaf8e8","","null","<div style=""display: flex; justify-content: center; align-items: center;"">
                     <img src=""images/causal/causal_series_1/causal_series_1_b.png"" style=""width: 300px; height: 300px;"" />
                   </div>","null","1","1","B","",""
"","","","","","html-keyboard-response","77","443239","0.0-63.0","03368FA4862340F393964971C7FFC8B2","0199d5f8-a4d4-73ff-89e2-3a47d38f08a8","0199d5ef-c7d4-7cab-a194-b2c3afbaf8e8","","null","<div style=""display: flex; justify-content: center; align-items: center;"">
                     <img src=""images/causal/causal_series_1/causal_series_1_c.png"" style=""width: 300px; height: 300px;"" />
                   </div>","null","1","1","C","",""
"","","","","","html-button-response","78","444465","0.0-64.0","03368FA4862340F393964971C7FFC8B2","0199d5f8-a4d4-73ff-89e2-3a47d38f08a8","0199d5ef-c7d4-7cab-a194-b2c3afbaf8e8","","1226","
        <div style=""display: flex; justify-content: center; align-items: center;"">
          <img src=""images/red_deck_2.png"" style=""width: 300px; height: 300px; margin-right: 10px;"" />
          <img src=""images/blue_deck_1.png"" style=""width: 300px; height: 300px;"" />
        </div>","0","1","1","choice","0",""
"","","","","","html-keyboard-response","79","450467","0.0-65.0-0.0-0.0","03368FA4862340F393964971C7FFC8B2","0199d5f8-a4d4-73ff-89e2-3a47d38f08a8","0199d5ef-c7d4-7cab-a194-b2c3afbaf8e8","","null","<div style=""display: flex; justify-content: center; align-items: center;"">
                     <img src=""images/causal/causal_series_1/causal_series_1_d.png"" style=""width: 300px; height: 300px;"" />
                   </div>","null","1","1","D","",""
"","","","","","html-keyboard-response","80","456475","0.0-65.0-0.0-1.0","03368FA4862340F393964971C7FFC8B2","0199d5f8-a4d4-73ff-89e2-3a47d38f08a8","0199d5ef-c7d4-7cab-a194-b2c3afbaf8e8","","null","<div style=""display: flex; justify-content: center; align-items: center;"">
                     <img src=""images/causal/causal_series_1/causal_series_1_e.png"" style=""width: 300px; height: 300px;"" />
                   </div>","null","1","1","E","",""
"","","","","","html-keyboard-response","81","462476","0.0-65.0-0.0-2.0","03368FA4862340F393964971C7FFC8B2","0199d5f8-a4d4-73ff-89e2-3a47d38f08a8","0199d5ef-c7d4-7cab-a194-b2c3afbaf8e8","","null","<div style=""display: flex; justify-content: center; align-items: center;"">
                     <img src=""images/causal/causal_series_1/causal_series_1_f.png"" style=""width: 300px; height: 300px;"" />
                   </div>","null","1","1","F","",""
"","","","","","survey-likert","82","464266","0.0-66.0","03368FA4862340F393964971C7FFC8B2","0199d5f8-a4d4-73ff-89e2-3a47d38f08a8","0199d5ef-c7d4-7cab-a194-b2c3afbaf8e8","","1789","","{""Q0"":3}","1","1","surprise_rating","","[0]"
"","","","","","survey-likert","83","465711","0.0-67.0","03368FA4862340F393964971C7FFC8B2","0199d5f8-a4d4-73ff-89e2-3a47d38f08a8","0199d5ef-c7d4-7cab-a194-b2c3afbaf8e8","","1444","","{""Q0"":3}","1","1","enjoyment_rating","","[0]"
"","","","","","html-keyboard-response","84","471722","0.0-68.0","03368FA4862340F393964971C7FFC8B2","0199d5f8-a4d4-73ff-89e2-3a47d38f08a8","0199d5ef-c7d4-7cab-a194-b2c3afbaf8e8","","null","<div style=""display: flex; justify-content: center; align-items: center;"">
                     <img src=""images/other/blank.png"" style=""width: 300px; height: 300px;"" />
                   </div>","null","0","0","blank","",""
"","","","","","html-keyboard-response","85","477736","0.0-69.0","03368FA4862340F393964971C7FFC8B2","0199d5f8-a4d4-73ff-89e2-3a47d38f08a8","0199d5ef-c7d4-7cab-a194-b2c3afbaf8e8","","null","<div style=""display: flex; justify-content: center; align-items: center;"">
                     <img src=""images/causal/causal_series_9/causal_series_9_a.png"" style=""width: 300px; height: 300px;"" />
                   </div>","null","9","1","A","",""
"","","","","","html-keyboard-response","86","483738","0.0-70.0","03368FA4862340F393964971C7FFC8B2","0199d5f8-a4d4-73ff-89e2-3a47d38f08a8","0199d5ef-c7d4-7cab-a194-b2c3afbaf8e8","","null","<div style=""display: flex; justify-content: center; align-items: center;"">
                     <img src=""images/causal/causal_series_9/causal_series_9_b.png"" style=""width: 300px; height: 300px;"" />
                   </div>","null","9","1","B","",""
"","","","","","html-keyboard-response","87","489739","0.0-71.0","03368FA4862340F393964971C7FFC8B2","0199d5f8-a4d4-73ff-89e2-3a47d38f08a8","0199d5ef-c7d4-7cab-a194-b2c3afbaf8e8","","null","<div style=""display: flex; justify-content: center; align-items: center;"">
                     <img src=""images/causal/causal_series_9/causal_series_9_c.png"" style=""width: 300px; height: 300px;"" />
                   </div>","null","9","1","C","",""
"","","","","","html-button-response","88","490967","0.0-72.0","03368FA4862340F393964971C7FFC8B2","0199d5f8-a4d4-73ff-89e2-3a47d38f08a8","0199d5ef-c7d4-7cab-a194-b2c3afbaf8e8","","1227","
        <div style=""display: flex; justify-content: center; align-items: center;"">
          <img src=""images/red_deck_2.png"" style=""width: 300px; height: 300px; margin-right: 10px;"" />
          <img src=""images/blue_deck_1.png"" style=""width: 300px; height: 300px;"" />
        </div>","0","9","1","choice","0",""
"","","","","","html-keyboard-response","89","496983","0.0-73.0-0.0-0.0","03368FA4862340F393964971C7FFC8B2","0199d5f8-a4d4-73ff-89e2-3a47d38f08a8","0199d5ef-c7d4-7cab-a194-b2c3afbaf8e8","","null","<div style=""display: flex; justify-content: center; align-items: center;"">
                     <img src=""images/causal/causal_series_9/causal_series_9_d.png"" style=""width: 300px; height: 300px;"" />
                   </div>","null","9","1","D","",""
"","","","","","html-keyboard-response","90","502986","0.0-73.0-0.0-1.0","03368FA4862340F393964971C7FFC8B2","0199d5f8-a4d4-73ff-89e2-3a47d38f08a8","0199d5ef-c7d4-7cab-a194-b2c3afbaf8e8","","null","<div style=""display: flex; justify-content: center; align-items: center;"">
                     <img src=""images/causal/causal_series_9/causal_series_9_e.png"" style=""width: 300px; height: 300px;"" />
                   </div>","null","9","1","E","",""
"","","","","","html-keyboard-response","91","508988","0.0-73.0-0.0-2.0","03368FA4862340F393964971C7FFC8B2","0199d5f8-a4d4-73ff-89e2-3a47d38f08a8","0199d5ef-c7d4-7cab-a194-b2c3afbaf8e8","","null","<div style=""display: flex; justify-content: center; align-items: center;"">
                     <img src=""images/causal/causal_series_9/causal_series_9_f.png"" style=""width: 300px; height: 300px;"" />
                   </div>","null","9","1","F","",""
"","","","","","survey-likert","92","510629","0.0-74.0","03368FA4862340F393964971C7FFC8B2","0199d5f8-a4d4-73ff-89e2-3a47d38f08a8","0199d5ef-c7d4-7cab-a194-b2c3afbaf8e8","","1641","","{""Q0"":4}","9","1","surprise_rating","","[0]"
"","","","","","survey-likert","93","513070","0.0-75.0","03368FA4862340F393964971C7FFC8B2","0199d5f8-a4d4-73ff-89e2-3a47d38f08a8","0199d5ef-c7d4-7cab-a194-b2c3afbaf8e8","","2440","","{""Q0"":4}","9","1","enjoyment_rating","","[0]"
"","","","","","html-keyboard-response","94","519082","0.0-76.0","03368FA4862340F393964971C7FFC8B2","0199d5f8-a4d4-73ff-89e2-3a47d38f08a8","0199d5ef-c7d4-7cab-a194-b2c3afbaf8e8","","null","<div style=""display: flex; justify-content: center; align-items: center;"">
                     <img src=""images/other/blank.png"" style=""width: 300px; height: 300px;"" />
                   </div>","null","0","0","blank","",""
"","","","","","html-keyboard-response","95","525086","0.0-77.0","03368FA4862340F393964971C7FFC8B2","0199d5f8-a4d4-73ff-89e2-3a47d38f08a8","0199d5ef-c7d4-7cab-a194-b2c3afbaf8e8","","null","<div style=""display: flex; justify-content: center; align-items: center;"">
                     <img src=""images/causal/causal_series_9/causal_series_9_a.png"" style=""width: 300px; height: 300px;"" />
                   </div>","null","9","2","A","",""
"","","","","","html-keyboard-response","96","531098","0.0-78.0","03368FA4862340F393964971C7FFC8B2","0199d5f8-a4d4-73ff-89e2-3a47d38f08a8","0199d5ef-c7d4-7cab-a194-b2c3afbaf8e8","","null","<div style=""display: flex; justify-content: center; align-items: center;"">
                     <img src=""images/causal/causal_series_9/causal_series_9_b.png"" style=""width: 300px; height: 300px;"" />
                   </div>","null","9","2","B","",""
"","","","","","html-keyboard-response","97","537105","0.0-79.0","03368FA4862340F393964971C7FFC8B2","0199d5f8-a4d4-73ff-89e2-3a47d38f08a8","0199d5ef-c7d4-7cab-a194-b2c3afbaf8e8","","null","<div style=""display: flex; justify-content: center; align-items: center;"">
                     <img src=""images/causal/causal_series_9/causal_series_9_c.png"" style=""width: 300px; height: 300px;"" />
                   </div>","null","9","2","C","",""
"","","","","","html-button-response","98","537935","0.0-80.0","03368FA4862340F393964971C7FFC8B2","0199d5f8-a4d4-73ff-89e2-3a47d38f08a8","0199d5ef-c7d4-7cab-a194-b2c3afbaf8e8","","829","
        <div style=""display: flex; justify-content: center; align-items: center;"">
          <img src=""images/red_deck_2.png"" style=""width: 300px; height: 300px; margin-right: 10px;"" />
          <img src=""images/blue_deck_1.png"" style=""width: 300px; height: 300px;"" />
        </div>","1","9","2","choice","1",""
"","","","","","html-keyboard-response","99","543949","0.0-81.0-1.0-0.0","03368FA4862340F393964971C7FFC8B2","0199d5f8-a4d4-73ff-89e2-3a47d38f08a8","0199d5ef-c7d4-7cab-a194-b2c3afbaf8e8","","null","<div style=""display: flex; justify-content: center; align-items: center;"">
                     <img src=""images/semantic/semantic_series_9/semantic_series_9_d.png"" style=""width: 300px; height: 300px;"" />
                   </div>","null","9","2","D","",""
"","","","","","html-keyboard-response","100","549962","0.0-81.0-1.0-1.0","03368FA4862340F393964971C7FFC8B2","0199d5f8-a4d4-73ff-89e2-3a47d38f08a8","0199d5ef-c7d4-7cab-a194-b2c3afbaf8e8","","null","<div style=""display: flex; justify-content: center; align-items: center;"">
                     <img src=""images/semantic/semantic_series_9/semantic_series_9_e.png"" style=""width: 300px; height: 300px;"" />
                   </div>","null","9","2","E","",""
"","","","","","html-keyboard-response","101","555964","0.0-81.0-1.0-2.0","03368FA4862340F393964971C7FFC8B2","0199d5f8-a4d4-73ff-89e2-3a47d38f08a8","0199d5ef-c7d4-7cab-a194-b2c3afbaf8e8","","null","<div style=""display: flex; justify-content: center; align-items: center;"">
                     <img src=""images/semantic/semantic_series_9/semantic_series_9_f.png"" style=""width: 300px; height: 300px;"" />
                   </div>","null","9","2","F","",""
"","","","","","survey-likert","102","557919","0.0-82.0","03368FA4862340F393964971C7FFC8B2","0199d5f8-a4d4-73ff-89e2-3a47d38f08a8","0199d5ef-c7d4-7cab-a194-b2c3afbaf8e8","","1955","","{""Q0"":4}","9","2","surprise_rating","","[0]"
"","","","","","survey-likert","103","559199","0.0-83.0","03368FA4862340F393964971C7FFC8B2","0199d5f8-a4d4-73ff-89e2-3a47d38f08a8","0199d5ef-c7d4-7cab-a194-b2c3afbaf8e8","","1280","","{""Q0"":3}","9","2","enjoyment_rating","","[0]"
"","","","","","html-keyboard-response","104","565212","0.0-84.0","03368FA4862340F393964971C7FFC8B2","0199d5f8-a4d4-73ff-89e2-3a47d38f08a8","0199d5ef-c7d4-7cab-a194-b2c3afbaf8e8","","null","<div style=""display: flex; justify-content: center; align-items: center;"">
                     <img src=""images/other/blank.png"" style=""width: 300px; height: 300px;"" />
                   </div>","null","0","0","blank","",""
"","","","","","html-keyboard-response","105","571214","0.0-85.0","03368FA4862340F393964971C7FFC8B2","0199d5f8-a4d4-73ff-89e2-3a47d38f08a8","0199d5ef-c7d4-7cab-a194-b2c3afbaf8e8","","null","<div style=""display: flex; justify-content: center; align-items: center;"">
                     <img src=""images/causal/causal_series_4/causal_series_4_a.png"" style=""width: 300px; height: 300px;"" />
                   </div>","null","4","2","A","",""
"","","","","","html-keyboard-response","106","577223","0.0-86.0","03368FA4862340F393964971C7FFC8B2","0199d5f8-a4d4-73ff-89e2-3a47d38f08a8","0199d5ef-c7d4-7cab-a194-b2c3afbaf8e8","","null","<div style=""display: flex; justify-content: center; align-items: center;"">
                     <img src=""images/causal/causal_series_4/causal_series_4_b.png"" style=""width: 300px; height: 300px;"" />
                   </div>","null","4","2","B","",""
"","","","","","html-keyboard-response","107","583223","0.0-87.0","03368FA4862340F393964971C7FFC8B2","0199d5f8-a4d4-73ff-89e2-3a47d38f08a8","0199d5ef-c7d4-7cab-a194-b2c3afbaf8e8","","null","<div style=""display: flex; justify-content: center; align-items: center;"">
                     <img src=""images/causal/causal_series_4/causal_series_4_c.png"" style=""width: 300px; height: 300px;"" />
                   </div>","null","4","2","C","",""
"","","","","","html-button-response","108","584458","0.0-88.0","03368FA4862340F393964971C7FFC8B2","0199d5f8-a4d4-73ff-89e2-3a47d38f08a8","0199d5ef-c7d4-7cab-a194-b2c3afbaf8e8","","1234","
        <div style=""display: flex; justify-content: center; align-items: center;"">
          <img src=""images/red_deck_2.png"" style=""width: 300px; height: 300px; margin-right: 10px;"" />
          <img src=""images/blue_deck_1.png"" style=""width: 300px; height: 300px;"" />
        </div>","1","4","2","choice","1",""
"","","","","","html-keyboard-response","109","590462","0.0-89.0-1.0-0.0","03368FA4862340F393964971C7FFC8B2","0199d5f8-a4d4-73ff-89e2-3a47d38f08a8","0199d5ef-c7d4-7cab-a194-b2c3afbaf8e8","","null","<div style=""display: flex; justify-content: center; align-items: center;"">
                     <img src=""images/semantic/semantic_series_4/semantic_series_4_d.png"" style=""width: 300px; height: 300px;"" />
                   </div>","null","4","2","D","",""
"","","","","","html-keyboard-response","110","596468","0.0-89.0-1.0-1.0","03368FA4862340F393964971C7FFC8B2","0199d5f8-a4d4-73ff-89e2-3a47d38f08a8","0199d5ef-c7d4-7cab-a194-b2c3afbaf8e8","","null","<div style=""display: flex; justify-content: center; align-items: center;"">
                     <img src=""images/semantic/semantic_series_4/semantic_series_4_e.png"" style=""width: 300px; height: 300px;"" />
                   </div>","null","4","2","E","",""
"","","","","","html-keyboard-response","111","602471","0.0-89.0-1.0-2.0","03368FA4862340F393964971C7FFC8B2","0199d5f8-a4d4-73ff-89e2-3a47d38f08a8","0199d5ef-c7d4-7cab-a194-b2c3afbaf8e8","","null","<div style=""display: flex; justify-content: center; align-items: center;"">
                     <img src=""images/semantic/semantic_series_4/semantic_series_4_f.png"" style=""width: 300px; height: 300px;"" />
                   </div>","null","4","2","F","",""
"","","","","","survey-likert","112","603780","0.0-90.0","03368FA4862340F393964971C7FFC8B2","0199d5f8-a4d4-73ff-89e2-3a47d38f08a8","0199d5ef-c7d4-7cab-a194-b2c3afbaf8e8","","1309","","{""Q0"":3}","4","2","surprise_rating","","[0]"
"","","","","","survey-likert","113","606257","0.0-91.0","03368FA4862340F393964971C7FFC8B2","0199d5f8-a4d4-73ff-89e2-3a47d38f08a8","0199d5ef-c7d4-7cab-a194-b2c3afbaf8e8","","2476","","{""Q0"":3}","4","2","enjoyment_rating","","[0]"
"","","","","","html-keyboard-response","114","612274","0.0-92.0","03368FA4862340F393964971C7FFC8B2","0199d5f8-a4d4-73ff-89e2-3a47d38f08a8","0199d5ef-c7d4-7cab-a194-b2c3afbaf8e8","","null","<div style=""display: flex; justify-content: center; align-items: center;"">
                     <img src=""images/other/blank.png"" style=""width: 300px; height: 300px;"" />
                   </div>","null","0","0","blank","",""
"","","","","","html-keyboard-response","115","618274","0.0-93.0","03368FA4862340F393964971C7FFC8B2","0199d5f8-a4d4-73ff-89e2-3a47d38f08a8","0199d5ef-c7d4-7cab-a194-b2c3afbaf8e8","","null","<div style=""display: flex; justify-content: center; align-items: center;"">
                     <img src=""images/causal/causal_series_2/causal_series_2_a.png"" style=""width: 300px; height: 300px;"" />
                   </div>","null","2","1","A","",""
"","","","","","html-keyboard-response","116","624278","0.0-94.0","03368FA4862340F393964971C7FFC8B2","0199d5f8-a4d4-73ff-89e2-3a47d38f08a8","0199d5ef-c7d4-7cab-a194-b2c3afbaf8e8","","null","<div style=""display: flex; justify-content: center; align-items: center;"">
                     <img src=""images/causal/causal_series_2/causal_series_2_b.png"" style=""width: 300px; height: 300px;"" />
                   </div>","null","2","1","B","",""
"","","","","","html-keyboard-response","117","630286","0.0-95.0","03368FA4862340F393964971C7FFC8B2","0199d5f8-a4d4-73ff-89e2-3a47d38f08a8","0199d5ef-c7d4-7cab-a194-b2c3afbaf8e8","","null","<div style=""display: flex; justify-content: center; align-items: center;"">
                     <img src=""images/causal/causal_series_2/causal_series_2_c.png"" style=""width: 300px; height: 300px;"" />
                   </div>","null","2","1","C","",""
"","","","","","html-button-response","118","631554","0.0-96.0","03368FA4862340F393964971C7FFC8B2","0199d5f8-a4d4-73ff-89e2-3a47d38f08a8","0199d5ef-c7d4-7cab-a194-b2c3afbaf8e8","","1267","
        <div style=""display: flex; justify-content: center; align-items: center;"">
          <img src=""images/red_deck_2.png"" style=""width: 300px; height: 300px; margin-right: 10px;"" />
          <img src=""images/blue_deck_1.png"" style=""width: 300px; height: 300px;"" />
        </div>","0","2","1","choice","0",""
"","","","","","html-keyboard-response","119","637556","0.0-97.0-0.0-0.0","03368FA4862340F393964971C7FFC8B2","0199d5f8-a4d4-73ff-89e2-3a47d38f08a8","0199d5ef-c7d4-7cab-a194-b2c3afbaf8e8","","null","<div style=""display: flex; justify-content: center; align-items: center;"">
                     <img src=""images/causal/causal_series_2/causal_series_2_d.png"" style=""width: 300px; height: 300px;"" />
                   </div>","null","2","1","D","",""
"","","","","","html-keyboard-response","120","643566","0.0-97.0-0.0-1.0","03368FA4862340F393964971C7FFC8B2","0199d5f8-a4d4-73ff-89e2-3a47d38f08a8","0199d5ef-c7d4-7cab-a194-b2c3afbaf8e8","","null","<div style=""display: flex; justify-content: center; align-items: center;"">
                     <img src=""images/causal/causal_series_2/causal_series_2_e.png"" style=""width: 300px; height: 300px;"" />
                   </div>","null","2","1","E","",""
"","","","","","html-keyboard-response","121","649569","0.0-97.0-0.0-2.0","03368FA4862340F393964971C7FFC8B2","0199d5f8-a4d4-73ff-89e2-3a47d38f08a8","0199d5ef-c7d4-7cab-a194-b2c3afbaf8e8","","null","<div style=""display: flex; justify-content: center; align-items: center;"">
                     <img src=""images/causal/causal_series_2/causal_series_2_f.png"" style=""width: 300px; height: 300px;"" />
                   </div>","null","2","1","F","",""
"","","","","","survey-likert","122","651642","0.0-98.0","03368FA4862340F393964971C7FFC8B2","0199d5f8-a4d4-73ff-89e2-3a47d38f08a8","0199d5ef-c7d4-7cab-a194-b2c3afbaf8e8","","2073","","{""Q0"":2}","2","1","surprise_rating","","[0]"
"","","","","","survey-likert","123","654038","0.0-99.0","03368FA4862340F393964971C7FFC8B2","0199d5f8-a4d4-73ff-89e2-3a47d38f08a8","0199d5ef-c7d4-7cab-a194-b2c3afbaf8e8","","2395","","{""Q0"":1}","2","1","enjoyment_rating","","[0]"
"","","","","","html-keyboard-response","124","660046","0.0-100.0","03368FA4862340F393964971C7FFC8B2","0199d5f8-a4d4-73ff-89e2-3a47d38f08a8","0199d5ef-c7d4-7cab-a194-b2c3afbaf8e8","","null","<div style=""display: flex; justify-content: center; align-items: center;"">
                     <img src=""images/other/blank.png"" style=""width: 300px; height: 300px;"" />
                   </div>","null","0","0","blank","",""
"","","","","","html-keyboard-response","125","666047","0.0-101.0","03368FA4862340F393964971C7FFC8B2","0199d5f8-a4d4-73ff-89e2-3a47d38f08a8","0199d5ef-c7d4-7cab-a194-b2c3afbaf8e8","","null","<div style=""display: flex; justify-content: center; align-items: center;"">
                     <img src=""images/causal/causal_series_10/causal_series_10_a.png"" style=""width: 300px; height: 300px;"" />
                   </div>","null","10","1","A","",""
"","","","","","html-keyboard-response","126","672050","0.0-102.0","03368FA4862340F393964971C7FFC8B2","0199d5f8-a4d4-73ff-89e2-3a47d38f08a8","0199d5ef-c7d4-7cab-a194-b2c3afbaf8e8","","null","<div style=""display: flex; justify-content: center; align-items: center;"">
                     <img src=""images/causal/causal_series_10/causal_series_10_b.png"" style=""width: 300px; height: 300px;"" />
                   </div>","null","10","1","B","",""
"","","","","","html-keyboard-response","127","678060","0.0-103.0","03368FA4862340F393964971C7FFC8B2","0199d5f8-a4d4-73ff-89e2-3a47d38f08a8","0199d5ef-c7d4-7cab-a194-b2c3afbaf8e8","","null","<div style=""display: flex; justify-content: center; align-items: center;"">
                     <img src=""images/causal/causal_series_10/causal_series_10_c.png"" style=""width: 300px; height: 300px;"" />
                   </div>","null","10","1","C","",""
"","","","","","html-button-response","128","679113","0.0-104.0","03368FA4862340F393964971C7FFC8B2","0199d5f8-a4d4-73ff-89e2-3a47d38f08a8","0199d5ef-c7d4-7cab-a194-b2c3afbaf8e8","","1052","
        <div style=""display: flex; justify-content: center; align-items: center;"">
          <img src=""images/red_deck_2.png"" style=""width: 300px; height: 300px; margin-right: 10px;"" />
          <img src=""images/blue_deck_1.png"" style=""width: 300px; height: 300px;"" />
        </div>","1","10","1","choice","1",""
"","","","","","html-keyboard-response","129","685118","0.0-105.0-1.0-0.0","03368FA4862340F393964971C7FFC8B2","0199d5f8-a4d4-73ff-89e2-3a47d38f08a8","0199d5ef-c7d4-7cab-a194-b2c3afbaf8e8","","null","<div style=""display: flex; justify-content: center; align-items: center;"">
                     <img src=""images/semantic/semantic_series_10/semantic_series_10_d.png"" style=""width: 300px; height: 300px;"" />
                   </div>","null","10","1","D","",""
"","","","","","html-keyboard-response","130","691125","0.0-105.0-1.0-1.0","03368FA4862340F393964971C7FFC8B2","0199d5f8-a4d4-73ff-89e2-3a47d38f08a8","0199d5ef-c7d4-7cab-a194-b2c3afbaf8e8","","null","<div style=""display: flex; justify-content: center; align-items: center;"">
                     <img src=""images/semantic/semantic_series_10/semantic_series_10_e.png"" style=""width: 300px; height: 300px;"" />
                   </div>","null","10","1","E","",""
"","","","","","html-keyboard-response","131","697127","0.0-105.0-1.0-2.0","03368FA4862340F393964971C7FFC8B2","0199d5f8-a4d4-73ff-89e2-3a47d38f08a8","0199d5ef-c7d4-7cab-a194-b2c3afbaf8e8","","null","<div style=""display: flex; justify-content: center; align-items: center;"">
                     <img src=""images/semantic/semantic_series_10/semantic_series_10_f.png"" style=""width: 300px; height: 300px;"" />
                   </div>","null","10","1","F","",""
"","","","","","survey-likert","132","701052","0.0-106.0","03368FA4862340F393964971C7FFC8B2","0199d5f8-a4d4-73ff-89e2-3a47d38f08a8","0199d5ef-c7d4-7cab-a194-b2c3afbaf8e8","","3925","","{""Q0"":2}","10","1","surprise_rating","","[0]"
"","","","","","survey-likert","133","702769","0.0-107.0","03368FA4862340F393964971C7FFC8B2","0199d5f8-a4d4-73ff-89e2-3a47d38f08a8","0199d5ef-c7d4-7cab-a194-b2c3afbaf8e8","","1716","","{""Q0"":1}","10","1","enjoyment_rating","","[0]"
"","","","","","html-keyboard-response","134","708770","0.0-108.0","03368FA4862340F393964971C7FFC8B2","0199d5f8-a4d4-73ff-89e2-3a47d38f08a8","0199d5ef-c7d4-7cab-a194-b2c3afbaf8e8","","null","<div style=""display: flex; justify-content: center; align-items: center;"">
                     <img src=""images/other/blank.png"" style=""width: 300px; height: 300px;"" />
                   </div>","null","0","0","blank","",""
"","","","","","html-keyboard-response","135","714778","0.0-109.0","03368FA4862340F393964971C7FFC8B2","0199d5f8-a4d4-73ff-89e2-3a47d38f08a8","0199d5ef-c7d4-7cab-a194-b2c3afbaf8e8","","null","<div style=""display: flex; justify-content: center; align-items: center;"">
                     <img src=""images/causal/causal_series_6/causal_series_6_a.png"" style=""width: 300px; height: 300px;"" />
                   </div>","null","6","1","A","",""
"","","","","","html-keyboard-response","136","720787","0.0-110.0","03368FA4862340F393964971C7FFC8B2","0199d5f8-a4d4-73ff-89e2-3a47d38f08a8","0199d5ef-c7d4-7cab-a194-b2c3afbaf8e8","","null","<div style=""display: flex; justify-content: center; align-items: center;"">
                     <img src=""images/causal/causal_series_6/causal_series_6_b.png"" style=""width: 300px; height: 300px;"" />
                   </div>","null","6","1","B","",""
"","","","","","html-keyboard-response","137","726788","0.0-111.0","03368FA4862340F393964971C7FFC8B2","0199d5f8-a4d4-73ff-89e2-3a47d38f08a8","0199d5ef-c7d4-7cab-a194-b2c3afbaf8e8","","null","<div style=""display: flex; justify-content: center; align-items: center;"">
                     <img src=""images/causal/causal_series_6/causal_series_6_c.png"" style=""width: 300px; height: 300px;"" />
                   </div>","null","6","1","C","",""
"","","","","","html-button-response","138","727551","0.0-112.0","03368FA4862340F393964971C7FFC8B2","0199d5f8-a4d4-73ff-89e2-3a47d38f08a8","0199d5ef-c7d4-7cab-a194-b2c3afbaf8e8","","763","
        <div style=""display: flex; justify-content: center; align-items: center;"">
          <img src=""images/red_deck_2.png"" style=""width: 300px; height: 300px; margin-right: 10px;"" />
          <img src=""images/blue_deck_1.png"" style=""width: 300px; height: 300px;"" />
        </div>","0","6","1","choice","0",""
"","","","","","html-keyboard-response","139","733565","0.0-113.0-0.0-0.0","03368FA4862340F393964971C7FFC8B2","0199d5f8-a4d4-73ff-89e2-3a47d38f08a8","0199d5ef-c7d4-7cab-a194-b2c3afbaf8e8","","null","<div style=""display: flex; justify-content: center; align-items: center;"">
                     <img src=""images/causal/causal_series_6/causal_series_6_d.png"" style=""width: 300px; height: 300px;"" />
                   </div>","null","6","1","D","",""
"","","","","","html-keyboard-response","140","739572","0.0-113.0-0.0-1.0","03368FA4862340F393964971C7FFC8B2","0199d5f8-a4d4-73ff-89e2-3a47d38f08a8","0199d5ef-c7d4-7cab-a194-b2c3afbaf8e8","","null","<div style=""display: flex; justify-content: center; align-items: center;"">
                     <img src=""images/causal/causal_series_6/causal_series_6_e.png"" style=""width: 300px; height: 300px;"" />
                   </div>","null","6","1","E","",""
"","","","","","html-keyboard-response","141","745582","0.0-113.0-0.0-2.0","03368FA4862340F393964971C7FFC8B2","0199d5f8-a4d4-73ff-89e2-3a47d38f08a8","0199d5ef-c7d4-7cab-a194-b2c3afbaf8e8","","null","<div style=""display: flex; justify-content: center; align-items: center;"">
                     <img src=""images/causal/causal_series_6/causal_series_6_f.png"" style=""width: 300px; height: 300px;"" />
                   </div>","null","6","1","F","",""
"","","","","","survey-likert","142","747563","0.0-114.0","03368FA4862340F393964971C7FFC8B2","0199d5f8-a4d4-73ff-89e2-3a47d38f08a8","0199d5ef-c7d4-7cab-a194-b2c3afbaf8e8","","1980","","{""Q0"":1}","6","1","surprise_rating","","[0]"
"","","","","","survey-likert","143","750378","0.0-115.0","03368FA4862340F393964971C7FFC8B2","0199d5f8-a4d4-73ff-89e2-3a47d38f08a8","0199d5ef-c7d4-7cab-a194-b2c3afbaf8e8","","2814","","{""Q0"":3}","6","1","enjoyment_rating","","[0]"
"","","","","","html-keyboard-response","144","756380","0.0-116.0","03368FA4862340F393964971C7FFC8B2","0199d5f8-a4d4-73ff-89e2-3a47d38f08a8","0199d5ef-c7d4-7cab-a194-b2c3afbaf8e8","","null","<div style=""display: flex; justify-content: center; align-items: center;"">
                     <img src=""images/other/blank.png"" style=""width: 300px; height: 300px;"" />
                   </div>","null","0","0","blank","",""
"","","","","","html-keyboard-response","145","762386","0.0-117.0","03368FA4862340F393964971C7FFC8B2","0199d5f8-a4d4-73ff-89e2-3a47d38f08a8","0199d5ef-c7d4-7cab-a194-b2c3afbaf8e8","","null","<div style=""display: flex; justify-content: center; align-items: center;"">
                     <img src=""images/causal/causal_series_6/causal_series_6_a.png"" style=""width: 300px; height: 300px;"" />
                   </div>","null","6","2","A","",""
"","","","","","html-keyboard-response","146","768388","0.0-118.0","03368FA4862340F393964971C7FFC8B2","0199d5f8-a4d4-73ff-89e2-3a47d38f08a8","0199d5ef-c7d4-7cab-a194-b2c3afbaf8e8","","null","<div style=""display: flex; justify-content: center; align-items: center;"">
                     <img src=""images/causal/causal_series_6/causal_series_6_b.png"" style=""width: 300px; height: 300px;"" />
                   </div>","null","6","2","B","",""
"","","","","","html-keyboard-response","147","774398","0.0-119.0","03368FA4862340F393964971C7FFC8B2","0199d5f8-a4d4-73ff-89e2-3a47d38f08a8","0199d5ef-c7d4-7cab-a194-b2c3afbaf8e8","","null","<div style=""display: flex; justify-content: center; align-items: center;"">
                     <img src=""images/causal/causal_series_6/causal_series_6_c.png"" style=""width: 300px; height: 300px;"" />
                   </div>","null","6","2","C","",""
"","","","","","html-button-response","148","776854","0.0-120.0","03368FA4862340F393964971C7FFC8B2","0199d5f8-a4d4-73ff-89e2-3a47d38f08a8","0199d5ef-c7d4-7cab-a194-b2c3afbaf8e8","","2456","
        <div style=""display: flex; justify-content: center; align-items: center;"">
          <img src=""images/red_deck_2.png"" style=""width: 300px; height: 300px; margin-right: 10px;"" />
          <img src=""images/blue_deck_1.png"" style=""width: 300px; height: 300px;"" />
        </div>","1","6","2","choice","1",""
"","","","","","html-keyboard-response","149","782859","0.0-121.0-1.0-0.0","03368FA4862340F393964971C7FFC8B2","0199d5f8-a4d4-73ff-89e2-3a47d38f08a8","0199d5ef-c7d4-7cab-a194-b2c3afbaf8e8","","null","<div style=""display: flex; justify-content: center; align-items: center;"">
                     <img src=""images/semantic/semantic_series_6/semantic_series_6_d.png"" style=""width: 300px; height: 300px;"" />
                   </div>","null","6","2","D","",""
"","","","","","html-keyboard-response","150","788866","0.0-121.0-1.0-1.0","03368FA4862340F393964971C7FFC8B2","0199d5f8-a4d4-73ff-89e2-3a47d38f08a8","0199d5ef-c7d4-7cab-a194-b2c3afbaf8e8","","null","<div style=""display: flex; justify-content: center; align-items: center;"">
                     <img src=""images/semantic/semantic_series_6/semantic_series_6_e.png"" style=""width: 300px; height: 300px;"" />
                   </div>","null","6","2","E","",""
"","","","","","html-keyboard-response","151","794869","0.0-121.0-1.0-2.0","03368FA4862340F393964971C7FFC8B2","0199d5f8-a4d4-73ff-89e2-3a47d38f08a8","0199d5ef-c7d4-7cab-a194-b2c3afbaf8e8","","null","<div style=""display: flex; justify-content: center; align-items: center;"">
                     <img src=""images/semantic/semantic_series_6/semantic_series_6_f.png"" style=""width: 300px; height: 300px;"" />
                   </div>","null","6","2","F","",""
"","","","","","survey-likert","152","797117","0.0-122.0","03368FA4862340F393964971C7FFC8B2","0199d5f8-a4d4-73ff-89e2-3a47d38f08a8","0199d5ef-c7d4-7cab-a194-b2c3afbaf8e8","","2247","","{""Q0"":3}","6","2","surprise_rating","","[0]"
"","","","","","survey-likert","153","798114","0.0-123.0","03368FA4862340F393964971C7FFC8B2","0199d5f8-a4d4-73ff-89e2-3a47d38f08a8","0199d5ef-c7d4-7cab-a194-b2c3afbaf8e8","","996","","{""Q0"":2}","6","2","enjoyment_rating","","[0]"
"","","","","","html-keyboard-response","154","804116","0.0-124.0","03368FA4862340F393964971C7FFC8B2","0199d5f8-a4d4-73ff-89e2-3a47d38f08a8","0199d5ef-c7d4-7cab-a194-b2c3afbaf8e8","","null","<div style=""display: flex; justify-content: center; align-items: center;"">
                     <img src=""images/other/blank.png"" style=""width: 300px; height: 300px;"" />
                   </div>","null","0","0","blank","",""
"","","","","","html-keyboard-response","155","810132","0.0-125.0","03368FA4862340F393964971C7FFC8B2","0199d5f8-a4d4-73ff-89e2-3a47d38f08a8","0199d5ef-c7d4-7cab-a194-b2c3afbaf8e8","","null","<div style=""display: flex; justify-content: center; align-items: center;"">
                     <img src=""images/causal/causal_series_7/causal_series_7_a.png"" style=""width: 300px; height: 300px;"" />
                   </div>","null","7","2","A","",""
"","","","","","html-keyboard-response","156","816132","0.0-126.0","03368FA4862340F393964971C7FFC8B2","0199d5f8-a4d4-73ff-89e2-3a47d38f08a8","0199d5ef-c7d4-7cab-a194-b2c3afbaf8e8","","null","<div style=""display: flex; justify-content: center; align-items: center;"">
                     <img src=""images/causal/causal_series_7/causal_series_7_b.png"" style=""width: 300px; height: 300px;"" />
                   </div>","null","7","2","B","",""
"","","","","","html-keyboard-response","157","822138","0.0-127.0","03368FA4862340F393964971C7FFC8B2","0199d5f8-a4d4-73ff-89e2-3a47d38f08a8","0199d5ef-c7d4-7cab-a194-b2c3afbaf8e8","","null","<div style=""display: flex; justify-content: center; align-items: center;"">
                     <img src=""images/causal/causal_series_7/causal_series_7_c.png"" style=""width: 300px; height: 300px;"" />
                   </div>","null","7","2","C","",""
"","","","","","html-button-response","158","823236","0.0-128.0","03368FA4862340F393964971C7FFC8B2","0199d5f8-a4d4-73ff-89e2-3a47d38f08a8","0199d5ef-c7d4-7cab-a194-b2c3afbaf8e8","","1098","
        <div style=""display: flex; justify-content: center; align-items: center;"">
          <img src=""images/red_deck_2.png"" style=""width: 300px; height: 300px; margin-right: 10px;"" />
          <img src=""images/blue_deck_1.png"" style=""width: 300px; height: 300px;"" />
        </div>","0","7","2","choice","0",""
"","","","","","html-keyboard-response","159","829239","0.0-129.0-0.0-0.0","03368FA4862340F393964971C7FFC8B2","0199d5f8-a4d4-73ff-89e2-3a47d38f08a8","0199d5ef-c7d4-7cab-a194-b2c3afbaf8e8","","null","<div style=""display: flex; justify-content: center; align-items: center;"">
                     <img src=""images/causal/causal_series_7/causal_series_7_d.png"" style=""width: 300px; height: 300px;"" />
                   </div>","null","7","2","D","",""
"","","","","","html-keyboard-response","160","835248","0.0-129.0-0.0-1.0","03368FA4862340F393964971C7FFC8B2","0199d5f8-a4d4-73ff-89e2-3a47d38f08a8","0199d5ef-c7d4-7cab-a194-b2c3afbaf8e8","","null","<div style=""display: flex; justify-content: center; align-items: center;"">
                     <img src=""images/causal/causal_series_7/causal_series_7_e.png"" style=""width: 300px; height: 300px;"" />
                   </div>","null","7","2","E","",""
"","","","","","html-keyboard-response","161","841254","0.0-129.0-0.0-2.0","03368FA4862340F393964971C7FFC8B2","0199d5f8-a4d4-73ff-89e2-3a47d38f08a8","0199d5ef-c7d4-7cab-a194-b2c3afbaf8e8","","null","<div style=""display: flex; justify-content: center; align-items: center;"">
                     <img src=""images/causal/causal_series_7/causal_series_7_f.png"" style=""width: 300px; height: 300px;"" />
                   </div>","null","7","2","F","",""
"","","","","","survey-likert","162","843561","0.0-130.0","03368FA4862340F393964971C7FFC8B2","0199d5f8-a4d4-73ff-89e2-3a47d38f08a8","0199d5ef-c7d4-7cab-a194-b2c3afbaf8e8","","2306","","{""Q0"":3}","7","2","surprise_rating","","[0]"
"","","","","","survey-likert","163","844912","0.0-131.0","03368FA4862340F393964971C7FFC8B2","0199d5f8-a4d4-73ff-89e2-3a47d38f08a8","0199d5ef-c7d4-7cab-a194-b2c3afbaf8e8","","1350","","{""Q0"":3}","7","2","enjoyment_rating","","[0]"
"","","","","","html-keyboard-response","164","850922","0.0-132.0","03368FA4862340F393964971C7FFC8B2","0199d5f8-a4d4-73ff-89e2-3a47d38f08a8","0199d5ef-c7d4-7cab-a194-b2c3afbaf8e8","","null","<div style=""display: flex; justify-content: center; align-items: center;"">
                     <img src=""images/other/blank.png"" style=""width: 300px; height: 300px;"" />
                   </div>","null","0","0","blank","",""
"","","","","","html-keyboard-response","165","856923","0.0-133.0","03368FA4862340F393964971C7FFC8B2","0199d5f8-a4d4-73ff-89e2-3a47d38f08a8","0199d5ef-c7d4-7cab-a194-b2c3afbaf8e8","","null","<div style=""display: flex; justify-content: center; align-items: center;"">
                     <img src=""images/causal/causal_series_3/causal_series_3_a.png"" style=""width: 300px; height: 300px;"" />
                   </div>","null","3","2","A","",""
"","","","","","html-keyboard-response","166","862924","0.0-134.0","03368FA4862340F393964971C7FFC8B2","0199d5f8-a4d4-73ff-89e2-3a47d38f08a8","0199d5ef-c7d4-7cab-a194-b2c3afbaf8e8","","null","<div style=""display: flex; justify-content: center; align-items: center;"">
                     <img src=""images/causal/causal_series_3/causal_series_3_b.png"" style=""width: 300px; height: 300px;"" />
                   </div>","null","3","2","B","",""
"","","","","","html-keyboard-response","167","868932","0.0-135.0","03368FA4862340F393964971C7FFC8B2","0199d5f8-a4d4-73ff-89e2-3a47d38f08a8","0199d5ef-c7d4-7cab-a194-b2c3afbaf8e8","","null","<div style=""display: flex; justify-content: center; align-items: center;"">
                     <img src=""images/causal/causal_series_3/causal_series_3_c.png"" style=""width: 300px; height: 300px;"" />
                   </div>","null","3","2","C","",""
"","","","","","html-button-response","168","869928","0.0-136.0","03368FA4862340F393964971C7FFC8B2","0199d5f8-a4d4-73ff-89e2-3a47d38f08a8","0199d5ef-c7d4-7cab-a194-b2c3afbaf8e8","","996","
        <div style=""display: flex; justify-content: center; align-items: center;"">
          <img src=""images/red_deck_2.png"" style=""width: 300px; height: 300px; margin-right: 10px;"" />
          <img src=""images/blue_deck_1.png"" style=""width: 300px; height: 300px;"" />
        </div>","1","3","2","choice","1",""
"","","","","","html-keyboard-response","169","875931","0.0-137.0-1.0-0.0","03368FA4862340F393964971C7FFC8B2","0199d5f8-a4d4-73ff-89e2-3a47d38f08a8","0199d5ef-c7d4-7cab-a194-b2c3afbaf8e8","","null","<div style=""display: flex; justify-content: center; align-items: center;"">
                     <img src=""images/semantic/semantic_series_3/semantic_series_3_d.png"" style=""width: 300px; height: 300px;"" />
                   </div>","null","3","2","D","",""
"","","","","","html-keyboard-response","170","881937","0.0-137.0-1.0-1.0","03368FA4862340F393964971C7FFC8B2","0199d5f8-a4d4-73ff-89e2-3a47d38f08a8","0199d5ef-c7d4-7cab-a194-b2c3afbaf8e8","","null","<div style=""display: flex; justify-content: center; align-items: center;"">
                     <img src=""images/semantic/semantic_series_3/semantic_series_3_e.png"" style=""width: 300px; height: 300px;"" />
                   </div>","null","3","2","E","",""
"","","","","","html-keyboard-response","171","887940","0.0-137.0-1.0-2.0","03368FA4862340F393964971C7FFC8B2","0199d5f8-a4d4-73ff-89e2-3a47d38f08a8","0199d5ef-c7d4-7cab-a194-b2c3afbaf8e8","","null","<div style=""display: flex; justify-content: center; align-items: center;"">
                     <img src=""images/semantic/semantic_series_3/semantic_series_3_f.png"" style=""width: 300px; height: 300px;"" />
                   </div>","null","3","2","F","",""
"","","","","","survey-likert","172","893456","0.0-138.0","03368FA4862340F393964971C7FFC8B2","0199d5f8-a4d4-73ff-89e2-3a47d38f08a8","0199d5ef-c7d4-7cab-a194-b2c3afbaf8e8","","5515","","{""Q0"":3}","3","2","surprise_rating","","[0]"
"","","","","","survey-likert","173","894856","0.0-139.0","03368FA4862340F393964971C7FFC8B2","0199d5f8-a4d4-73ff-89e2-3a47d38f08a8","0199d5ef-c7d4-7cab-a194-b2c3afbaf8e8","","1399","","{""Q0"":2}","3","2","enjoyment_rating","","[0]"
"","","","","","html-keyboard-response","174","900861","0.0-140.0","03368FA4862340F393964971C7FFC8B2","0199d5f8-a4d4-73ff-89e2-3a47d38f08a8","0199d5ef-c7d4-7cab-a194-b2c3afbaf8e8","","null","<div style=""display: flex; justify-content: center; align-items: center;"">
                     <img src=""images/other/blank.png"" style=""width: 300px; height: 300px;"" />
                   </div>","null","0","0","blank","",""
"","","","","","html-keyboard-response","175","906875","0.0-141.0","03368FA4862340F393964971C7FFC8B2","0199d5f8-a4d4-73ff-89e2-3a47d38f08a8","0199d5ef-c7d4-7cab-a194-b2c3afbaf8e8","","null","<div style=""display: flex; justify-content: center; align-items: center;"">
                     <img src=""images/causal/causal_series_2/causal_series_2_a.png"" style=""width: 300px; height: 300px;"" />
                   </div>","null","2","2","A","",""
"","","","","","html-keyboard-response","176","912880","0.0-142.0","03368FA4862340F393964971C7FFC8B2","0199d5f8-a4d4-73ff-89e2-3a47d38f08a8","0199d5ef-c7d4-7cab-a194-b2c3afbaf8e8","","null","<div style=""display: flex; justify-content: center; align-items: center;"">
                     <img src=""images/causal/causal_series_2/causal_series_2_b.png"" style=""width: 300px; height: 300px;"" />
                   </div>","null","2","2","B","",""
"","","","","","html-keyboard-response","177","918880","0.0-143.0","03368FA4862340F393964971C7FFC8B2","0199d5f8-a4d4-73ff-89e2-3a47d38f08a8","0199d5ef-c7d4-7cab-a194-b2c3afbaf8e8","","null","<div style=""display: flex; justify-content: center; align-items: center;"">
                     <img src=""images/causal/causal_series_2/causal_series_2_c.png"" style=""width: 300px; height: 300px;"" />
                   </div>","null","2","2","C","",""
"","","","","","html-button-response","178","919914","0.0-144.0","03368FA4862340F393964971C7FFC8B2","0199d5f8-a4d4-73ff-89e2-3a47d38f08a8","0199d5ef-c7d4-7cab-a194-b2c3afbaf8e8","","1033","
        <div style=""display: flex; justify-content: center; align-items: center;"">
          <img src=""images/red_deck_2.png"" style=""width: 300px; height: 300px; margin-right: 10px;"" />
          <img src=""images/blue_deck_1.png"" style=""width: 300px; height: 300px;"" />
        </div>","1","2","2","choice","1",""
"","","","","","html-keyboard-response","179","925927","0.0-145.0-1.0-0.0","03368FA4862340F393964971C7FFC8B2","0199d5f8-a4d4-73ff-89e2-3a47d38f08a8","0199d5ef-c7d4-7cab-a194-b2c3afbaf8e8","","null","<div style=""display: flex; justify-content: center; align-items: center;"">
                     <img src=""images/semantic/semantic_series_2/semantic_series_2_d.png"" style=""width: 300px; height: 300px;"" />
                   </div>","null","2","2","D","",""
"","","","","","html-keyboard-response","180","931929","0.0-145.0-1.0-1.0","03368FA4862340F393964971C7FFC8B2","0199d5f8-a4d4-73ff-89e2-3a47d38f08a8","0199d5ef-c7d4-7cab-a194-b2c3afbaf8e8","","null","<div style=""display: flex; justify-content: center; align-items: center;"">
                     <img src=""images/semantic/semantic_series_2/semantic_series_2_e.png"" style=""width: 300px; height: 300px;"" />
                   </div>","null","2","2","E","",""
"","","","","","html-keyboard-response","181","937934","0.0-145.0-1.0-2.0","03368FA4862340F393964971C7FFC8B2","0199d5f8-a4d4-73ff-89e2-3a47d38f08a8","0199d5ef-c7d4-7cab-a194-b2c3afbaf8e8","","null","<div style=""display: flex; justify-content: center; align-items: center;"">
                     <img src=""images/semantic/semantic_series_2/semantic_series_2_f.png"" style=""width: 300px; height: 300px;"" />
                   </div>","null","2","2","F","",""
"","","","","","survey-likert","182","977647","0.0-146.0","03368FA4862340F393964971C7FFC8B2","0199d5f8-a4d4-73ff-89e2-3a47d38f08a8","0199d5ef-c7d4-7cab-a194-b2c3afbaf8e8","","39713","","{""Q0"":2}","2","2","surprise_rating","","[0]"
"","","","","","survey-likert","183","979855","0.0-147.0","03368FA4862340F393964971C7FFC8B2","0199d5f8-a4d4-73ff-89e2-3a47d38f08a8","0199d5ef-c7d4-7cab-a194-b2c3afbaf8e8","","2206","","{""Q0"":2}","2","2","enjoyment_rating","","[0]"
"","","","","","html-keyboard-response","184","985859","0.0-148.0","03368FA4862340F393964971C7FFC8B2","0199d5f8-a4d4-73ff-89e2-3a47d38f08a8","0199d5ef-c7d4-7cab-a194-b2c3afbaf8e8","","null","<div style=""display: flex; justify-content: center; align-items: center;"">
                     <img src=""images/other/blank.png"" style=""width: 300px; height: 300px;"" />
                   </div>","null","0","0","blank","",""
"","","","","","html-keyboard-response","185","991866","0.0-149.0","03368FA4862340F393964971C7FFC8B2","0199d5f8-a4d4-73ff-89e2-3a47d38f08a8","0199d5ef-c7d4-7cab-a194-b2c3afbaf8e8","","null","<div style=""display: flex; justify-content: center; align-items: center;"">
                     <img src=""images/causal/causal_series_8/causal_series_8_a.png"" style=""width: 300px; height: 300px;"" />
                   </div>","null","8","2","A","",""
"","","","","","html-keyboard-response","186","997874","0.0-150.0","03368FA4862340F393964971C7FFC8B2","0199d5f8-a4d4-73ff-89e2-3a47d38f08a8","0199d5ef-c7d4-7cab-a194-b2c3afbaf8e8","","null","<div style=""display: flex; justify-content: center; align-items: center;"">
                     <img src=""images/causal/causal_series_8/causal_series_8_b.png"" style=""width: 300px; height: 300px;"" />
                   </div>","null","8","2","B","",""
"","","","","","html-keyboard-response","187","1003885","0.0-151.0","03368FA4862340F393964971C7FFC8B2","0199d5f8-a4d4-73ff-89e2-3a47d38f08a8","0199d5ef-c7d4-7cab-a194-b2c3afbaf8e8","","null","<div style=""display: flex; justify-content: center; align-items: center;"">
                     <img src=""images/causal/causal_series_8/causal_series_8_c.png"" style=""width: 300px; height: 300px;"" />
                   </div>","null","8","2","C","",""
"","","","","","html-button-response","188","1007109","0.0-152.0","03368FA4862340F393964971C7FFC8B2","0199d5f8-a4d4-73ff-89e2-3a47d38f08a8","0199d5ef-c7d4-7cab-a194-b2c3afbaf8e8","","3223","
        <div style=""display: flex; justify-content: center; align-items: center;"">
          <img src=""images/red_deck_2.png"" style=""width: 300px; height: 300px; margin-right: 10px;"" />
          <img src=""images/blue_deck_1.png"" style=""width: 300px; height: 300px;"" />
        </div>","1","8","2","choice","1",""
"","","","","","html-keyboard-response","189","1013117","0.0-153.0-1.0-0.0","03368FA4862340F393964971C7FFC8B2","0199d5f8-a4d4-73ff-89e2-3a47d38f08a8","0199d5ef-c7d4-7cab-a194-b2c3afbaf8e8","","null","<div style=""display: flex; justify-content: center; align-items: center;"">
                     <img src=""images/semantic/semantic_series_8/semantic_series_8_d.png"" style=""width: 300px; height: 300px;"" />
                   </div>","null","8","2","D","",""
"","","","","","html-keyboard-response","190","1019118","0.0-153.0-1.0-1.0","03368FA4862340F393964971C7FFC8B2","0199d5f8-a4d4-73ff-89e2-3a47d38f08a8","0199d5ef-c7d4-7cab-a194-b2c3afbaf8e8","","null","<div style=""display: flex; justify-content: center; align-items: center;"">
                     <img src=""images/semantic/semantic_series_8/semantic_series_8_e.png"" style=""width: 300px; height: 300px;"" />
                   </div>","null","8","2","E","",""
"","","","","","html-keyboard-response","191","1025132","0.0-153.0-1.0-2.0","03368FA4862340F393964971C7FFC8B2","0199d5f8-a4d4-73ff-89e2-3a47d38f08a8","0199d5ef-c7d4-7cab-a194-b2c3afbaf8e8","","null","<div style=""display: flex; justify-content: center; align-items: center;"">
                     <img src=""images/semantic/semantic_series_8/semantic_series_8_f.png"" style=""width: 300px; height: 300px;"" />
                   </div>","null","8","2","F","",""
"","","","","","survey-likert","192","1028240","0.0-154.0","03368FA4862340F393964971C7FFC8B2","0199d5f8-a4d4-73ff-89e2-3a47d38f08a8","0199d5ef-c7d4-7cab-a194-b2c3afbaf8e8","","3107","","{""Q0"":3}","8","2","surprise_rating","","[0]"
"","","","","","survey-likert","193","1029606","0.0-155.0","03368FA4862340F393964971C7FFC8B2","0199d5f8-a4d4-73ff-89e2-3a47d38f08a8","0199d5ef-c7d4-7cab-a194-b2c3afbaf8e8","","1366","","{""Q0"":2}","8","2","enjoyment_rating","","[0]"
"","","","","","html-keyboard-response","194","1035608","0.0-156.0","03368FA4862340F393964971C7FFC8B2","0199d5f8-a4d4-73ff-89e2-3a47d38f08a8","0199d5ef-c7d4-7cab-a194-b2c3afbaf8e8","","null","<div style=""display: flex; justify-content: center; align-items: center;"">
                     <img src=""images/other/blank.png"" style=""width: 300px; height: 300px;"" />
                   </div>","null","0","0","blank","",""
"","","","","","html-keyboard-response","195","1041619","0.0-157.0","03368FA4862340F393964971C7FFC8B2","0199d5f8-a4d4-73ff-89e2-3a47d38f08a8","0199d5ef-c7d4-7cab-a194-b2c3afbaf8e8","","null","<div style=""display: flex; justify-content: center; align-items: center;"">
                     <img src=""images/causal/causal_series_7/causal_series_7_a.png"" style=""width: 300px; height: 300px;"" />
                   </div>","null","7","1","A","",""
"","","","","","html-keyboard-response","196","1047634","0.0-158.0","03368FA4862340F393964971C7FFC8B2","0199d5f8-a4d4-73ff-89e2-3a47d38f08a8","0199d5ef-c7d4-7cab-a194-b2c3afbaf8e8","","null","<div style=""display: flex; justify-content: center; align-items: center;"">
                     <img src=""images/causal/causal_series_7/causal_series_7_b.png"" style=""width: 300px; height: 300px;"" />
                   </div>","null","7","1","B","",""
"","","","","","html-keyboard-response","197","1053638","0.0-159.0","03368FA4862340F393964971C7FFC8B2","0199d5f8-a4d4-73ff-89e2-3a47d38f08a8","0199d5ef-c7d4-7cab-a194-b2c3afbaf8e8","","null","<div style=""display: flex; justify-content: center; align-items: center;"">
                     <img src=""images/causal/causal_series_7/causal_series_7_c.png"" style=""width: 300px; height: 300px;"" />
                   </div>","null","7","1","C","",""
"","","","","","html-button-response","198","1054814","0.0-160.0","03368FA4862340F393964971C7FFC8B2","0199d5f8-a4d4-73ff-89e2-3a47d38f08a8","0199d5ef-c7d4-7cab-a194-b2c3afbaf8e8","","1175","
        <div style=""display: flex; justify-content: center; align-items: center;"">
          <img src=""images/red_deck_2.png"" style=""width: 300px; height: 300px; margin-right: 10px;"" />
          <img src=""images/blue_deck_1.png"" style=""width: 300px; height: 300px;"" />
        </div>","1","7","1","choice","1",""
"","","","","","html-keyboard-response","199","1060828","0.0-161.0-1.0-0.0","03368FA4862340F393964971C7FFC8B2","0199d5f8-a4d4-73ff-89e2-3a47d38f08a8","0199d5ef-c7d4-7cab-a194-b2c3afbaf8e8","","null","<div style=""display: flex; justify-content: center; align-items: center;"">
                     <img src=""images/semantic/semantic_series_7/semantic_series_7_d.png"" style=""width: 300px; height: 300px;"" />
                   </div>","null","7","1","D","",""
"","","","","","html-keyboard-response","200","1066844","0.0-161.0-1.0-1.0","03368FA4862340F393964971C7FFC8B2","0199d5f8-a4d4-73ff-89e2-3a47d38f08a8","0199d5ef-c7d4-7cab-a194-b2c3afbaf8e8","","null","<div style=""display: flex; justify-content: center; align-items: center;"">
                     <img src=""images/semantic/semantic_series_7/semantic_series_7_e.png"" style=""width: 300px; height: 300px;"" />
                   </div>","null","7","1","E","",""
"","","","","","html-keyboard-response","201","1072858","0.0-161.0-1.0-2.0","03368FA4862340F393964971C7FFC8B2","0199d5f8-a4d4-73ff-89e2-3a47d38f08a8","0199d5ef-c7d4-7cab-a194-b2c3afbaf8e8","","null","<div style=""display: flex; justify-content: center; align-items: center;"">
                     <img src=""images/semantic/semantic_series_7/semantic_series_7_f.png"" style=""width: 300px; height: 300px;"" />
                   </div>","null","7","1","F","",""
"","","","","","survey-likert","202","1076885","0.0-162.0","03368FA4862340F393964971C7FFC8B2","0199d5f8-a4d4-73ff-89e2-3a47d38f08a8","0199d5ef-c7d4-7cab-a194-b2c3afbaf8e8","","4026","","{""Q0"":3}","7","1","surprise_rating","","[0]"
"","","","","","survey-likert","203","1078236","0.0-163.0","03368FA4862340F393964971C7FFC8B2","0199d5f8-a4d4-73ff-89e2-3a47d38f08a8","0199d5ef-c7d4-7cab-a194-b2c3afbaf8e8","","1350","","{""Q0"":2}","7","1","enjoyment_rating","","[0]"
"","","","","","html-keyboard-response","204","1084243","0.0-164.0","03368FA4862340F393964971C7FFC8B2","0199d5f8-a4d4-73ff-89e2-3a47d38f08a8","0199d5ef-c7d4-7cab-a194-b2c3afbaf8e8","","null","<div style=""display: flex; justify-content: center; align-items: center;"">
                     <img src=""images/other/blank.png"" style=""width: 300px; height: 300px;"" />
                   </div>","null","0","0","blank","",""
"","","","","","survey-text","205","1112553","0.0-165.0","03368FA4862340F393964971C7FFC8B2","0199d5f8-a4d4-73ff-89e2-3a47d38f08a8","0199d5ef-c7d4-7cab-a194-b2c3afbaf8e8","","28305","","{""Q0"":""The blue is surprising and connected, red is surprising but random not connected.""}","","","","",""
"","","","","","html-button-response","206","1121460","0.0-166.0","03368FA4862340F393964971C7FFC8B2","0199d5f8-a4d4-73ff-89e2-3a47d38f08a8","0199d5ef-c7d4-7cab-a194-b2c3afbaf8e8","","8907","Which color deck do the following sentences continue the story from?","0","","","","",""
"","","","","","html-button-response","207","1126138","0.0-167.0","03368FA4862340F393964971C7FFC8B2","0199d5f8-a4d4-73ff-89e2-3a47d38f08a8","0199d5ef-c7d4-7cab-a194-b2c3afbaf8e8","","4678","Which color deck do the following sentences NOT follow the story from?","1","","","","",""
"","","","","","html-button-response","208","1129889","0.0-168.0","03368FA4862340F393964971C7FFC8B2","0199d5f8-a4d4-73ff-89e2-3a47d38f08a8","0199d5ef-c7d4-7cab-a194-b2c3afbaf8e8","","3751","Which type of deck did you prefer overall?","1","","","","",""
"","","","","","survey-text","209","1137047","0.0-169.0","03368FA4862340F393964971C7FFC8B2","0199d5f8-a4d4-73ff-89e2-3a47d38f08a8","0199d5ef-c7d4-7cab-a194-b2c3afbaf8e8","","7155","","{""Q0"":""MALE"",""Q1"":""34""}","","","","",""
"","","","","","instructions","210","1144191","0.0-170.0","03368FA4862340F393964971C7FFC8B2","0199d5f8-a4d4-73ff-89e2-3a47d38f08a8","0199d5ef-c7d4-7cab-a194-b2c3afbaf8e8","[{""page_index"":0,""viewing_time"":7144}]","7145","","","","","","",""
