"success","timeout","failed_images","failed_audio","failed_video","trial_type","trial_index","time_elapsed","internal_node_id","subject_id","study_id","session_id","view_history","rt","stimulus","response","choice"
"true","false","[]","[]","[]","preload","0","2688","0.0-0.0","123844B5456542A4804B7E09B7735C00","155b4f21-101c-46fe-9ae0-9763550bcab2","4f03f330-5f91-43fc-aa61-d9dda6d26521","","","","",""
"","","","","","instructions","1","6769","0.0-1.0","123844B5456542A4804B7E09B7735C00","155b4f21-101c-46fe-9ae0-9763550bcab2","4f03f330-5f91-43fc-aa61-d9dda6d26521","[{""page_index"":0,""viewing_time"":4080}]","4080","","",""
"","","","","","instructions","2","10552","0.0-2.0","123844B5456542A4804B7E09B7735C00","155b4f21-101c-46fe-9ae0-9763550bcab2","4f03f330-5f91-43fc-aa61-d9dda6d26521","[{""page_index"":0,""viewing_time"":3783}]","3783","","",""
"true","","","","","fullscreen","3","13232","0.0-3.0","123844B5456542A4804B7E09B7735C00","155b4f21-101c-46fe-9ae0-9763550bcab2","4f03f330-5f91-43fc-aa61-d9dda6d26521","","1671","","",""
"","","","","","instructions","4","24481","0.0-4.0","123844B5456542A4804B7E09B7735C00","155b4f21-101c-46fe-9ae0-9763550bcab2","4f03f330-5f91-43fc-aa61-d9dda6d26521","[{""page_index"":0,""viewing_time"":11248}]","11248","","",""
"","","","","","html-keyboard-response","5","27481","0.0-5.0","123844B5456542A4804B7E09B7735C00","155b4f21-101c-46fe-9ae0-9763550bcab2","4f03f330-5f91-43fc-aa61-d9dda6d26521","","null","<div style=""display: flex; justify-content: center; align-items: center;"">
                <img src=""images/causal/causal_series_11/causal_series_11_a.jpg"" style=""width: 300px; height: 300px;"" />
              </div>","null",""
"","","","","","html-button-response","6","30808","0.0-6.0","123844B5456542A4804B7E09B7735C00","155b4f21-101c-46fe-9ae0-9763550bcab2","4f03f330-5f91-43fc-aa61-d9dda6d26521","","3326","
    <div style=""display: flex; justify-content: center; align-items: center;"">
      <img src=""images/red_deck_2.png"" style=""width: 300px; height: 300px; margin-right: 10px;"" />
      <img src=""images/blue_deck_1.png"" style=""width: 300px; height: 300px;"" />
    </div>","1","1"
"","","","","","html-keyboard-response","7","33811","0.0-7.0-1.0-0.0","123844B5456542A4804B7E09B7735C00","155b4f21-101c-46fe-9ae0-9763550bcab2","4f03f330-5f91-43fc-aa61-d9dda6d26521","","null","<div style=""display: flex; justify-content: center; align-items: center;"">
                <img src=""images/semantic/semantic_series_12/semantic_series_12_d.jpg"" style=""width: 300px; height: 300px;"" />
              </div>","null",""
"","","","","","html-keyboard-response","8","36826","0.0-7.0-1.0-1.0","123844B5456542A4804B7E09B7735C00","155b4f21-101c-46fe-9ae0-9763550bcab2","4f03f330-5f91-43fc-aa61-d9dda6d26521","","null","<div style=""display: flex; justify-content: center; align-items: center;"">
                <img src=""images/semantic/semantic_series_13/semantic_series_13_d.jpg"" style=""width: 300px; height: 300px;"" />
              </div>","null",""
"","","","","","html-keyboard-response","9","39840","0.0-7.0-1.0-2.0","123844B5456542A4804B7E09B7735C00","155b4f21-101c-46fe-9ae0-9763550bcab2","4f03f330-5f91-43fc-aa61-d9dda6d26521","","null","<div style=""display: flex; justify-content: center; align-items: center;"">
                <img src=""images/semantic/semantic_series_14/semantic_series_14_d.jpg"" style=""width: 300px; height: 300px;"" />
              </div>","null",""
"","","","","","html-keyboard-response","10","42849","0.0-8.0","123844B5456542A4804B7E09B7735C00","155b4f21-101c-46fe-9ae0-9763550bcab2","4f03f330-5f91-43fc-aa61-d9dda6d26521","","null","<div style=""display: flex; justify-content: center; align-items: center;"">
                <img src=""images/other/blank.jpg"" style=""width: 300px; height: 300px;"" />
              </div>","null",""
"","","","","","html-keyboard-response","11","45860","0.0-9.0","123844B5456542A4804B7E09B7735C00","155b4f21-101c-46fe-9ae0-9763550bcab2","4f03f330-5f91-43fc-aa61-d9dda6d26521","","null","<div style=""display: flex; justify-content: center; align-items: center;"">
                <img src=""images/causal/causal_series_6/causal_series_6_a.jpg"" style=""width: 300px; height: 300px;"" />
              </div>","null",""
"","","","","","html-button-response","12","47272","0.0-10.0","123844B5456542A4804B7E09B7735C00","155b4f21-101c-46fe-9ae0-9763550bcab2","4f03f330-5f91-43fc-aa61-d9dda6d26521","","1411","
    <div style=""display: flex; justify-content: center; align-items: center;"">
      <img src=""images/red_deck_2.png"" style=""width: 300px; height: 300px; margin-right: 10px;"" />
      <img src=""images/blue_deck_1.png"" style=""width: 300px; height: 300px;"" />
    </div>","0","0"
"","","","","","html-keyboard-response","13","50276","0.0-11.0-0.0-0.0","123844B5456542A4804B7E09B7735C00","155b4f21-101c-46fe-9ae0-9763550bcab2","4f03f330-5f91-43fc-aa61-d9dda6d26521","","null","<div style=""display: flex; justify-content: center; align-items: center;"">
                <img src=""images/causal/causal_series_6/causal_series_6_b.jpg"" style=""width: 300px; height: 300px;"" />
              </div>","null",""
"","","","","","html-keyboard-response","14","53278","0.0-11.0-0.0-1.0","123844B5456542A4804B7E09B7735C00","155b4f21-101c-46fe-9ae0-9763550bcab2","4f03f330-5f91-43fc-aa61-d9dda6d26521","","null","<div style=""display: flex; justify-content: center; align-items: center;"">
                <img src=""images/causal/causal_series_6/causal_series_6_c.jpg"" style=""width: 300px; height: 300px;"" />
              </div>","null",""
"","","","","","html-keyboard-response","15","56290","0.0-11.0-0.0-2.0","123844B5456542A4804B7E09B7735C00","155b4f21-101c-46fe-9ae0-9763550bcab2","4f03f330-5f91-43fc-aa61-d9dda6d26521","","null","<div style=""display: flex; justify-content: center; align-items: center;"">
                <img src=""images/causal/causal_series_6/causal_series_6_d.jpg"" style=""width: 300px; height: 300px;"" />
              </div>","null",""
"","","","","","html-keyboard-response","16","59300","0.0-12.0","123844B5456542A4804B7E09B7735C00","155b4f21-101c-46fe-9ae0-9763550bcab2","4f03f330-5f91-43fc-aa61-d9dda6d26521","","null","<div style=""display: flex; justify-content: center; align-items: center;"">
                <img src=""images/other/blank.jpg"" style=""width: 300px; height: 300px;"" />
              </div>","null",""
"","","","","","html-keyboard-response","17","62308","0.0-13.0","123844B5456542A4804B7E09B7735C00","155b4f21-101c-46fe-9ae0-9763550bcab2","4f03f330-5f91-43fc-aa61-d9dda6d26521","","null","<div style=""display: flex; justify-content: center; align-items: center;"">
                <img src=""images/causal/causal_series_3/causal_series_3_a.jpg"" style=""width: 300px; height: 300px;"" />
              </div>","null",""
"","","","","","html-button-response","18","79191","0.0-14.0","123844B5456542A4804B7E09B7735C00","155b4f21-101c-46fe-9ae0-9763550bcab2","4f03f330-5f91-43fc-aa61-d9dda6d26521","","16882","
    <div style=""display: flex; justify-content: center; align-items: center;"">
      <img src=""images/red_deck_2.png"" style=""width: 300px; height: 300px; margin-right: 10px;"" />
      <img src=""images/blue_deck_1.png"" style=""width: 300px; height: 300px;"" />
    </div>","0","0"
"","","","","","html-keyboard-response","19","82200","0.0-15.0-0.0-0.0","123844B5456542A4804B7E09B7735C00","155b4f21-101c-46fe-9ae0-9763550bcab2","4f03f330-5f91-43fc-aa61-d9dda6d26521","","null","<div style=""display: flex; justify-content: center; align-items: center;"">
                <img src=""images/causal/causal_series_3/causal_series_3_b.jpg"" style=""width: 300px; height: 300px;"" />
              </div>","null",""
"","","","","","html-keyboard-response","20","85213","0.0-15.0-0.0-1.0","123844B5456542A4804B7E09B7735C00","155b4f21-101c-46fe-9ae0-9763550bcab2","4f03f330-5f91-43fc-aa61-d9dda6d26521","","null","<div style=""display: flex; justify-content: center; align-items: center;"">
                <img src=""images/causal/causal_series_3/causal_series_3_c.jpg"" style=""width: 300px; height: 300px;"" />
              </div>","null",""
"","","","","","html-keyboard-response","21","88222","0.0-15.0-0.0-2.0","123844B5456542A4804B7E09B7735C00","155b4f21-101c-46fe-9ae0-9763550bcab2","4f03f330-5f91-43fc-aa61-d9dda6d26521","","null","<div style=""display: flex; justify-content: center; align-items: center;"">
                <img src=""images/causal/causal_series_3/causal_series_3_d.jpg"" style=""width: 300px; height: 300px;"" />
              </div>","null",""
"","","","","","html-keyboard-response","22","91231","0.0-16.0","123844B5456542A4804B7E09B7735C00","155b4f21-101c-46fe-9ae0-9763550bcab2","4f03f330-5f91-43fc-aa61-d9dda6d26521","","null","<div style=""display: flex; justify-content: center; align-items: center;"">
                <img src=""images/other/blank.jpg"" style=""width: 300px; height: 300px;"" />
              </div>","null",""
"","","","","","html-keyboard-response","23","94233","0.0-17.0","123844B5456542A4804B7E09B7735C00","155b4f21-101c-46fe-9ae0-9763550bcab2","4f03f330-5f91-43fc-aa61-d9dda6d26521","","null","<div style=""display: flex; justify-content: center; align-items: center;"">
                <img src=""images/causal/causal_series_12/causal_series_12_a.jpg"" style=""width: 300px; height: 300px;"" />
              </div>","null",""
"","","","","","html-button-response","24","102974","0.0-18.0","123844B5456542A4804B7E09B7735C00","155b4f21-101c-46fe-9ae0-9763550bcab2","4f03f330-5f91-43fc-aa61-d9dda6d26521","","8739","
    <div style=""display: flex; justify-content: center; align-items: center;"">
      <img src=""images/red_deck_2.png"" style=""width: 300px; height: 300px; margin-right: 10px;"" />
      <img src=""images/blue_deck_1.png"" style=""width: 300px; height: 300px;"" />
    </div>","0","0"
"","","","","","html-keyboard-response","25","105986","0.0-19.0-0.0-0.0","123844B5456542A4804B7E09B7735C00","155b4f21-101c-46fe-9ae0-9763550bcab2","4f03f330-5f91-43fc-aa61-d9dda6d26521","","null","<div style=""display: flex; justify-content: center; align-items: center;"">
                <img src=""images/causal/causal_series_12/causal_series_12_b.jpg"" style=""width: 300px; height: 300px;"" />
              </div>","null",""
"","","","","","html-keyboard-response","26","108989","0.0-19.0-0.0-1.0","123844B5456542A4804B7E09B7735C00","155b4f21-101c-46fe-9ae0-9763550bcab2","4f03f330-5f91-43fc-aa61-d9dda6d26521","","null","<div style=""display: flex; justify-content: center; align-items: center;"">
                <img src=""images/causal/causal_series_12/causal_series_12_c.jpg"" style=""width: 300px; height: 300px;"" />
              </div>","null",""
"","","","","","html-keyboard-response","27","111997","0.0-19.0-0.0-2.0","123844B5456542A4804B7E09B7735C00","155b4f21-101c-46fe-9ae0-9763550bcab2","4f03f330-5f91-43fc-aa61-d9dda6d26521","","null","<div style=""display: flex; justify-content: center; align-items: center;"">
                <img src=""images/causal/causal_series_12/causal_series_12_d.jpg"" style=""width: 300px; height: 300px;"" />
              </div>","null",""
"","","","","","html-keyboard-response","28","115009","0.0-20.0","123844B5456542A4804B7E09B7735C00","155b4f21-101c-46fe-9ae0-9763550bcab2","4f03f330-5f91-43fc-aa61-d9dda6d26521","","null","<div style=""display: flex; justify-content: center; align-items: center;"">
                <img src=""images/other/blank.jpg"" style=""width: 300px; height: 300px;"" />
              </div>","null",""
"","","","","","html-keyboard-response","29","118014","0.0-21.0","123844B5456542A4804B7E09B7735C00","155b4f21-101c-46fe-9ae0-9763550bcab2","4f03f330-5f91-43fc-aa61-d9dda6d26521","","null","<div style=""display: flex; justify-content: center; align-items: center;"">
                <img src=""images/causal/causal_series_10/causal_series_10_a.jpg"" style=""width: 300px; height: 300px;"" />
              </div>","null",""
"","","","","","html-button-response","30","126798","0.0-22.0","123844B5456542A4804B7E09B7735C00","155b4f21-101c-46fe-9ae0-9763550bcab2","4f03f330-5f91-43fc-aa61-d9dda6d26521","","8784","
    <div style=""display: flex; justify-content: center; align-items: center;"">
      <img src=""images/red_deck_2.png"" style=""width: 300px; height: 300px; margin-right: 10px;"" />
      <img src=""images/blue_deck_1.png"" style=""width: 300px; height: 300px;"" />
    </div>","1","1"
"","","","","","html-keyboard-response","31","129812","0.0-23.0-1.0-0.0","123844B5456542A4804B7E09B7735C00","155b4f21-101c-46fe-9ae0-9763550bcab2","4f03f330-5f91-43fc-aa61-d9dda6d26521","","null","<div style=""display: flex; justify-content: center; align-items: center;"">
                <img src=""images/semantic/semantic_series_9/semantic_series_9_d.jpg"" style=""width: 300px; height: 300px;"" />
              </div>","null",""
"","","","","","html-keyboard-response","32","132818","0.0-23.0-1.0-1.0","123844B5456542A4804B7E09B7735C00","155b4f21-101c-46fe-9ae0-9763550bcab2","4f03f330-5f91-43fc-aa61-d9dda6d26521","","null","<div style=""display: flex; justify-content: center; align-items: center;"">
                <img src=""images/semantic/semantic_series_10/semantic_series_10_d.jpg"" style=""width: 300px; height: 300px;"" />
              </div>","null",""
"","","","","","html-keyboard-response","33","135834","0.0-23.0-1.0-2.0","123844B5456542A4804B7E09B7735C00","155b4f21-101c-46fe-9ae0-9763550bcab2","4f03f330-5f91-43fc-aa61-d9dda6d26521","","null","<div style=""display: flex; justify-content: center; align-items: center;"">
                <img src=""images/semantic/semantic_series_11/semantic_series_11_d.jpg"" style=""width: 300px; height: 300px;"" />
              </div>","null",""
"","","","","","html-keyboard-response","34","138836","0.0-24.0","123844B5456542A4804B7E09B7735C00","155b4f21-101c-46fe-9ae0-9763550bcab2","4f03f330-5f91-43fc-aa61-d9dda6d26521","","null","<div style=""display: flex; justify-content: center; align-items: center;"">
                <img src=""images/other/blank.jpg"" style=""width: 300px; height: 300px;"" />
              </div>","null",""
"","","","","","html-keyboard-response","35","141846","0.0-25.0","123844B5456542A4804B7E09B7735C00","155b4f21-101c-46fe-9ae0-9763550bcab2","4f03f330-5f91-43fc-aa61-d9dda6d26521","","null","<div style=""display: flex; justify-content: center; align-items: center;"">
                <img src=""images/causal/causal_series_13/causal_series_13_a.jpg"" style=""width: 300px; height: 300px;"" />
              </div>","null",""
"","","","","","html-button-response","36","144885","0.0-26.0","123844B5456542A4804B7E09B7735C00","155b4f21-101c-46fe-9ae0-9763550bcab2","4f03f330-5f91-43fc-aa61-d9dda6d26521","","3038","
    <div style=""display: flex; justify-content: center; align-items: center;"">
      <img src=""images/red_deck_2.png"" style=""width: 300px; height: 300px; margin-right: 10px;"" />
      <img src=""images/blue_deck_1.png"" style=""width: 300px; height: 300px;"" />
    </div>","0","0"
"","","","","","html-keyboard-response","37","147886","0.0-27.0-0.0-0.0","123844B5456542A4804B7E09B7735C00","155b4f21-101c-46fe-9ae0-9763550bcab2","4f03f330-5f91-43fc-aa61-d9dda6d26521","","null","<div style=""display: flex; justify-content: center; align-items: center;"">
                <img src=""images/causal/causal_series_13/causal_series_13_b.jpg"" style=""width: 300px; height: 300px;"" />
              </div>","null",""
"","","","","","html-keyboard-response","38","150902","0.0-27.0-0.0-1.0","123844B5456542A4804B7E09B7735C00","155b4f21-101c-46fe-9ae0-9763550bcab2","4f03f330-5f91-43fc-aa61-d9dda6d26521","","null","<div style=""display: flex; justify-content: center; align-items: center;"">
                <img src=""images/causal/causal_series_13/causal_series_13_c.jpg"" style=""width: 300px; height: 300px;"" />
              </div>","null",""
"","","","","","html-keyboard-response","39","153904","0.0-27.0-0.0-2.0","123844B5456542A4804B7E09B7735C00","155b4f21-101c-46fe-9ae0-9763550bcab2","4f03f330-5f91-43fc-aa61-d9dda6d26521","","null","<div style=""display: flex; justify-content: center; align-items: center;"">
                <img src=""images/causal/causal_series_13/causal_series_13_d.jpg"" style=""width: 300px; height: 300px;"" />
              </div>","null",""
"","","","","","html-keyboard-response","40","156916","0.0-28.0","123844B5456542A4804B7E09B7735C00","155b4f21-101c-46fe-9ae0-9763550bcab2","4f03f330-5f91-43fc-aa61-d9dda6d26521","","null","<div style=""display: flex; justify-content: center; align-items: center;"">
                <img src=""images/other/blank.jpg"" style=""width: 300px; height: 300px;"" />
              </div>","null",""
"","","","","","html-keyboard-response","41","159919","0.0-29.0","123844B5456542A4804B7E09B7735C00","155b4f21-101c-46fe-9ae0-9763550bcab2","4f03f330-5f91-43fc-aa61-d9dda6d26521","","null","<div style=""display: flex; justify-content: center; align-items: center;"">
                <img src=""images/causal/causal_series_7/causal_series_7_a.jpg"" style=""width: 300px; height: 300px;"" />
              </div>","null",""
"","","","","","html-button-response","42","163068","0.0-30.0","123844B5456542A4804B7E09B7735C00","155b4f21-101c-46fe-9ae0-9763550bcab2","4f03f330-5f91-43fc-aa61-d9dda6d26521","","3149","
    <div style=""display: flex; justify-content: center; align-items: center;"">
      <img src=""images/red_deck_2.png"" style=""width: 300px; height: 300px; margin-right: 10px;"" />
      <img src=""images/blue_deck_1.png"" style=""width: 300px; height: 300px;"" />
    </div>","0","0"
"","","","","","html-keyboard-response","43","166069","0.0-31.0-0.0-0.0","123844B5456542A4804B7E09B7735C00","155b4f21-101c-46fe-9ae0-9763550bcab2","4f03f330-5f91-43fc-aa61-d9dda6d26521","","null","<div style=""display: flex; justify-content: center; align-items: center;"">
                <img src=""images/causal/causal_series_7/causal_series_7_b.jpg"" style=""width: 300px; height: 300px;"" />
              </div>","null",""
"","","","","","html-keyboard-response","44","169084","0.0-31.0-0.0-1.0","123844B5456542A4804B7E09B7735C00","155b4f21-101c-46fe-9ae0-9763550bcab2","4f03f330-5f91-43fc-aa61-d9dda6d26521","","null","<div style=""display: flex; justify-content: center; align-items: center;"">
                <img src=""images/causal/causal_series_7/causal_series_7_c.jpg"" style=""width: 300px; height: 300px;"" />
              </div>","null",""
"","","","","","html-keyboard-response","45","172086","0.0-31.0-0.0-2.0","123844B5456542A4804B7E09B7735C00","155b4f21-101c-46fe-9ae0-9763550bcab2","4f03f330-5f91-43fc-aa61-d9dda6d26521","","null","<div style=""display: flex; justify-content: center; align-items: center;"">
                <img src=""images/causal/causal_series_7/causal_series_7_d.jpg"" style=""width: 300px; height: 300px;"" />
              </div>","null",""
"","","","","","html-keyboard-response","46","175098","0.0-32.0","123844B5456542A4804B7E09B7735C00","155b4f21-101c-46fe-9ae0-9763550bcab2","4f03f330-5f91-43fc-aa61-d9dda6d26521","","null","<div style=""display: flex; justify-content: center; align-items: center;"">
                <img src=""images/other/blank.jpg"" style=""width: 300px; height: 300px;"" />
              </div>","null",""
"","","","","","html-keyboard-response","47","178110","0.0-33.0","123844B5456542A4804B7E09B7735C00","155b4f21-101c-46fe-9ae0-9763550bcab2","4f03f330-5f91-43fc-aa61-d9dda6d26521","","null","<div style=""display: flex; justify-content: center; align-items: center;"">
                <img src=""images/causal/causal_series_17/causal_series_17_a.jpg"" style=""width: 300px; height: 300px;"" />
              </div>","null",""
"","","","","","html-button-response","48","181804","0.0-34.0","123844B5456542A4804B7E09B7735C00","155b4f21-101c-46fe-9ae0-9763550bcab2","4f03f330-5f91-43fc-aa61-d9dda6d26521","","3693","
    <div style=""display: flex; justify-content: center; align-items: center;"">
      <img src=""images/red_deck_2.png"" style=""width: 300px; height: 300px; margin-right: 10px;"" />
      <img src=""images/blue_deck_1.png"" style=""width: 300px; height: 300px;"" />
    </div>","1","1"
"","","","","","html-keyboard-response","49","184813","0.0-35.0-1.0-0.0","123844B5456542A4804B7E09B7735C00","155b4f21-101c-46fe-9ae0-9763550bcab2","4f03f330-5f91-43fc-aa61-d9dda6d26521","","null","<div style=""display: flex; justify-content: center; align-items: center;"">
                <img src=""images/semantic/semantic_series_12/semantic_series_12_d.jpg"" style=""width: 300px; height: 300px;"" />
              </div>","null",""
"","","","","","html-keyboard-response","50","187829","0.0-35.0-1.0-1.0","123844B5456542A4804B7E09B7735C00","155b4f21-101c-46fe-9ae0-9763550bcab2","4f03f330-5f91-43fc-aa61-d9dda6d26521","","null","<div style=""display: flex; justify-content: center; align-items: center;"">
                <img src=""images/semantic/semantic_series_13/semantic_series_13_d.jpg"" style=""width: 300px; height: 300px;"" />
              </div>","null",""
"","","","","","html-keyboard-response","51","190836","0.0-35.0-1.0-2.0","123844B5456542A4804B7E09B7735C00","155b4f21-101c-46fe-9ae0-9763550bcab2","4f03f330-5f91-43fc-aa61-d9dda6d26521","","null","<div style=""display: flex; justify-content: center; align-items: center;"">
                <img src=""images/semantic/semantic_series_14/semantic_series_14_d.jpg"" style=""width: 300px; height: 300px;"" />
              </div>","null",""
"","","","","","html-keyboard-response","52","193852","0.0-36.0","123844B5456542A4804B7E09B7735C00","155b4f21-101c-46fe-9ae0-9763550bcab2","4f03f330-5f91-43fc-aa61-d9dda6d26521","","null","<div style=""display: flex; justify-content: center; align-items: center;"">
                <img src=""images/other/blank.jpg"" style=""width: 300px; height: 300px;"" />
              </div>","null",""
"","","","","","html-keyboard-response","53","196866","0.0-37.0","123844B5456542A4804B7E09B7735C00","155b4f21-101c-46fe-9ae0-9763550bcab2","4f03f330-5f91-43fc-aa61-d9dda6d26521","","null","<div style=""display: flex; justify-content: center; align-items: center;"">
                <img src=""images/causal/causal_series_5/causal_series_5_a.jpg"" style=""width: 300px; height: 300px;"" />
              </div>","null",""
"","","","","","html-button-response","54","270930","0.0-38.0","123844B5456542A4804B7E09B7735C00","155b4f21-101c-46fe-9ae0-9763550bcab2","4f03f330-5f91-43fc-aa61-d9dda6d26521","","74065","
    <div style=""display: flex; justify-content: center; align-items: center;"">
      <img src=""images/red_deck_2.png"" style=""width: 300px; height: 300px; margin-right: 10px;"" />
      <img src=""images/blue_deck_1.png"" style=""width: 300px; height: 300px;"" />
    </div>","1","1"
"","","","","","html-keyboard-response","55","273941","0.0-39.0-1.0-0.0","123844B5456542A4804B7E09B7735C00","155b4f21-101c-46fe-9ae0-9763550bcab2","4f03f330-5f91-43fc-aa61-d9dda6d26521","","null","<div style=""display: flex; justify-content: center; align-items: center;"">
                <img src=""images/semantic/semantic_series_12/semantic_series_12_d.jpg"" style=""width: 300px; height: 300px;"" />
              </div>","null",""
"","","","","","html-keyboard-response","56","276957","0.0-39.0-1.0-1.0","123844B5456542A4804B7E09B7735C00","155b4f21-101c-46fe-9ae0-9763550bcab2","4f03f330-5f91-43fc-aa61-d9dda6d26521","","null","<div style=""display: flex; justify-content: center; align-items: center;"">
                <img src=""images/semantic/semantic_series_13/semantic_series_13_d.jpg"" style=""width: 300px; height: 300px;"" />
              </div>","null",""
"","","","","","html-keyboard-response","57","279972","0.0-39.0-1.0-2.0","123844B5456542A4804B7E09B7735C00","155b4f21-101c-46fe-9ae0-9763550bcab2","4f03f330-5f91-43fc-aa61-d9dda6d26521","","null","<div style=""display: flex; justify-content: center; align-items: center;"">
                <img src=""images/semantic/semantic_series_14/semantic_series_14_d.jpg"" style=""width: 300px; height: 300px;"" />
              </div>","null",""
"","","","","","html-keyboard-response","58","282979","0.0-40.0","123844B5456542A4804B7E09B7735C00","155b4f21-101c-46fe-9ae0-9763550bcab2","4f03f330-5f91-43fc-aa61-d9dda6d26521","","null","<div style=""display: flex; justify-content: center; align-items: center;"">
                <img src=""images/other/blank.jpg"" style=""width: 300px; height: 300px;"" />
              </div>","null",""
"","","","","","html-keyboard-response","59","285983","0.0-41.0","123844B5456542A4804B7E09B7735C00","155b4f21-101c-46fe-9ae0-9763550bcab2","4f03f330-5f91-43fc-aa61-d9dda6d26521","","null","<div style=""display: flex; justify-content: center; align-items: center;"">
                <img src=""images/causal/causal_series_4/causal_series_4_a.jpg"" style=""width: 300px; height: 300px;"" />
              </div>","null",""
"","","","","","html-button-response","60","287561","0.0-42.0","123844B5456542A4804B7E09B7735C00","155b4f21-101c-46fe-9ae0-9763550bcab2","4f03f330-5f91-43fc-aa61-d9dda6d26521","","1577","
    <div style=""display: flex; justify-content: center; align-items: center;"">
      <img src=""images/red_deck_2.png"" style=""width: 300px; height: 300px; margin-right: 10px;"" />
      <img src=""images/blue_deck_1.png"" style=""width: 300px; height: 300px;"" />
    </div>","1","1"
"","","","","","html-keyboard-response","61","290574","0.0-43.0-1.0-0.0","123844B5456542A4804B7E09B7735C00","155b4f21-101c-46fe-9ae0-9763550bcab2","4f03f330-5f91-43fc-aa61-d9dda6d26521","","null","<div style=""display: flex; justify-content: center; align-items: center;"">
                <img src=""images/semantic/semantic_series_9/semantic_series_9_d.jpg"" style=""width: 300px; height: 300px;"" />
              </div>","null",""
"","","","","","html-keyboard-response","62","293590","0.0-43.0-1.0-1.0","123844B5456542A4804B7E09B7735C00","155b4f21-101c-46fe-9ae0-9763550bcab2","4f03f330-5f91-43fc-aa61-d9dda6d26521","","null","<div style=""display: flex; justify-content: center; align-items: center;"">
                <img src=""images/semantic/semantic_series_10/semantic_series_10_d.jpg"" style=""width: 300px; height: 300px;"" />
              </div>","null",""
"","","","","","html-keyboard-response","63","296605","0.0-43.0-1.0-2.0","123844B5456542A4804B7E09B7735C00","155b4f21-101c-46fe-9ae0-9763550bcab2","4f03f330-5f91-43fc-aa61-d9dda6d26521","","null","<div style=""display: flex; justify-content: center; align-items: center;"">
                <img src=""images/semantic/semantic_series_11/semantic_series_11_d.jpg"" style=""width: 300px; height: 300px;"" />
              </div>","null",""
"","","","","","html-keyboard-response","64","299613","0.0-44.0","123844B5456542A4804B7E09B7735C00","155b4f21-101c-46fe-9ae0-9763550bcab2","4f03f330-5f91-43fc-aa61-d9dda6d26521","","null","<div style=""display: flex; justify-content: center; align-items: center;"">
                <img src=""images/other/blank.jpg"" style=""width: 300px; height: 300px;"" />
              </div>","null",""
"","","","","","html-keyboard-response","65","302618","0.0-45.0","123844B5456542A4804B7E09B7735C00","155b4f21-101c-46fe-9ae0-9763550bcab2","4f03f330-5f91-43fc-aa61-d9dda6d26521","","null","<div style=""display: flex; justify-content: center; align-items: center;"">
                <img src=""images/causal/causal_series_16/causal_series_16_a.jpg"" style=""width: 300px; height: 300px;"" />
              </div>","null",""
"","","","","","html-button-response","66","304281","0.0-46.0","123844B5456542A4804B7E09B7735C00","155b4f21-101c-46fe-9ae0-9763550bcab2","4f03f330-5f91-43fc-aa61-d9dda6d26521","","1662","
    <div style=""display: flex; justify-content: center; align-items: center;"">
      <img src=""images/red_deck_2.png"" style=""width: 300px; height: 300px; margin-right: 10px;"" />
      <img src=""images/blue_deck_1.png"" style=""width: 300px; height: 300px;"" />
    </div>","0","0"
"","","","","","html-keyboard-response","67","307286","0.0-47.0-0.0-0.0","123844B5456542A4804B7E09B7735C00","155b4f21-101c-46fe-9ae0-9763550bcab2","4f03f330-5f91-43fc-aa61-d9dda6d26521","","null","<div style=""display: flex; justify-content: center; align-items: center;"">
                <img src=""images/causal/causal_series_16/causal_series_16_b.jpg"" style=""width: 300px; height: 300px;"" />
              </div>","null",""
"","","","","","html-keyboard-response","68","310297","0.0-47.0-0.0-1.0","123844B5456542A4804B7E09B7735C00","155b4f21-101c-46fe-9ae0-9763550bcab2","4f03f330-5f91-43fc-aa61-d9dda6d26521","","null","<div style=""display: flex; justify-content: center; align-items: center;"">
                <img src=""images/causal/causal_series_16/causal_series_16_c.jpg"" style=""width: 300px; height: 300px;"" />
              </div>","null",""
"","","","","","html-keyboard-response","69","313313","0.0-47.0-0.0-2.0","123844B5456542A4804B7E09B7735C00","155b4f21-101c-46fe-9ae0-9763550bcab2","4f03f330-5f91-43fc-aa61-d9dda6d26521","","null","<div style=""display: flex; justify-content: center; align-items: center;"">
                <img src=""images/causal/causal_series_16/causal_series_16_d.jpg"" style=""width: 300px; height: 300px;"" />
              </div>","null",""
"","","","","","html-keyboard-response","70","316325","0.0-48.0","123844B5456542A4804B7E09B7735C00","155b4f21-101c-46fe-9ae0-9763550bcab2","4f03f330-5f91-43fc-aa61-d9dda6d26521","","null","<div style=""display: flex; justify-content: center; align-items: center;"">
                <img src=""images/other/blank.jpg"" style=""width: 300px; height: 300px;"" />
              </div>","null",""
"","","","","","html-keyboard-response","71","319335","0.0-49.0","123844B5456542A4804B7E09B7735C00","155b4f21-101c-46fe-9ae0-9763550bcab2","4f03f330-5f91-43fc-aa61-d9dda6d26521","","null","<div style=""display: flex; justify-content: center; align-items: center;"">
                <img src=""images/causal/causal_series_18/causal_series_18_a.jpg"" style=""width: 300px; height: 300px;"" />
              </div>","null",""
"","","","","","html-button-response","72","320617","0.0-50.0","123844B5456542A4804B7E09B7735C00","155b4f21-101c-46fe-9ae0-9763550bcab2","4f03f330-5f91-43fc-aa61-d9dda6d26521","","1281","
    <div style=""display: flex; justify-content: center; align-items: center;"">
      <img src=""images/red_deck_2.png"" style=""width: 300px; height: 300px; margin-right: 10px;"" />
      <img src=""images/blue_deck_1.png"" style=""width: 300px; height: 300px;"" />
    </div>","1","1"
"","","","","","html-keyboard-response","73","323621","0.0-51.0-1.0-0.0","123844B5456542A4804B7E09B7735C00","155b4f21-101c-46fe-9ae0-9763550bcab2","4f03f330-5f91-43fc-aa61-d9dda6d26521","","null","<div style=""display: flex; justify-content: center; align-items: center;"">
                <img src=""images/semantic/semantic_series_15/semantic_series_15_d.jpg"" style=""width: 300px; height: 300px;"" />
              </div>","null",""
"","","","","","html-keyboard-response","74","326626","0.0-51.0-1.0-1.0","123844B5456542A4804B7E09B7735C00","155b4f21-101c-46fe-9ae0-9763550bcab2","4f03f330-5f91-43fc-aa61-d9dda6d26521","","null","<div style=""display: flex; justify-content: center; align-items: center;"">
                <img src=""images/semantic/semantic_series_16/semantic_series_16_d.jpg"" style=""width: 300px; height: 300px;"" />
              </div>","null",""
"","","","","","html-keyboard-response","75","329639","0.0-51.0-1.0-2.0","123844B5456542A4804B7E09B7735C00","155b4f21-101c-46fe-9ae0-9763550bcab2","4f03f330-5f91-43fc-aa61-d9dda6d26521","","null","<div style=""display: flex; justify-content: center; align-items: center;"">
                <img src=""images/semantic/semantic_series_17/semantic_series_17_d.jpg"" style=""width: 300px; height: 300px;"" />
              </div>","null",""
"","","","","","html-keyboard-response","76","332649","0.0-52.0","123844B5456542A4804B7E09B7735C00","155b4f21-101c-46fe-9ae0-9763550bcab2","4f03f330-5f91-43fc-aa61-d9dda6d26521","","null","<div style=""display: flex; justify-content: center; align-items: center;"">
                <img src=""images/other/blank.jpg"" style=""width: 300px; height: 300px;"" />
              </div>","null",""
"","","","","","html-keyboard-response","77","335653","0.0-53.0","123844B5456542A4804B7E09B7735C00","155b4f21-101c-46fe-9ae0-9763550bcab2","4f03f330-5f91-43fc-aa61-d9dda6d26521","","null","<div style=""display: flex; justify-content: center; align-items: center;"">
                <img src=""images/causal/causal_series_1/causal_series_1_a.jpg"" style=""width: 300px; height: 300px;"" />
              </div>","null",""
"","","","","","html-button-response","78","337672","0.0-54.0","123844B5456542A4804B7E09B7735C00","155b4f21-101c-46fe-9ae0-9763550bcab2","4f03f330-5f91-43fc-aa61-d9dda6d26521","","2018","
    <div style=""display: flex; justify-content: center; align-items: center;"">
      <img src=""images/red_deck_2.png"" style=""width: 300px; height: 300px; margin-right: 10px;"" />
      <img src=""images/blue_deck_1.png"" style=""width: 300px; height: 300px;"" />
    </div>","0","0"
"","","","","","html-keyboard-response","79","340675","0.0-55.0-0.0-0.0","123844B5456542A4804B7E09B7735C00","155b4f21-101c-46fe-9ae0-9763550bcab2","4f03f330-5f91-43fc-aa61-d9dda6d26521","","null","<div style=""display: flex; justify-content: center; align-items: center;"">
                <img src=""images/causal/causal_series_1/causal_series_1_b.jpg"" style=""width: 300px; height: 300px;"" />
              </div>","null",""
"","","","","","html-keyboard-response","80","343676","0.0-55.0-0.0-1.0","123844B5456542A4804B7E09B7735C00","155b4f21-101c-46fe-9ae0-9763550bcab2","4f03f330-5f91-43fc-aa61-d9dda6d26521","","null","<div style=""display: flex; justify-content: center; align-items: center;"">
                <img src=""images/causal/causal_series_1/causal_series_1_c.jpg"" style=""width: 300px; height: 300px;"" />
              </div>","null",""
"","","","","","html-keyboard-response","81","346681","0.0-55.0-0.0-2.0","123844B5456542A4804B7E09B7735C00","155b4f21-101c-46fe-9ae0-9763550bcab2","4f03f330-5f91-43fc-aa61-d9dda6d26521","","null","<div style=""display: flex; justify-content: center; align-items: center;"">
                <img src=""images/causal/causal_series_1/causal_series_1_d.jpg"" style=""width: 300px; height: 300px;"" />
              </div>","null",""
"","","","","","html-keyboard-response","82","349683","0.0-56.0","123844B5456542A4804B7E09B7735C00","155b4f21-101c-46fe-9ae0-9763550bcab2","4f03f330-5f91-43fc-aa61-d9dda6d26521","","null","<div style=""display: flex; justify-content: center; align-items: center;"">
                <img src=""images/other/blank.jpg"" style=""width: 300px; height: 300px;"" />
              </div>","null",""
"","","","","","html-keyboard-response","83","352699","0.0-57.0","123844B5456542A4804B7E09B7735C00","155b4f21-101c-46fe-9ae0-9763550bcab2","4f03f330-5f91-43fc-aa61-d9dda6d26521","","null","<div style=""display: flex; justify-content: center; align-items: center;"">
                <img src=""images/causal/causal_series_14/causal_series_14_a.jpg"" style=""width: 300px; height: 300px;"" />
              </div>","null",""
"","","","","","html-button-response","84","354296","0.0-58.0","123844B5456542A4804B7E09B7735C00","155b4f21-101c-46fe-9ae0-9763550bcab2","4f03f330-5f91-43fc-aa61-d9dda6d26521","","1597","
    <div style=""display: flex; justify-content: center; align-items: center;"">
      <img src=""images/red_deck_2.png"" style=""width: 300px; height: 300px; margin-right: 10px;"" />
      <img src=""images/blue_deck_1.png"" style=""width: 300px; height: 300px;"" />
    </div>","1","1"
"","","","","","html-keyboard-response","85","357298","0.0-59.0-1.0-0.0","123844B5456542A4804B7E09B7735C00","155b4f21-101c-46fe-9ae0-9763550bcab2","4f03f330-5f91-43fc-aa61-d9dda6d26521","","null","<div style=""display: flex; justify-content: center; align-items: center;"">
                <img src=""images/semantic/semantic_series_3/semantic_series_3_d.jpg"" style=""width: 300px; height: 300px;"" />
              </div>","null",""
"","","","","","html-keyboard-response","86","360308","0.0-59.0-1.0-1.0","123844B5456542A4804B7E09B7735C00","155b4f21-101c-46fe-9ae0-9763550bcab2","4f03f330-5f91-43fc-aa61-d9dda6d26521","","null","<div style=""display: flex; justify-content: center; align-items: center;"">
                <img src=""images/semantic/semantic_series_4/semantic_series_4_d.jpg"" style=""width: 300px; height: 300px;"" />
              </div>","null",""
"","","","","","html-keyboard-response","87","363323","0.0-59.0-1.0-2.0","123844B5456542A4804B7E09B7735C00","155b4f21-101c-46fe-9ae0-9763550bcab2","4f03f330-5f91-43fc-aa61-d9dda6d26521","","null","<div style=""display: flex; justify-content: center; align-items: center;"">
                <img src=""images/semantic/semantic_series_5/semantic_series_5_d.jpg"" style=""width: 300px; height: 300px;"" />
              </div>","null",""
"","","","","","html-keyboard-response","88","366324","0.0-60.0","123844B5456542A4804B7E09B7735C00","155b4f21-101c-46fe-9ae0-9763550bcab2","4f03f330-5f91-43fc-aa61-d9dda6d26521","","null","<div style=""display: flex; justify-content: center; align-items: center;"">
                <img src=""images/other/blank.jpg"" style=""width: 300px; height: 300px;"" />
              </div>","null",""
"","","","","","html-keyboard-response","89","369334","0.0-61.0","123844B5456542A4804B7E09B7735C00","155b4f21-101c-46fe-9ae0-9763550bcab2","4f03f330-5f91-43fc-aa61-d9dda6d26521","","null","<div style=""display: flex; justify-content: center; align-items: center;"">
                <img src=""images/causal/causal_series_9/causal_series_9_a.jpg"" style=""width: 300px; height: 300px;"" />
              </div>","null",""
"","","","","","html-button-response","90","371247","0.0-62.0","123844B5456542A4804B7E09B7735C00","155b4f21-101c-46fe-9ae0-9763550bcab2","4f03f330-5f91-43fc-aa61-d9dda6d26521","","1913","
    <div style=""display: flex; justify-content: center; align-items: center;"">
      <img src=""images/red_deck_2.png"" style=""width: 300px; height: 300px; margin-right: 10px;"" />
      <img src=""images/blue_deck_1.png"" style=""width: 300px; height: 300px;"" />
    </div>","0","0"
"","","","","","html-keyboard-response","91","374254","0.0-63.0-0.0-0.0","123844B5456542A4804B7E09B7735C00","155b4f21-101c-46fe-9ae0-9763550bcab2","4f03f330-5f91-43fc-aa61-d9dda6d26521","","null","<div style=""display: flex; justify-content: center; align-items: center;"">
                <img src=""images/causal/causal_series_9/causal_series_9_b.jpg"" style=""width: 300px; height: 300px;"" />
              </div>","null",""
"","","","","","html-keyboard-response","92","377255","0.0-63.0-0.0-1.0","123844B5456542A4804B7E09B7735C00","155b4f21-101c-46fe-9ae0-9763550bcab2","4f03f330-5f91-43fc-aa61-d9dda6d26521","","null","<div style=""display: flex; justify-content: center; align-items: center;"">
                <img src=""images/causal/causal_series_9/causal_series_9_c.jpg"" style=""width: 300px; height: 300px;"" />
              </div>","null",""
"","","","","","html-keyboard-response","93","380267","0.0-63.0-0.0-2.0","123844B5456542A4804B7E09B7735C00","155b4f21-101c-46fe-9ae0-9763550bcab2","4f03f330-5f91-43fc-aa61-d9dda6d26521","","null","<div style=""display: flex; justify-content: center; align-items: center;"">
                <img src=""images/causal/causal_series_9/causal_series_9_d.jpg"" style=""width: 300px; height: 300px;"" />
              </div>","null",""
"","","","","","html-keyboard-response","94","383275","0.0-64.0","123844B5456542A4804B7E09B7735C00","155b4f21-101c-46fe-9ae0-9763550bcab2","4f03f330-5f91-43fc-aa61-d9dda6d26521","","null","<div style=""display: flex; justify-content: center; align-items: center;"">
                <img src=""images/other/blank.jpg"" style=""width: 300px; height: 300px;"" />
              </div>","null",""
"","","","","","html-keyboard-response","95","386289","0.0-65.0","123844B5456542A4804B7E09B7735C00","155b4f21-101c-46fe-9ae0-9763550bcab2","4f03f330-5f91-43fc-aa61-d9dda6d26521","","null","<div style=""display: flex; justify-content: center; align-items: center;"">
                <img src=""images/causal/causal_series_2/causal_series_2_a.jpg"" style=""width: 300px; height: 300px;"" />
              </div>","null",""
"","","","","","html-button-response","96","427749","0.0-66.0","123844B5456542A4804B7E09B7735C00","155b4f21-101c-46fe-9ae0-9763550bcab2","4f03f330-5f91-43fc-aa61-d9dda6d26521","","41461","
    <div style=""display: flex; justify-content: center; align-items: center;"">
      <img src=""images/red_deck_2.png"" style=""width: 300px; height: 300px; margin-right: 10px;"" />
      <img src=""images/blue_deck_1.png"" style=""width: 300px; height: 300px;"" />
    </div>","0","0"
"","","","","","html-keyboard-response","97","430763","0.0-67.0-0.0-0.0","123844B5456542A4804B7E09B7735C00","155b4f21-101c-46fe-9ae0-9763550bcab2","4f03f330-5f91-43fc-aa61-d9dda6d26521","","null","<div style=""display: flex; justify-content: center; align-items: center;"">
                <img src=""images/causal/causal_series_2/causal_series_2_b.jpg"" style=""width: 300px; height: 300px;"" />
              </div>","null",""
"","","","","","html-keyboard-response","98","433770","0.0-67.0-0.0-1.0","123844B5456542A4804B7E09B7735C00","155b4f21-101c-46fe-9ae0-9763550bcab2","4f03f330-5f91-43fc-aa61-d9dda6d26521","","null","<div style=""display: flex; justify-content: center; align-items: center;"">
                <img src=""images/causal/causal_series_2/causal_series_2_c.jpg"" style=""width: 300px; height: 300px;"" />
              </div>","null",""
"","","","","","html-keyboard-response","99","436783","0.0-67.0-0.0-2.0","123844B5456542A4804B7E09B7735C00","155b4f21-101c-46fe-9ae0-9763550bcab2","4f03f330-5f91-43fc-aa61-d9dda6d26521","","null","<div style=""display: flex; justify-content: center; align-items: center;"">
                <img src=""images/causal/causal_series_2/causal_series_2_d.jpg"" style=""width: 300px; height: 300px;"" />
              </div>","null",""
"","","","","","html-keyboard-response","100","439791","0.0-68.0","123844B5456542A4804B7E09B7735C00","155b4f21-101c-46fe-9ae0-9763550bcab2","4f03f330-5f91-43fc-aa61-d9dda6d26521","","null","<div style=""display: flex; justify-content: center; align-items: center;"">
                <img src=""images/other/blank.jpg"" style=""width: 300px; height: 300px;"" />
              </div>","null",""
"","","","","","html-keyboard-response","101","442799","0.0-69.0","123844B5456542A4804B7E09B7735C00","155b4f21-101c-46fe-9ae0-9763550bcab2","4f03f330-5f91-43fc-aa61-d9dda6d26521","","null","<div style=""display: flex; justify-content: center; align-items: center;"">
                <img src=""images/causal/causal_series_15/causal_series_15_a.jpg"" style=""width: 300px; height: 300px;"" />
              </div>","null",""
"","","","","","html-button-response","102","454878","0.0-70.0","123844B5456542A4804B7E09B7735C00","155b4f21-101c-46fe-9ae0-9763550bcab2","4f03f330-5f91-43fc-aa61-d9dda6d26521","","12078","
    <div style=""display: flex; justify-content: center; align-items: center;"">
      <img src=""images/red_deck_2.png"" style=""width: 300px; height: 300px; margin-right: 10px;"" />
      <img src=""images/blue_deck_1.png"" style=""width: 300px; height: 300px;"" />
    </div>","0","0"
"","","","","","html-keyboard-response","103","457890","0.0-71.0-0.0-0.0","123844B5456542A4804B7E09B7735C00","155b4f21-101c-46fe-9ae0-9763550bcab2","4f03f330-5f91-43fc-aa61-d9dda6d26521","","null","<div style=""display: flex; justify-content: center; align-items: center;"">
                <img src=""images/causal/causal_series_15/causal_series_15_b.jpg"" style=""width: 300px; height: 300px;"" />
              </div>","null",""
"","","","","","html-keyboard-response","104","460898","0.0-71.0-0.0-1.0","123844B5456542A4804B7E09B7735C00","155b4f21-101c-46fe-9ae0-9763550bcab2","4f03f330-5f91-43fc-aa61-d9dda6d26521","","null","<div style=""display: flex; justify-content: center; align-items: center;"">
                <img src=""images/causal/causal_series_15/causal_series_15_c.jpg"" style=""width: 300px; height: 300px;"" />
              </div>","null",""
"","","","","","html-keyboard-response","105","463906","0.0-71.0-0.0-2.0","123844B5456542A4804B7E09B7735C00","155b4f21-101c-46fe-9ae0-9763550bcab2","4f03f330-5f91-43fc-aa61-d9dda6d26521","","null","<div style=""display: flex; justify-content: center; align-items: center;"">
                <img src=""images/causal/causal_series_15/causal_series_15_d.jpg"" style=""width: 300px; height: 300px;"" />
              </div>","null",""
"","","","","","html-keyboard-response","106","466919","0.0-72.0","123844B5456542A4804B7E09B7735C00","155b4f21-101c-46fe-9ae0-9763550bcab2","4f03f330-5f91-43fc-aa61-d9dda6d26521","","null","<div style=""display: flex; justify-content: center; align-items: center;"">
                <img src=""images/other/blank.jpg"" style=""width: 300px; height: 300px;"" />
              </div>","null",""
"","","","","","html-keyboard-response","107","469926","0.0-73.0","123844B5456542A4804B7E09B7735C00","155b4f21-101c-46fe-9ae0-9763550bcab2","4f03f330-5f91-43fc-aa61-d9dda6d26521","","null","<div style=""display: flex; justify-content: center; align-items: center;"">
                <img src=""images/causal/causal_series_8/causal_series_8_a.jpg"" style=""width: 300px; height: 300px;"" />
              </div>","null",""
"","","","","","html-button-response","108","471606","0.0-74.0","123844B5456542A4804B7E09B7735C00","155b4f21-101c-46fe-9ae0-9763550bcab2","4f03f330-5f91-43fc-aa61-d9dda6d26521","","1679","
    <div style=""display: flex; justify-content: center; align-items: center;"">
      <img src=""images/red_deck_2.png"" style=""width: 300px; height: 300px; margin-right: 10px;"" />
      <img src=""images/blue_deck_1.png"" style=""width: 300px; height: 300px;"" />
    </div>","1","1"
"","","","","","html-keyboard-response","109","474608","0.0-75.0-1.0-0.0","123844B5456542A4804B7E09B7735C00","155b4f21-101c-46fe-9ae0-9763550bcab2","4f03f330-5f91-43fc-aa61-d9dda6d26521","","null","<div style=""display: flex; justify-content: center; align-items: center;"">
                <img src=""images/semantic/semantic_series_3/semantic_series_3_d.jpg"" style=""width: 300px; height: 300px;"" />
              </div>","null",""
"","","","","","html-keyboard-response","110","477609","0.0-75.0-1.0-1.0","123844B5456542A4804B7E09B7735C00","155b4f21-101c-46fe-9ae0-9763550bcab2","4f03f330-5f91-43fc-aa61-d9dda6d26521","","null","<div style=""display: flex; justify-content: center; align-items: center;"">
                <img src=""images/semantic/semantic_series_4/semantic_series_4_d.jpg"" style=""width: 300px; height: 300px;"" />
              </div>","null",""
"","","","","","html-keyboard-response","111","480616","0.0-75.0-1.0-2.0","123844B5456542A4804B7E09B7735C00","155b4f21-101c-46fe-9ae0-9763550bcab2","4f03f330-5f91-43fc-aa61-d9dda6d26521","","null","<div style=""display: flex; justify-content: center; align-items: center;"">
                <img src=""images/semantic/semantic_series_5/semantic_series_5_d.jpg"" style=""width: 300px; height: 300px;"" />
              </div>","null",""
"","","","","","html-keyboard-response","112","483629","0.0-76.0","123844B5456542A4804B7E09B7735C00","155b4f21-101c-46fe-9ae0-9763550bcab2","4f03f330-5f91-43fc-aa61-d9dda6d26521","","null","<div style=""display: flex; justify-content: center; align-items: center;"">
                <img src=""images/other/blank.jpg"" style=""width: 300px; height: 300px;"" />
              </div>","null",""
"","","","","","survey-text","113","506549","0.0-77.0","123844B5456542A4804B7E09B7735C00","155b4f21-101c-46fe-9ae0-9763550bcab2","4f03f330-5f91-43fc-aa61-d9dda6d26521","","22917","","{""Q0"":""The red deck were continuations of the images you were already seeing, while the blue deck were random unrelated images.""}",""
"","","","","","survey-text","114","515589","0.0-78.0","123844B5456542A4804B7E09B7735C00","155b4f21-101c-46fe-9ae0-9763550bcab2","4f03f330-5f91-43fc-aa61-d9dda6d26521","","9038","","{""Q0"":""The red deck was more fascinating to me.""}",""
"","","","","","html-button-response","115","522364","0.0-79.0","123844B5456542A4804B7E09B7735C00","155b4f21-101c-46fe-9ae0-9763550bcab2","4f03f330-5f91-43fc-aa61-d9dda6d26521","","6775","Which color deck does the fourth image continue the story from the series?","1",""
"","","","","","html-button-response","116","524620","0.0-80.0","123844B5456542A4804B7E09B7735C00","155b4f21-101c-46fe-9ae0-9763550bcab2","4f03f330-5f91-43fc-aa61-d9dda6d26521","","2255","Which color deck does the fourth image not follow the story from the series?","0",""
"","","","","","survey-text","117","529924","0.0-81.0","123844B5456542A4804B7E09B7735C00","155b4f21-101c-46fe-9ae0-9763550bcab2","4f03f330-5f91-43fc-aa61-d9dda6d26521","","5301","","{""Q0"":""Female"",""Q1"":""29""}",""
"","","","","","instructions","118","533755","0.0-82.0","123844B5456542A4804B7E09B7735C00","155b4f21-101c-46fe-9ae0-9763550bcab2","4f03f330-5f91-43fc-aa61-d9dda6d26521","[{""page_index"":0,""viewing_time"":3831}]","3832","","",""
