"success","timeout","failed_images","failed_audio","failed_video","trial_type","trial_index","time_elapsed","internal_node_id","subject_id","study_id","session_id","view_history","rt","stimulus","response","choice"
"true","false","[]","[]","[]","preload","0","175894","0.0-0.0","7EA90EB783F2457A8B54CC38A648FAD2","fbe5db9b-e05d-4662-bdfe-a951c703a9d9","683bf07d-1a26-40b1-9cff-5abdc1eed0ee","","","","",""
"","","","","","instructions","1","211897","0.0-1.0","7EA90EB783F2457A8B54CC38A648FAD2","fbe5db9b-e05d-4662-bdfe-a951c703a9d9","683bf07d-1a26-40b1-9cff-5abdc1eed0ee","[{""page_index"":0,""viewing_time"":36002}]","36003","","",""
"","","","","","instructions","2","233467","0.0-2.0","7EA90EB783F2457A8B54CC38A648FAD2","fbe5db9b-e05d-4662-bdfe-a951c703a9d9","683bf07d-1a26-40b1-9cff-5abdc1eed0ee","[{""page_index"":0,""viewing_time"":21569}]","21569","","",""
"true","","","","","fullscreen","3","258272","0.0-3.0","7EA90EB783F2457A8B54CC38A648FAD2","fbe5db9b-e05d-4662-bdfe-a951c703a9d9","683bf07d-1a26-40b1-9cff-5abdc1eed0ee","","23802","","",""
"","","","","","instructions","4","264341","0.0-4.0","7EA90EB783F2457A8B54CC38A648FAD2","fbe5db9b-e05d-4662-bdfe-a951c703a9d9","683bf07d-1a26-40b1-9cff-5abdc1eed0ee","[{""page_index"":0,""viewing_time"":6068}]","6068","","",""
"","","","","","html-keyboard-response","5","267344","0.0-5.0","7EA90EB783F2457A8B54CC38A648FAD2","fbe5db9b-e05d-4662-bdfe-a951c703a9d9","683bf07d-1a26-40b1-9cff-5abdc1eed0ee","","null","<div style=""display: flex; justify-content: center; align-items: center;"">
                <img src=""images/causal/causal_series_15/causal_series_15_a.jpg"" style=""width: 300px; height: 300px;"" />
              </div>","null",""
"","","","","","html-keyboard-response","6","270349","0.0-6.0","7EA90EB783F2457A8B54CC38A648FAD2","fbe5db9b-e05d-4662-bdfe-a951c703a9d9","683bf07d-1a26-40b1-9cff-5abdc1eed0ee","","null","<div style=""display: flex; justify-content: center; align-items: center;"">
                <img src=""images/causal/causal_series_15/causal_series_15_b.jpg"" style=""width: 300px; height: 300px;"" />
              </div>","null",""
"","","","","","html-keyboard-response","7","273363","0.0-7.0","7EA90EB783F2457A8B54CC38A648FAD2","fbe5db9b-e05d-4662-bdfe-a951c703a9d9","683bf07d-1a26-40b1-9cff-5abdc1eed0ee","","null","<div style=""display: flex; justify-content: center; align-items: center;"">
                <img src=""images/causal/causal_series_15/causal_series_15_c.jpg"" style=""width: 300px; height: 300px;"" />
              </div>","null",""
"","","","","","html-button-response","8","276745","0.0-8.0","7EA90EB783F2457A8B54CC38A648FAD2","fbe5db9b-e05d-4662-bdfe-a951c703a9d9","683bf07d-1a26-40b1-9cff-5abdc1eed0ee","","3381","
    <div style=""display: flex; justify-content: center; align-items: center;"">
      <img src=""images/red_deck_2.png"" style=""width: 300px; height: 300px; margin-right: 10px;"" />
      <img src=""images/blue_deck_1.png"" style=""width: 300px; height: 300px;"" />
    </div>","0","0"
"","","","","","html-keyboard-response","9","279760","0.0-9.0-0.0-0.0","7EA90EB783F2457A8B54CC38A648FAD2","fbe5db9b-e05d-4662-bdfe-a951c703a9d9","683bf07d-1a26-40b1-9cff-5abdc1eed0ee","","null","<div style=""display: flex; justify-content: center; align-items: center;"">
                <img src=""images/causal/causal_series_15/causal_series_15_d.jpg"" style=""width: 300px; height: 300px;"" />
              </div>","null",""
"","","","","","html-keyboard-response","10","282762","0.0-10.0","7EA90EB783F2457A8B54CC38A648FAD2","fbe5db9b-e05d-4662-bdfe-a951c703a9d9","683bf07d-1a26-40b1-9cff-5abdc1eed0ee","","null","<div style=""display: flex; justify-content: center; align-items: center;"">
                <img src=""images/other/blank.jpg"" style=""width: 300px; height: 300px;"" />
              </div>","null",""
"","","","","","html-keyboard-response","11","285766","0.0-11.0","7EA90EB783F2457A8B54CC38A648FAD2","fbe5db9b-e05d-4662-bdfe-a951c703a9d9","683bf07d-1a26-40b1-9cff-5abdc1eed0ee","","null","<div style=""display: flex; justify-content: center; align-items: center;"">
                <img src=""images/causal/causal_series_1/causal_series_1_a.jpg"" style=""width: 300px; height: 300px;"" />
              </div>","null",""
"","","","","","html-keyboard-response","12","288777","0.0-12.0","7EA90EB783F2457A8B54CC38A648FAD2","fbe5db9b-e05d-4662-bdfe-a951c703a9d9","683bf07d-1a26-40b1-9cff-5abdc1eed0ee","","null","<div style=""display: flex; justify-content: center; align-items: center;"">
                <img src=""images/causal/causal_series_1/causal_series_1_b.jpg"" style=""width: 300px; height: 300px;"" />
              </div>","null",""
"","","","","","html-keyboard-response","13","291787","0.0-13.0","7EA90EB783F2457A8B54CC38A648FAD2","fbe5db9b-e05d-4662-bdfe-a951c703a9d9","683bf07d-1a26-40b1-9cff-5abdc1eed0ee","","null","<div style=""display: flex; justify-content: center; align-items: center;"">
                <img src=""images/causal/causal_series_1/causal_series_1_c.jpg"" style=""width: 300px; height: 300px;"" />
              </div>","null",""
"","","","","","html-button-response","14","293441","0.0-14.0","7EA90EB783F2457A8B54CC38A648FAD2","fbe5db9b-e05d-4662-bdfe-a951c703a9d9","683bf07d-1a26-40b1-9cff-5abdc1eed0ee","","1654","
    <div style=""display: flex; justify-content: center; align-items: center;"">
      <img src=""images/red_deck_2.png"" style=""width: 300px; height: 300px; margin-right: 10px;"" />
      <img src=""images/blue_deck_1.png"" style=""width: 300px; height: 300px;"" />
    </div>","0","0"
"","","","","","html-keyboard-response","15","296444","0.0-15.0-0.0-0.0","7EA90EB783F2457A8B54CC38A648FAD2","fbe5db9b-e05d-4662-bdfe-a951c703a9d9","683bf07d-1a26-40b1-9cff-5abdc1eed0ee","","null","<div style=""display: flex; justify-content: center; align-items: center;"">
                <img src=""images/causal/causal_series_1/causal_series_1_d.jpg"" style=""width: 300px; height: 300px;"" />
              </div>","null",""
"","","","","","html-keyboard-response","16","299458","0.0-16.0","7EA90EB783F2457A8B54CC38A648FAD2","fbe5db9b-e05d-4662-bdfe-a951c703a9d9","683bf07d-1a26-40b1-9cff-5abdc1eed0ee","","null","<div style=""display: flex; justify-content: center; align-items: center;"">
                <img src=""images/other/blank.jpg"" style=""width: 300px; height: 300px;"" />
              </div>","null",""
"","","","","","html-keyboard-response","17","302460","0.0-17.0","7EA90EB783F2457A8B54CC38A648FAD2","fbe5db9b-e05d-4662-bdfe-a951c703a9d9","683bf07d-1a26-40b1-9cff-5abdc1eed0ee","","null","<div style=""display: flex; justify-content: center; align-items: center;"">
                <img src=""images/causal/causal_series_17/causal_series_17_a.jpg"" style=""width: 300px; height: 300px;"" />
              </div>","null",""
"","","","","","html-keyboard-response","18","305475","0.0-18.0","7EA90EB783F2457A8B54CC38A648FAD2","fbe5db9b-e05d-4662-bdfe-a951c703a9d9","683bf07d-1a26-40b1-9cff-5abdc1eed0ee","","null","<div style=""display: flex; justify-content: center; align-items: center;"">
                <img src=""images/causal/causal_series_17/causal_series_17_b.jpg"" style=""width: 300px; height: 300px;"" />
              </div>","null",""
"","","","","","html-keyboard-response","19","308479","0.0-19.0","7EA90EB783F2457A8B54CC38A648FAD2","fbe5db9b-e05d-4662-bdfe-a951c703a9d9","683bf07d-1a26-40b1-9cff-5abdc1eed0ee","","null","<div style=""display: flex; justify-content: center; align-items: center;"">
                <img src=""images/causal/causal_series_17/causal_series_17_c.jpg"" style=""width: 300px; height: 300px;"" />
              </div>","null",""
"","","","","","html-button-response","20","310672","0.0-20.0","7EA90EB783F2457A8B54CC38A648FAD2","fbe5db9b-e05d-4662-bdfe-a951c703a9d9","683bf07d-1a26-40b1-9cff-5abdc1eed0ee","","2193","
    <div style=""display: flex; justify-content: center; align-items: center;"">
      <img src=""images/red_deck_2.png"" style=""width: 300px; height: 300px; margin-right: 10px;"" />
      <img src=""images/blue_deck_1.png"" style=""width: 300px; height: 300px;"" />
    </div>","0","0"
"","","","","","html-keyboard-response","21","313680","0.0-21.0-0.0-0.0","7EA90EB783F2457A8B54CC38A648FAD2","fbe5db9b-e05d-4662-bdfe-a951c703a9d9","683bf07d-1a26-40b1-9cff-5abdc1eed0ee","","null","<div style=""display: flex; justify-content: center; align-items: center;"">
                <img src=""images/causal/causal_series_17/causal_series_17_d.jpg"" style=""width: 300px; height: 300px;"" />
              </div>","null",""
"","","","","","html-keyboard-response","22","316681","0.0-22.0","7EA90EB783F2457A8B54CC38A648FAD2","fbe5db9b-e05d-4662-bdfe-a951c703a9d9","683bf07d-1a26-40b1-9cff-5abdc1eed0ee","","null","<div style=""display: flex; justify-content: center; align-items: center;"">
                <img src=""images/other/blank.jpg"" style=""width: 300px; height: 300px;"" />
              </div>","null",""
"","","","","","html-keyboard-response","23","319685","0.0-23.0","7EA90EB783F2457A8B54CC38A648FAD2","fbe5db9b-e05d-4662-bdfe-a951c703a9d9","683bf07d-1a26-40b1-9cff-5abdc1eed0ee","","null","<div style=""display: flex; justify-content: center; align-items: center;"">
                <img src=""images/causal/causal_series_3/causal_series_3_a.jpg"" style=""width: 300px; height: 300px;"" />
              </div>","null",""
"","","","","","html-keyboard-response","24","322690","0.0-24.0","7EA90EB783F2457A8B54CC38A648FAD2","fbe5db9b-e05d-4662-bdfe-a951c703a9d9","683bf07d-1a26-40b1-9cff-5abdc1eed0ee","","null","<div style=""display: flex; justify-content: center; align-items: center;"">
                <img src=""images/causal/causal_series_3/causal_series_3_b.jpg"" style=""width: 300px; height: 300px;"" />
              </div>","null",""
"","","","","","html-keyboard-response","25","325705","0.0-25.0","7EA90EB783F2457A8B54CC38A648FAD2","fbe5db9b-e05d-4662-bdfe-a951c703a9d9","683bf07d-1a26-40b1-9cff-5abdc1eed0ee","","null","<div style=""display: flex; justify-content: center; align-items: center;"">
                <img src=""images/causal/causal_series_3/causal_series_3_c.jpg"" style=""width: 300px; height: 300px;"" />
              </div>","null",""
"","","","","","html-button-response","26","328583","0.0-26.0","7EA90EB783F2457A8B54CC38A648FAD2","fbe5db9b-e05d-4662-bdfe-a951c703a9d9","683bf07d-1a26-40b1-9cff-5abdc1eed0ee","","2877","
    <div style=""display: flex; justify-content: center; align-items: center;"">
      <img src=""images/red_deck_2.png"" style=""width: 300px; height: 300px; margin-right: 10px;"" />
      <img src=""images/blue_deck_1.png"" style=""width: 300px; height: 300px;"" />
    </div>","0","0"
"","","","","","html-keyboard-response","27","331595","0.0-27.0-0.0-0.0","7EA90EB783F2457A8B54CC38A648FAD2","fbe5db9b-e05d-4662-bdfe-a951c703a9d9","683bf07d-1a26-40b1-9cff-5abdc1eed0ee","","null","<div style=""display: flex; justify-content: center; align-items: center;"">
                <img src=""images/causal/causal_series_3/causal_series_3_d.jpg"" style=""width: 300px; height: 300px;"" />
              </div>","null",""
"","","","","","html-keyboard-response","28","334608","0.0-28.0","7EA90EB783F2457A8B54CC38A648FAD2","fbe5db9b-e05d-4662-bdfe-a951c703a9d9","683bf07d-1a26-40b1-9cff-5abdc1eed0ee","","null","<div style=""display: flex; justify-content: center; align-items: center;"">
                <img src=""images/other/blank.jpg"" style=""width: 300px; height: 300px;"" />
              </div>","null",""
"","","","","","html-keyboard-response","29","337609","0.0-29.0","7EA90EB783F2457A8B54CC38A648FAD2","fbe5db9b-e05d-4662-bdfe-a951c703a9d9","683bf07d-1a26-40b1-9cff-5abdc1eed0ee","","null","<div style=""display: flex; justify-content: center; align-items: center;"">
                <img src=""images/causal/causal_series_8/causal_series_8_a.jpg"" style=""width: 300px; height: 300px;"" />
              </div>","null",""
"","","","","","html-keyboard-response","30","340615","0.0-30.0","7EA90EB783F2457A8B54CC38A648FAD2","fbe5db9b-e05d-4662-bdfe-a951c703a9d9","683bf07d-1a26-40b1-9cff-5abdc1eed0ee","","null","<div style=""display: flex; justify-content: center; align-items: center;"">
                <img src=""images/causal/causal_series_8/causal_series_8_b.jpg"" style=""width: 300px; height: 300px;"" />
              </div>","null",""
"","","","","","html-keyboard-response","31","343628","0.0-31.0","7EA90EB783F2457A8B54CC38A648FAD2","fbe5db9b-e05d-4662-bdfe-a951c703a9d9","683bf07d-1a26-40b1-9cff-5abdc1eed0ee","","null","<div style=""display: flex; justify-content: center; align-items: center;"">
                <img src=""images/causal/causal_series_8/causal_series_8_c.jpg"" style=""width: 300px; height: 300px;"" />
              </div>","null",""
"","","","","","html-button-response","32","346772","0.0-32.0","7EA90EB783F2457A8B54CC38A648FAD2","fbe5db9b-e05d-4662-bdfe-a951c703a9d9","683bf07d-1a26-40b1-9cff-5abdc1eed0ee","","3143","
    <div style=""display: flex; justify-content: center; align-items: center;"">
      <img src=""images/red_deck_2.png"" style=""width: 300px; height: 300px; margin-right: 10px;"" />
      <img src=""images/blue_deck_1.png"" style=""width: 300px; height: 300px;"" />
    </div>","0","0"
"","","","","","html-keyboard-response","33","349782","0.0-33.0-0.0-0.0","7EA90EB783F2457A8B54CC38A648FAD2","fbe5db9b-e05d-4662-bdfe-a951c703a9d9","683bf07d-1a26-40b1-9cff-5abdc1eed0ee","","null","<div style=""display: flex; justify-content: center; align-items: center;"">
                <img src=""images/causal/causal_series_8/causal_series_8_d.jpg"" style=""width: 300px; height: 300px;"" />
              </div>","null",""
"","","","","","html-keyboard-response","34","352793","0.0-34.0","7EA90EB783F2457A8B54CC38A648FAD2","fbe5db9b-e05d-4662-bdfe-a951c703a9d9","683bf07d-1a26-40b1-9cff-5abdc1eed0ee","","null","<div style=""display: flex; justify-content: center; align-items: center;"">
                <img src=""images/other/blank.jpg"" style=""width: 300px; height: 300px;"" />
              </div>","null",""
"","","","","","html-keyboard-response","35","355794","0.0-35.0","7EA90EB783F2457A8B54CC38A648FAD2","fbe5db9b-e05d-4662-bdfe-a951c703a9d9","683bf07d-1a26-40b1-9cff-5abdc1eed0ee","","null","<div style=""display: flex; justify-content: center; align-items: center;"">
                <img src=""images/causal/causal_series_7/causal_series_7_a.jpg"" style=""width: 300px; height: 300px;"" />
              </div>","null",""
"","","","","","html-keyboard-response","36","358799","0.0-36.0","7EA90EB783F2457A8B54CC38A648FAD2","fbe5db9b-e05d-4662-bdfe-a951c703a9d9","683bf07d-1a26-40b1-9cff-5abdc1eed0ee","","null","<div style=""display: flex; justify-content: center; align-items: center;"">
                <img src=""images/causal/causal_series_7/causal_series_7_b.jpg"" style=""width: 300px; height: 300px;"" />
              </div>","null",""
"","","","","","html-keyboard-response","37","361804","0.0-37.0","7EA90EB783F2457A8B54CC38A648FAD2","fbe5db9b-e05d-4662-bdfe-a951c703a9d9","683bf07d-1a26-40b1-9cff-5abdc1eed0ee","","null","<div style=""display: flex; justify-content: center; align-items: center;"">
                <img src=""images/causal/causal_series_7/causal_series_7_c.jpg"" style=""width: 300px; height: 300px;"" />
              </div>","null",""
"","","","","","html-button-response","38","364335","0.0-38.0","7EA90EB783F2457A8B54CC38A648FAD2","fbe5db9b-e05d-4662-bdfe-a951c703a9d9","683bf07d-1a26-40b1-9cff-5abdc1eed0ee","","2530","
    <div style=""display: flex; justify-content: center; align-items: center;"">
      <img src=""images/red_deck_2.png"" style=""width: 300px; height: 300px; margin-right: 10px;"" />
      <img src=""images/blue_deck_1.png"" style=""width: 300px; height: 300px;"" />
    </div>","0","0"
"","","","","","html-keyboard-response","39","367348","0.0-39.0-0.0-0.0","7EA90EB783F2457A8B54CC38A648FAD2","fbe5db9b-e05d-4662-bdfe-a951c703a9d9","683bf07d-1a26-40b1-9cff-5abdc1eed0ee","","null","<div style=""display: flex; justify-content: center; align-items: center;"">
                <img src=""images/causal/causal_series_7/causal_series_7_d.jpg"" style=""width: 300px; height: 300px;"" />
              </div>","null",""
"","","","","","html-keyboard-response","40","370354","0.0-40.0","7EA90EB783F2457A8B54CC38A648FAD2","fbe5db9b-e05d-4662-bdfe-a951c703a9d9","683bf07d-1a26-40b1-9cff-5abdc1eed0ee","","null","<div style=""display: flex; justify-content: center; align-items: center;"">
                <img src=""images/other/blank.jpg"" style=""width: 300px; height: 300px;"" />
              </div>","null",""
"","","","","","html-keyboard-response","41","373369","0.0-41.0","7EA90EB783F2457A8B54CC38A648FAD2","fbe5db9b-e05d-4662-bdfe-a951c703a9d9","683bf07d-1a26-40b1-9cff-5abdc1eed0ee","","null","<div style=""display: flex; justify-content: center; align-items: center;"">
                <img src=""images/causal/causal_series_6/causal_series_6_a.jpg"" style=""width: 300px; height: 300px;"" />
              </div>","null",""
"","","","","","html-keyboard-response","42","376381","0.0-42.0","7EA90EB783F2457A8B54CC38A648FAD2","fbe5db9b-e05d-4662-bdfe-a951c703a9d9","683bf07d-1a26-40b1-9cff-5abdc1eed0ee","","null","<div style=""display: flex; justify-content: center; align-items: center;"">
                <img src=""images/causal/causal_series_6/causal_series_6_b.jpg"" style=""width: 300px; height: 300px;"" />
              </div>","null",""
"","","","","","html-keyboard-response","43","379385","0.0-43.0","7EA90EB783F2457A8B54CC38A648FAD2","fbe5db9b-e05d-4662-bdfe-a951c703a9d9","683bf07d-1a26-40b1-9cff-5abdc1eed0ee","","null","<div style=""display: flex; justify-content: center; align-items: center;"">
                <img src=""images/causal/causal_series_6/causal_series_6_c.jpg"" style=""width: 300px; height: 300px;"" />
              </div>","null",""
"","","","","","html-button-response","44","380878","0.0-44.0","7EA90EB783F2457A8B54CC38A648FAD2","fbe5db9b-e05d-4662-bdfe-a951c703a9d9","683bf07d-1a26-40b1-9cff-5abdc1eed0ee","","1493","
    <div style=""display: flex; justify-content: center; align-items: center;"">
      <img src=""images/red_deck_2.png"" style=""width: 300px; height: 300px; margin-right: 10px;"" />
      <img src=""images/blue_deck_1.png"" style=""width: 300px; height: 300px;"" />
    </div>","0","0"
"","","","","","html-keyboard-response","45","383893","0.0-45.0-0.0-0.0","7EA90EB783F2457A8B54CC38A648FAD2","fbe5db9b-e05d-4662-bdfe-a951c703a9d9","683bf07d-1a26-40b1-9cff-5abdc1eed0ee","","null","<div style=""display: flex; justify-content: center; align-items: center;"">
                <img src=""images/causal/causal_series_6/causal_series_6_d.jpg"" style=""width: 300px; height: 300px;"" />
              </div>","null",""
"","","","","","html-keyboard-response","46","386908","0.0-46.0","7EA90EB783F2457A8B54CC38A648FAD2","fbe5db9b-e05d-4662-bdfe-a951c703a9d9","683bf07d-1a26-40b1-9cff-5abdc1eed0ee","","null","<div style=""display: flex; justify-content: center; align-items: center;"">
                <img src=""images/other/blank.jpg"" style=""width: 300px; height: 300px;"" />
              </div>","null",""
"","","","","","html-keyboard-response","47","389919","0.0-47.0","7EA90EB783F2457A8B54CC38A648FAD2","fbe5db9b-e05d-4662-bdfe-a951c703a9d9","683bf07d-1a26-40b1-9cff-5abdc1eed0ee","","null","<div style=""display: flex; justify-content: center; align-items: center;"">
                <img src=""images/causal/causal_series_10/causal_series_10_a.jpg"" style=""width: 300px; height: 300px;"" />
              </div>","null",""
"","","","","","html-keyboard-response","48","392925","0.0-48.0","7EA90EB783F2457A8B54CC38A648FAD2","fbe5db9b-e05d-4662-bdfe-a951c703a9d9","683bf07d-1a26-40b1-9cff-5abdc1eed0ee","","null","<div style=""display: flex; justify-content: center; align-items: center;"">
                <img src=""images/causal/causal_series_10/causal_series_10_b.jpg"" style=""width: 300px; height: 300px;"" />
              </div>","null",""
"","","","","","html-keyboard-response","49","395927","0.0-49.0","7EA90EB783F2457A8B54CC38A648FAD2","fbe5db9b-e05d-4662-bdfe-a951c703a9d9","683bf07d-1a26-40b1-9cff-5abdc1eed0ee","","null","<div style=""display: flex; justify-content: center; align-items: center;"">
                <img src=""images/causal/causal_series_10/causal_series_10_c.jpg"" style=""width: 300px; height: 300px;"" />
              </div>","null",""
"","","","","","html-button-response","50","397106","0.0-50.0","7EA90EB783F2457A8B54CC38A648FAD2","fbe5db9b-e05d-4662-bdfe-a951c703a9d9","683bf07d-1a26-40b1-9cff-5abdc1eed0ee","","1177","
    <div style=""display: flex; justify-content: center; align-items: center;"">
      <img src=""images/red_deck_2.png"" style=""width: 300px; height: 300px; margin-right: 10px;"" />
      <img src=""images/blue_deck_1.png"" style=""width: 300px; height: 300px;"" />
    </div>","0","0"
"","","","","","html-keyboard-response","51","400109","0.0-51.0-0.0-0.0","7EA90EB783F2457A8B54CC38A648FAD2","fbe5db9b-e05d-4662-bdfe-a951c703a9d9","683bf07d-1a26-40b1-9cff-5abdc1eed0ee","","null","<div style=""display: flex; justify-content: center; align-items: center;"">
                <img src=""images/causal/causal_series_10/causal_series_10_d.jpg"" style=""width: 300px; height: 300px;"" />
              </div>","null",""
"","","","","","html-keyboard-response","52","403118","0.0-52.0","7EA90EB783F2457A8B54CC38A648FAD2","fbe5db9b-e05d-4662-bdfe-a951c703a9d9","683bf07d-1a26-40b1-9cff-5abdc1eed0ee","","null","<div style=""display: flex; justify-content: center; align-items: center;"">
                <img src=""images/other/blank.jpg"" style=""width: 300px; height: 300px;"" />
              </div>","null",""
"","","","","","html-keyboard-response","53","406119","0.0-53.0","7EA90EB783F2457A8B54CC38A648FAD2","fbe5db9b-e05d-4662-bdfe-a951c703a9d9","683bf07d-1a26-40b1-9cff-5abdc1eed0ee","","null","<div style=""display: flex; justify-content: center; align-items: center;"">
                <img src=""images/causal/causal_series_2/causal_series_2_a.jpg"" style=""width: 300px; height: 300px;"" />
              </div>","null",""
"","","","","","html-keyboard-response","54","409135","0.0-54.0","7EA90EB783F2457A8B54CC38A648FAD2","fbe5db9b-e05d-4662-bdfe-a951c703a9d9","683bf07d-1a26-40b1-9cff-5abdc1eed0ee","","null","<div style=""display: flex; justify-content: center; align-items: center;"">
                <img src=""images/causal/causal_series_2/causal_series_2_b.jpg"" style=""width: 300px; height: 300px;"" />
              </div>","null",""
"","","","","","html-keyboard-response","55","412147","0.0-55.0","7EA90EB783F2457A8B54CC38A648FAD2","fbe5db9b-e05d-4662-bdfe-a951c703a9d9","683bf07d-1a26-40b1-9cff-5abdc1eed0ee","","null","<div style=""display: flex; justify-content: center; align-items: center;"">
                <img src=""images/causal/causal_series_2/causal_series_2_c.jpg"" style=""width: 300px; height: 300px;"" />
              </div>","null",""
"","","","","","html-button-response","56","413670","0.0-56.0","7EA90EB783F2457A8B54CC38A648FAD2","fbe5db9b-e05d-4662-bdfe-a951c703a9d9","683bf07d-1a26-40b1-9cff-5abdc1eed0ee","","1522","
    <div style=""display: flex; justify-content: center; align-items: center;"">
      <img src=""images/red_deck_2.png"" style=""width: 300px; height: 300px; margin-right: 10px;"" />
      <img src=""images/blue_deck_1.png"" style=""width: 300px; height: 300px;"" />
    </div>","0","0"
"","","","","","html-keyboard-response","57","416672","0.0-57.0-0.0-0.0","7EA90EB783F2457A8B54CC38A648FAD2","fbe5db9b-e05d-4662-bdfe-a951c703a9d9","683bf07d-1a26-40b1-9cff-5abdc1eed0ee","","null","<div style=""display: flex; justify-content: center; align-items: center;"">
                <img src=""images/causal/causal_series_2/causal_series_2_d.jpg"" style=""width: 300px; height: 300px;"" />
              </div>","null",""
"","","","","","html-keyboard-response","58","419683","0.0-58.0","7EA90EB783F2457A8B54CC38A648FAD2","fbe5db9b-e05d-4662-bdfe-a951c703a9d9","683bf07d-1a26-40b1-9cff-5abdc1eed0ee","","null","<div style=""display: flex; justify-content: center; align-items: center;"">
                <img src=""images/other/blank.jpg"" style=""width: 300px; height: 300px;"" />
              </div>","null",""
"","","","","","html-keyboard-response","59","422685","0.0-59.0","7EA90EB783F2457A8B54CC38A648FAD2","fbe5db9b-e05d-4662-bdfe-a951c703a9d9","683bf07d-1a26-40b1-9cff-5abdc1eed0ee","","null","<div style=""display: flex; justify-content: center; align-items: center;"">
                <img src=""images/causal/causal_series_11/causal_series_11_a.jpg"" style=""width: 300px; height: 300px;"" />
              </div>","null",""
"","","","","","html-keyboard-response","60","425686","0.0-60.0","7EA90EB783F2457A8B54CC38A648FAD2","fbe5db9b-e05d-4662-bdfe-a951c703a9d9","683bf07d-1a26-40b1-9cff-5abdc1eed0ee","","null","<div style=""display: flex; justify-content: center; align-items: center;"">
                <img src=""images/causal/causal_series_11/causal_series_11_b.jpg"" style=""width: 300px; height: 300px;"" />
              </div>","null",""
"","","","","","html-keyboard-response","61","428695","0.0-61.0","7EA90EB783F2457A8B54CC38A648FAD2","fbe5db9b-e05d-4662-bdfe-a951c703a9d9","683bf07d-1a26-40b1-9cff-5abdc1eed0ee","","null","<div style=""display: flex; justify-content: center; align-items: center;"">
                <img src=""images/causal/causal_series_11/causal_series_11_c.jpg"" style=""width: 300px; height: 300px;"" />
              </div>","null",""
"","","","","","html-button-response","62","429777","0.0-62.0","7EA90EB783F2457A8B54CC38A648FAD2","fbe5db9b-e05d-4662-bdfe-a951c703a9d9","683bf07d-1a26-40b1-9cff-5abdc1eed0ee","","1081","
    <div style=""display: flex; justify-content: center; align-items: center;"">
      <img src=""images/red_deck_2.png"" style=""width: 300px; height: 300px; margin-right: 10px;"" />
      <img src=""images/blue_deck_1.png"" style=""width: 300px; height: 300px;"" />
    </div>","0","0"
"","","","","","html-keyboard-response","63","432788","0.0-63.0-0.0-0.0","7EA90EB783F2457A8B54CC38A648FAD2","fbe5db9b-e05d-4662-bdfe-a951c703a9d9","683bf07d-1a26-40b1-9cff-5abdc1eed0ee","","null","<div style=""display: flex; justify-content: center; align-items: center;"">
                <img src=""images/causal/causal_series_11/causal_series_11_d.jpg"" style=""width: 300px; height: 300px;"" />
              </div>","null",""
"","","","","","html-keyboard-response","64","435798","0.0-64.0","7EA90EB783F2457A8B54CC38A648FAD2","fbe5db9b-e05d-4662-bdfe-a951c703a9d9","683bf07d-1a26-40b1-9cff-5abdc1eed0ee","","null","<div style=""display: flex; justify-content: center; align-items: center;"">
                <img src=""images/other/blank.jpg"" style=""width: 300px; height: 300px;"" />
              </div>","null",""
"","","","","","html-keyboard-response","65","438803","0.0-65.0","7EA90EB783F2457A8B54CC38A648FAD2","fbe5db9b-e05d-4662-bdfe-a951c703a9d9","683bf07d-1a26-40b1-9cff-5abdc1eed0ee","","null","<div style=""display: flex; justify-content: center; align-items: center;"">
                <img src=""images/causal/causal_series_4/causal_series_4_a.jpg"" style=""width: 300px; height: 300px;"" />
              </div>","null",""
"","","","","","html-keyboard-response","66","441807","0.0-66.0","7EA90EB783F2457A8B54CC38A648FAD2","fbe5db9b-e05d-4662-bdfe-a951c703a9d9","683bf07d-1a26-40b1-9cff-5abdc1eed0ee","","null","<div style=""display: flex; justify-content: center; align-items: center;"">
                <img src=""images/causal/causal_series_4/causal_series_4_b.jpg"" style=""width: 300px; height: 300px;"" />
              </div>","null",""
"","","","","","html-keyboard-response","67","444808","0.0-67.0","7EA90EB783F2457A8B54CC38A648FAD2","fbe5db9b-e05d-4662-bdfe-a951c703a9d9","683bf07d-1a26-40b1-9cff-5abdc1eed0ee","","null","<div style=""display: flex; justify-content: center; align-items: center;"">
                <img src=""images/causal/causal_series_4/causal_series_4_c.jpg"" style=""width: 300px; height: 300px;"" />
              </div>","null",""
"","","","","","html-button-response","68","445814","0.0-68.0","7EA90EB783F2457A8B54CC38A648FAD2","fbe5db9b-e05d-4662-bdfe-a951c703a9d9","683bf07d-1a26-40b1-9cff-5abdc1eed0ee","","1005","
    <div style=""display: flex; justify-content: center; align-items: center;"">
      <img src=""images/red_deck_2.png"" style=""width: 300px; height: 300px; margin-right: 10px;"" />
      <img src=""images/blue_deck_1.png"" style=""width: 300px; height: 300px;"" />
    </div>","1","1"
"","","","","","html-keyboard-response","69","448824","0.0-69.0-1.0-0.0","7EA90EB783F2457A8B54CC38A648FAD2","fbe5db9b-e05d-4662-bdfe-a951c703a9d9","683bf07d-1a26-40b1-9cff-5abdc1eed0ee","","null","<div style=""display: flex; justify-content: center; align-items: center;"">
                <img src=""images/semantic/semantic_series_3/semantic_series_3_d.jpg"" style=""width: 300px; height: 300px;"" />
              </div>","null",""
"","","","","","html-keyboard-response","70","451832","0.0-70.0","7EA90EB783F2457A8B54CC38A648FAD2","fbe5db9b-e05d-4662-bdfe-a951c703a9d9","683bf07d-1a26-40b1-9cff-5abdc1eed0ee","","null","<div style=""display: flex; justify-content: center; align-items: center;"">
                <img src=""images/other/blank.jpg"" style=""width: 300px; height: 300px;"" />
              </div>","null",""
"","","","","","html-keyboard-response","71","454839","0.0-71.0","7EA90EB783F2457A8B54CC38A648FAD2","fbe5db9b-e05d-4662-bdfe-a951c703a9d9","683bf07d-1a26-40b1-9cff-5abdc1eed0ee","","null","<div style=""display: flex; justify-content: center; align-items: center;"">
                <img src=""images/causal/causal_series_9/causal_series_9_a.jpg"" style=""width: 300px; height: 300px;"" />
              </div>","null",""
"","","","","","html-keyboard-response","72","457852","0.0-72.0","7EA90EB783F2457A8B54CC38A648FAD2","fbe5db9b-e05d-4662-bdfe-a951c703a9d9","683bf07d-1a26-40b1-9cff-5abdc1eed0ee","","null","<div style=""display: flex; justify-content: center; align-items: center;"">
                <img src=""images/causal/causal_series_9/causal_series_9_b.jpg"" style=""width: 300px; height: 300px;"" />
              </div>","null",""
"","","","","","html-keyboard-response","73","460862","0.0-73.0","7EA90EB783F2457A8B54CC38A648FAD2","fbe5db9b-e05d-4662-bdfe-a951c703a9d9","683bf07d-1a26-40b1-9cff-5abdc1eed0ee","","null","<div style=""display: flex; justify-content: center; align-items: center;"">
                <img src=""images/causal/causal_series_9/causal_series_9_c.jpg"" style=""width: 300px; height: 300px;"" />
              </div>","null",""
"","","","","","html-button-response","74","462375","0.0-74.0","7EA90EB783F2457A8B54CC38A648FAD2","fbe5db9b-e05d-4662-bdfe-a951c703a9d9","683bf07d-1a26-40b1-9cff-5abdc1eed0ee","","1512","
    <div style=""display: flex; justify-content: center; align-items: center;"">
      <img src=""images/red_deck_2.png"" style=""width: 300px; height: 300px; margin-right: 10px;"" />
      <img src=""images/blue_deck_1.png"" style=""width: 300px; height: 300px;"" />
    </div>","1","1"
"","","","","","html-keyboard-response","75","465383","0.0-75.0-1.0-0.0","7EA90EB783F2457A8B54CC38A648FAD2","fbe5db9b-e05d-4662-bdfe-a951c703a9d9","683bf07d-1a26-40b1-9cff-5abdc1eed0ee","","null","<div style=""display: flex; justify-content: center; align-items: center;"">
                <img src=""images/semantic/semantic_series_8/semantic_series_8_d.jpg"" style=""width: 300px; height: 300px;"" />
              </div>","null",""
"","","","","","html-keyboard-response","76","468388","0.0-76.0","7EA90EB783F2457A8B54CC38A648FAD2","fbe5db9b-e05d-4662-bdfe-a951c703a9d9","683bf07d-1a26-40b1-9cff-5abdc1eed0ee","","null","<div style=""display: flex; justify-content: center; align-items: center;"">
                <img src=""images/other/blank.jpg"" style=""width: 300px; height: 300px;"" />
              </div>","null",""
"","","","","","html-keyboard-response","77","471402","0.0-77.0","7EA90EB783F2457A8B54CC38A648FAD2","fbe5db9b-e05d-4662-bdfe-a951c703a9d9","683bf07d-1a26-40b1-9cff-5abdc1eed0ee","","null","<div style=""display: flex; justify-content: center; align-items: center;"">
                <img src=""images/causal/causal_series_18/causal_series_18_a.jpg"" style=""width: 300px; height: 300px;"" />
              </div>","null",""
"","","","","","html-keyboard-response","78","474405","0.0-78.0","7EA90EB783F2457A8B54CC38A648FAD2","fbe5db9b-e05d-4662-bdfe-a951c703a9d9","683bf07d-1a26-40b1-9cff-5abdc1eed0ee","","null","<div style=""display: flex; justify-content: center; align-items: center;"">
                <img src=""images/causal/causal_series_18/causal_series_18_b.jpg"" style=""width: 300px; height: 300px;"" />
              </div>","null",""
"","","","","","html-keyboard-response","79","477415","0.0-79.0","7EA90EB783F2457A8B54CC38A648FAD2","fbe5db9b-e05d-4662-bdfe-a951c703a9d9","683bf07d-1a26-40b1-9cff-5abdc1eed0ee","","null","<div style=""display: flex; justify-content: center; align-items: center;"">
                <img src=""images/causal/causal_series_18/causal_series_18_c.jpg"" style=""width: 300px; height: 300px;"" />
              </div>","null",""
"","","","","","html-button-response","80","479304","0.0-80.0","7EA90EB783F2457A8B54CC38A648FAD2","fbe5db9b-e05d-4662-bdfe-a951c703a9d9","683bf07d-1a26-40b1-9cff-5abdc1eed0ee","","1888","
    <div style=""display: flex; justify-content: center; align-items: center;"">
      <img src=""images/red_deck_2.png"" style=""width: 300px; height: 300px; margin-right: 10px;"" />
      <img src=""images/blue_deck_1.png"" style=""width: 300px; height: 300px;"" />
    </div>","0","0"
"","","","","","html-keyboard-response","81","482307","0.0-81.0-0.0-0.0","7EA90EB783F2457A8B54CC38A648FAD2","fbe5db9b-e05d-4662-bdfe-a951c703a9d9","683bf07d-1a26-40b1-9cff-5abdc1eed0ee","","null","<div style=""display: flex; justify-content: center; align-items: center;"">
                <img src=""images/causal/causal_series_18/causal_series_18_d.jpg"" style=""width: 300px; height: 300px;"" />
              </div>","null",""
"","","","","","html-keyboard-response","82","485314","0.0-82.0","7EA90EB783F2457A8B54CC38A648FAD2","fbe5db9b-e05d-4662-bdfe-a951c703a9d9","683bf07d-1a26-40b1-9cff-5abdc1eed0ee","","null","<div style=""display: flex; justify-content: center; align-items: center;"">
                <img src=""images/other/blank.jpg"" style=""width: 300px; height: 300px;"" />
              </div>","null",""
"","","","","","html-keyboard-response","83","488325","0.0-83.0","7EA90EB783F2457A8B54CC38A648FAD2","fbe5db9b-e05d-4662-bdfe-a951c703a9d9","683bf07d-1a26-40b1-9cff-5abdc1eed0ee","","null","<div style=""display: flex; justify-content: center; align-items: center;"">
                <img src=""images/causal/causal_series_5/causal_series_5_a.jpg"" style=""width: 300px; height: 300px;"" />
              </div>","null",""
"","","","","","html-keyboard-response","84","491337","0.0-84.0","7EA90EB783F2457A8B54CC38A648FAD2","fbe5db9b-e05d-4662-bdfe-a951c703a9d9","683bf07d-1a26-40b1-9cff-5abdc1eed0ee","","null","<div style=""display: flex; justify-content: center; align-items: center;"">
                <img src=""images/causal/causal_series_5/causal_series_5_b.jpg"" style=""width: 300px; height: 300px;"" />
              </div>","null",""
"","","","","","html-keyboard-response","85","494349","0.0-85.0","7EA90EB783F2457A8B54CC38A648FAD2","fbe5db9b-e05d-4662-bdfe-a951c703a9d9","683bf07d-1a26-40b1-9cff-5abdc1eed0ee","","null","<div style=""display: flex; justify-content: center; align-items: center;"">
                <img src=""images/causal/causal_series_5/causal_series_5_c.jpg"" style=""width: 300px; height: 300px;"" />
              </div>","null",""
"","","","","","html-button-response","86","495731","0.0-86.0","7EA90EB783F2457A8B54CC38A648FAD2","fbe5db9b-e05d-4662-bdfe-a951c703a9d9","683bf07d-1a26-40b1-9cff-5abdc1eed0ee","","1382","
    <div style=""display: flex; justify-content: center; align-items: center;"">
      <img src=""images/red_deck_2.png"" style=""width: 300px; height: 300px; margin-right: 10px;"" />
      <img src=""images/blue_deck_1.png"" style=""width: 300px; height: 300px;"" />
    </div>","0","0"
"","","","","","html-keyboard-response","87","498738","0.0-87.0-0.0-0.0","7EA90EB783F2457A8B54CC38A648FAD2","fbe5db9b-e05d-4662-bdfe-a951c703a9d9","683bf07d-1a26-40b1-9cff-5abdc1eed0ee","","null","<div style=""display: flex; justify-content: center; align-items: center;"">
                <img src=""images/causal/causal_series_5/causal_series_5_d.jpg"" style=""width: 300px; height: 300px;"" />
              </div>","null",""
"","","","","","html-keyboard-response","88","501748","0.0-88.0","7EA90EB783F2457A8B54CC38A648FAD2","fbe5db9b-e05d-4662-bdfe-a951c703a9d9","683bf07d-1a26-40b1-9cff-5abdc1eed0ee","","null","<div style=""display: flex; justify-content: center; align-items: center;"">
                <img src=""images/other/blank.jpg"" style=""width: 300px; height: 300px;"" />
              </div>","null",""
"","","","","","html-keyboard-response","89","504756","0.0-89.0","7EA90EB783F2457A8B54CC38A648FAD2","fbe5db9b-e05d-4662-bdfe-a951c703a9d9","683bf07d-1a26-40b1-9cff-5abdc1eed0ee","","null","<div style=""display: flex; justify-content: center; align-items: center;"">
                <img src=""images/causal/causal_series_13/causal_series_13_a.jpg"" style=""width: 300px; height: 300px;"" />
              </div>","null",""
"","","","","","html-keyboard-response","90","507761","0.0-90.0","7EA90EB783F2457A8B54CC38A648FAD2","fbe5db9b-e05d-4662-bdfe-a951c703a9d9","683bf07d-1a26-40b1-9cff-5abdc1eed0ee","","null","<div style=""display: flex; justify-content: center; align-items: center;"">
                <img src=""images/causal/causal_series_13/causal_series_13_b.jpg"" style=""width: 300px; height: 300px;"" />
              </div>","null",""
"","","","","","html-keyboard-response","91","510763","0.0-91.0","7EA90EB783F2457A8B54CC38A648FAD2","fbe5db9b-e05d-4662-bdfe-a951c703a9d9","683bf07d-1a26-40b1-9cff-5abdc1eed0ee","","null","<div style=""display: flex; justify-content: center; align-items: center;"">
                <img src=""images/causal/causal_series_13/causal_series_13_c.jpg"" style=""width: 300px; height: 300px;"" />
              </div>","null",""
"","","","","","html-button-response","92","511868","0.0-92.0","7EA90EB783F2457A8B54CC38A648FAD2","fbe5db9b-e05d-4662-bdfe-a951c703a9d9","683bf07d-1a26-40b1-9cff-5abdc1eed0ee","","1105","
    <div style=""display: flex; justify-content: center; align-items: center;"">
      <img src=""images/red_deck_2.png"" style=""width: 300px; height: 300px; margin-right: 10px;"" />
      <img src=""images/blue_deck_1.png"" style=""width: 300px; height: 300px;"" />
    </div>","0","0"
"","","","","","html-keyboard-response","93","514872","0.0-93.0-0.0-0.0","7EA90EB783F2457A8B54CC38A648FAD2","fbe5db9b-e05d-4662-bdfe-a951c703a9d9","683bf07d-1a26-40b1-9cff-5abdc1eed0ee","","null","<div style=""display: flex; justify-content: center; align-items: center;"">
                <img src=""images/causal/causal_series_13/causal_series_13_d.jpg"" style=""width: 300px; height: 300px;"" />
              </div>","null",""
"","","","","","html-keyboard-response","94","517877","0.0-94.0","7EA90EB783F2457A8B54CC38A648FAD2","fbe5db9b-e05d-4662-bdfe-a951c703a9d9","683bf07d-1a26-40b1-9cff-5abdc1eed0ee","","null","<div style=""display: flex; justify-content: center; align-items: center;"">
                <img src=""images/other/blank.jpg"" style=""width: 300px; height: 300px;"" />
              </div>","null",""
"","","","","","html-keyboard-response","95","520892","0.0-95.0","7EA90EB783F2457A8B54CC38A648FAD2","fbe5db9b-e05d-4662-bdfe-a951c703a9d9","683bf07d-1a26-40b1-9cff-5abdc1eed0ee","","null","<div style=""display: flex; justify-content: center; align-items: center;"">
                <img src=""images/causal/causal_series_12/causal_series_12_a.jpg"" style=""width: 300px; height: 300px;"" />
              </div>","null",""
"","","","","","html-keyboard-response","96","523908","0.0-96.0","7EA90EB783F2457A8B54CC38A648FAD2","fbe5db9b-e05d-4662-bdfe-a951c703a9d9","683bf07d-1a26-40b1-9cff-5abdc1eed0ee","","null","<div style=""display: flex; justify-content: center; align-items: center;"">
                <img src=""images/causal/causal_series_12/causal_series_12_b.jpg"" style=""width: 300px; height: 300px;"" />
              </div>","null",""
"","","","","","html-keyboard-response","97","526919","0.0-97.0","7EA90EB783F2457A8B54CC38A648FAD2","fbe5db9b-e05d-4662-bdfe-a951c703a9d9","683bf07d-1a26-40b1-9cff-5abdc1eed0ee","","null","<div style=""display: flex; justify-content: center; align-items: center;"">
                <img src=""images/causal/causal_series_12/causal_series_12_c.jpg"" style=""width: 300px; height: 300px;"" />
              </div>","null",""
"","","","","","html-button-response","98","529317","0.0-98.0","7EA90EB783F2457A8B54CC38A648FAD2","fbe5db9b-e05d-4662-bdfe-a951c703a9d9","683bf07d-1a26-40b1-9cff-5abdc1eed0ee","","2397","
    <div style=""display: flex; justify-content: center; align-items: center;"">
      <img src=""images/red_deck_2.png"" style=""width: 300px; height: 300px; margin-right: 10px;"" />
      <img src=""images/blue_deck_1.png"" style=""width: 300px; height: 300px;"" />
    </div>","0","0"
"","","","","","html-keyboard-response","99","532327","0.0-99.0-0.0-0.0","7EA90EB783F2457A8B54CC38A648FAD2","fbe5db9b-e05d-4662-bdfe-a951c703a9d9","683bf07d-1a26-40b1-9cff-5abdc1eed0ee","","null","<div style=""display: flex; justify-content: center; align-items: center;"">
                <img src=""images/causal/causal_series_12/causal_series_12_d.jpg"" style=""width: 300px; height: 300px;"" />
              </div>","null",""
"","","","","","html-keyboard-response","100","535334","0.0-100.0","7EA90EB783F2457A8B54CC38A648FAD2","fbe5db9b-e05d-4662-bdfe-a951c703a9d9","683bf07d-1a26-40b1-9cff-5abdc1eed0ee","","null","<div style=""display: flex; justify-content: center; align-items: center;"">
                <img src=""images/other/blank.jpg"" style=""width: 300px; height: 300px;"" />
              </div>","null",""
"","","","","","html-keyboard-response","101","538341","0.0-101.0","7EA90EB783F2457A8B54CC38A648FAD2","fbe5db9b-e05d-4662-bdfe-a951c703a9d9","683bf07d-1a26-40b1-9cff-5abdc1eed0ee","","null","<div style=""display: flex; justify-content: center; align-items: center;"">
                <img src=""images/causal/causal_series_16/causal_series_16_a.jpg"" style=""width: 300px; height: 300px;"" />
              </div>","null",""
"","","","","","html-keyboard-response","102","541355","0.0-102.0","7EA90EB783F2457A8B54CC38A648FAD2","fbe5db9b-e05d-4662-bdfe-a951c703a9d9","683bf07d-1a26-40b1-9cff-5abdc1eed0ee","","null","<div style=""display: flex; justify-content: center; align-items: center;"">
                <img src=""images/causal/causal_series_16/causal_series_16_b.jpg"" style=""width: 300px; height: 300px;"" />
              </div>","null",""
"","","","","","html-keyboard-response","103","544358","0.0-103.0","7EA90EB783F2457A8B54CC38A648FAD2","fbe5db9b-e05d-4662-bdfe-a951c703a9d9","683bf07d-1a26-40b1-9cff-5abdc1eed0ee","","null","<div style=""display: flex; justify-content: center; align-items: center;"">
                <img src=""images/causal/causal_series_16/causal_series_16_c.jpg"" style=""width: 300px; height: 300px;"" />
              </div>","null",""
"","","","","","html-button-response","104","546097","0.0-104.0","7EA90EB783F2457A8B54CC38A648FAD2","fbe5db9b-e05d-4662-bdfe-a951c703a9d9","683bf07d-1a26-40b1-9cff-5abdc1eed0ee","","1738","
    <div style=""display: flex; justify-content: center; align-items: center;"">
      <img src=""images/red_deck_2.png"" style=""width: 300px; height: 300px; margin-right: 10px;"" />
      <img src=""images/blue_deck_1.png"" style=""width: 300px; height: 300px;"" />
    </div>","0","0"
"","","","","","html-keyboard-response","105","549103","0.0-105.0-0.0-0.0","7EA90EB783F2457A8B54CC38A648FAD2","fbe5db9b-e05d-4662-bdfe-a951c703a9d9","683bf07d-1a26-40b1-9cff-5abdc1eed0ee","","null","<div style=""display: flex; justify-content: center; align-items: center;"">
                <img src=""images/causal/causal_series_16/causal_series_16_d.jpg"" style=""width: 300px; height: 300px;"" />
              </div>","null",""
"","","","","","html-keyboard-response","106","552111","0.0-106.0","7EA90EB783F2457A8B54CC38A648FAD2","fbe5db9b-e05d-4662-bdfe-a951c703a9d9","683bf07d-1a26-40b1-9cff-5abdc1eed0ee","","null","<div style=""display: flex; justify-content: center; align-items: center;"">
                <img src=""images/other/blank.jpg"" style=""width: 300px; height: 300px;"" />
              </div>","null",""
"","","","","","html-keyboard-response","107","555112","0.0-107.0","7EA90EB783F2457A8B54CC38A648FAD2","fbe5db9b-e05d-4662-bdfe-a951c703a9d9","683bf07d-1a26-40b1-9cff-5abdc1eed0ee","","null","<div style=""display: flex; justify-content: center; align-items: center;"">
                <img src=""images/causal/causal_series_14/causal_series_14_a.jpg"" style=""width: 300px; height: 300px;"" />
              </div>","null",""
"","","","","","html-keyboard-response","108","558118","0.0-108.0","7EA90EB783F2457A8B54CC38A648FAD2","fbe5db9b-e05d-4662-bdfe-a951c703a9d9","683bf07d-1a26-40b1-9cff-5abdc1eed0ee","","null","<div style=""display: flex; justify-content: center; align-items: center;"">
                <img src=""images/causal/causal_series_14/causal_series_14_b.jpg"" style=""width: 300px; height: 300px;"" />
              </div>","null",""
"","","","","","html-keyboard-response","109","561131","0.0-109.0","7EA90EB783F2457A8B54CC38A648FAD2","fbe5db9b-e05d-4662-bdfe-a951c703a9d9","683bf07d-1a26-40b1-9cff-5abdc1eed0ee","","null","<div style=""display: flex; justify-content: center; align-items: center;"">
                <img src=""images/causal/causal_series_14/causal_series_14_c.jpg"" style=""width: 300px; height: 300px;"" />
              </div>","null",""
"","","","","","html-button-response","110","568199","0.0-110.0","7EA90EB783F2457A8B54CC38A648FAD2","fbe5db9b-e05d-4662-bdfe-a951c703a9d9","683bf07d-1a26-40b1-9cff-5abdc1eed0ee","","7067","
    <div style=""display: flex; justify-content: center; align-items: center;"">
      <img src=""images/red_deck_2.png"" style=""width: 300px; height: 300px; margin-right: 10px;"" />
      <img src=""images/blue_deck_1.png"" style=""width: 300px; height: 300px;"" />
    </div>","0","0"
"","","","","","html-keyboard-response","111","571203","0.0-111.0-0.0-0.0","7EA90EB783F2457A8B54CC38A648FAD2","fbe5db9b-e05d-4662-bdfe-a951c703a9d9","683bf07d-1a26-40b1-9cff-5abdc1eed0ee","","null","<div style=""display: flex; justify-content: center; align-items: center;"">
                <img src=""images/causal/causal_series_14/causal_series_14_d.jpg"" style=""width: 300px; height: 300px;"" />
              </div>","null",""
"","","","","","html-keyboard-response","112","574215","0.0-112.0","7EA90EB783F2457A8B54CC38A648FAD2","fbe5db9b-e05d-4662-bdfe-a951c703a9d9","683bf07d-1a26-40b1-9cff-5abdc1eed0ee","","null","<div style=""display: flex; justify-content: center; align-items: center;"">
                <img src=""images/other/blank.jpg"" style=""width: 300px; height: 300px;"" />
              </div>","null",""
"","","","","","survey-text","113","581845","0.0-113.0","7EA90EB783F2457A8B54CC38A648FAD2","fbe5db9b-e05d-4662-bdfe-a951c703a9d9","683bf07d-1a26-40b1-9cff-5abdc1eed0ee","","7626","","{""Q0"":""No, I can not.""}",""
"","","","","","survey-text","114","595202","0.0-114.0","7EA90EB783F2457A8B54CC38A648FAD2","fbe5db9b-e05d-4662-bdfe-a951c703a9d9","683bf07d-1a26-40b1-9cff-5abdc1eed0ee","","13355","","{""Q0"":""I didn't feel like there was a difference. ""}",""
"","","","","","html-button-response","115","607336","0.0-115.0","7EA90EB783F2457A8B54CC38A648FAD2","fbe5db9b-e05d-4662-bdfe-a951c703a9d9","683bf07d-1a26-40b1-9cff-5abdc1eed0ee","","12133","Which color deck does the fourth image continue the story from the series?","1",""
"","","","","","html-button-response","116","609650","0.0-116.0","7EA90EB783F2457A8B54CC38A648FAD2","fbe5db9b-e05d-4662-bdfe-a951c703a9d9","683bf07d-1a26-40b1-9cff-5abdc1eed0ee","","2313","Which color deck does the fourth image not follow the story from the series?","0",""
"","","","","","survey-text","117","616412","0.0-117.0","7EA90EB783F2457A8B54CC38A648FAD2","fbe5db9b-e05d-4662-bdfe-a951c703a9d9","683bf07d-1a26-40b1-9cff-5abdc1eed0ee","","6759","","{""Q0"":""Female"",""Q1"":""18""}",""
"","","","","","instructions","118","622108","0.0-118.0","7EA90EB783F2457A8B54CC38A648FAD2","fbe5db9b-e05d-4662-bdfe-a951c703a9d9","683bf07d-1a26-40b1-9cff-5abdc1eed0ee","[{""page_index"":0,""viewing_time"":5696}]","5696","","",""
