"success","timeout","failed_images","failed_audio","failed_video","trial_type","trial_index","time_elapsed","internal_node_id","subject_id","study_id","session_id","view_history","rt","stimulus","response","series","repetition","phase","choice","question_order"
"true","false","[]","[]","[]","preload","0","306","0.0-0.0","72E80D34D4AB45F09881B1CBF1A3F231","0199d68e-6ca6-706a-bf4f-be53279c91a9","0199d675-8795-765b-adc2-c813de8cd3d1","","","","","","","","",""
"","","","","","instructions","1","1448","0.0-1.0","72E80D34D4AB45F09881B1CBF1A3F231","0199d68e-6ca6-706a-bf4f-be53279c91a9","0199d675-8795-765b-adc2-c813de8cd3d1","[{""page_index"":0,""viewing_time"":1140}]","1141","","","","","","",""
"","","","","","instructions","2","3912","0.0-2.0","72E80D34D4AB45F09881B1CBF1A3F231","0199d68e-6ca6-706a-bf4f-be53279c91a9","0199d675-8795-765b-adc2-c813de8cd3d1","[{""page_index"":0,""viewing_time"":2463}]","2464","","","","","","",""
"true","","","","","fullscreen","3","6139","0.0-3.0","72E80D34D4AB45F09881B1CBF1A3F231","0199d68e-6ca6-706a-bf4f-be53279c91a9","0199d675-8795-765b-adc2-c813de8cd3d1","","1212","","","","","","",""
"","","","","","instructions","4","10777","0.0-4.0","72E80D34D4AB45F09881B1CBF1A3F231","0199d68e-6ca6-706a-bf4f-be53279c91a9","0199d675-8795-765b-adc2-c813de8cd3d1","[{""page_index"":0,""viewing_time"":4636}]","4637","","","","","","",""
"","","","","","html-keyboard-response","5","16781","0.0-5.0","72E80D34D4AB45F09881B1CBF1A3F231","0199d68e-6ca6-706a-bf4f-be53279c91a9","0199d675-8795-765b-adc2-c813de8cd3d1","","null","<div style=""display: flex; justify-content: center; align-items: center;"">
                     <img src=""images/causal/causal_series_9/causal_series_9_a.png"" style=""width: 300px; height: 300px;"" />
                   </div>","null","9","2","A","",""
"","","","","","html-button-response","6","20368","0.0-6.0","72E80D34D4AB45F09881B1CBF1A3F231","0199d68e-6ca6-706a-bf4f-be53279c91a9","0199d675-8795-765b-adc2-c813de8cd3d1","","3585","
        <div style=""display: flex; justify-content: center; align-items: center;"">
          <img src=""images/red_deck_2.png"" style=""width: 300px; height: 300px; margin-right: 10px;"" />
          <img src=""images/blue_deck_1.png"" style=""width: 300px; height: 300px;"" />
        </div>","0","9","2","choice","0",""
"","","","","","html-keyboard-response","7","26382","0.0-7.0-0.0-0.0","72E80D34D4AB45F09881B1CBF1A3F231","0199d68e-6ca6-706a-bf4f-be53279c91a9","0199d675-8795-765b-adc2-c813de8cd3d1","","null","<div style=""display: flex; justify-content: center; align-items: center;"">
                     <img src=""images/causal/causal_series_9/causal_series_9_b.png"" style=""width: 300px; height: 300px;"" />
                   </div>","null","9","2","B","",""
"","","","","","html-keyboard-response","8","32390","0.0-7.0-0.0-1.0","72E80D34D4AB45F09881B1CBF1A3F231","0199d68e-6ca6-706a-bf4f-be53279c91a9","0199d675-8795-765b-adc2-c813de8cd3d1","","null","<div style=""display: flex; justify-content: center; align-items: center;"">
                     <img src=""images/causal/causal_series_9/causal_series_9_c.png"" style=""width: 300px; height: 300px;"" />
                   </div>","null","9","2","C","",""
"","","","","","html-keyboard-response","9","38406","0.0-7.0-0.0-2.0","72E80D34D4AB45F09881B1CBF1A3F231","0199d68e-6ca6-706a-bf4f-be53279c91a9","0199d675-8795-765b-adc2-c813de8cd3d1","","null","<div style=""display: flex; justify-content: center; align-items: center;"">
                     <img src=""images/causal/causal_series_9/causal_series_9_d.png"" style=""width: 300px; height: 300px;"" />
                   </div>","null","9","2","D","",""
"","","","","","survey-likert","10","40789","0.0-8.0","72E80D34D4AB45F09881B1CBF1A3F231","0199d68e-6ca6-706a-bf4f-be53279c91a9","0199d675-8795-765b-adc2-c813de8cd3d1","","2380","","{""Q0"":3}","9","2","surprise_rating","","[0]"
"","","","","","survey-likert","11","44052","0.0-9.0","72E80D34D4AB45F09881B1CBF1A3F231","0199d68e-6ca6-706a-bf4f-be53279c91a9","0199d675-8795-765b-adc2-c813de8cd3d1","","3262","","{""Q0"":2}","9","2","enjoyment_rating","","[0]"
"","","","","","html-keyboard-response","12","50264","0.0-10.0","72E80D34D4AB45F09881B1CBF1A3F231","0199d68e-6ca6-706a-bf4f-be53279c91a9","0199d675-8795-765b-adc2-c813de8cd3d1","","null","<div style=""display: flex; justify-content: center; align-items: center;"">
                     <img src=""images/other/blank.png"" style=""width: 300px; height: 300px;"" />
                   </div>","null","0","0","blank","",""
"","","","","","html-keyboard-response","13","57267","0.0-11.0","72E80D34D4AB45F09881B1CBF1A3F231","0199d68e-6ca6-706a-bf4f-be53279c91a9","0199d675-8795-765b-adc2-c813de8cd3d1","","null","<div style=""display: flex; justify-content: center; align-items: center;"">
                     <img src=""images/causal/causal_series_4/causal_series_4_a.png"" style=""width: 300px; height: 300px;"" />
                   </div>","null","4","2","A","",""
"","","","","","html-button-response","14","64540","0.0-12.0","72E80D34D4AB45F09881B1CBF1A3F231","0199d68e-6ca6-706a-bf4f-be53279c91a9","0199d675-8795-765b-adc2-c813de8cd3d1","","7272","
        <div style=""display: flex; justify-content: center; align-items: center;"">
          <img src=""images/red_deck_2.png"" style=""width: 300px; height: 300px; margin-right: 10px;"" />
          <img src=""images/blue_deck_1.png"" style=""width: 300px; height: 300px;"" />
        </div>","0","4","2","choice","0",""
"","","","","","html-keyboard-response","15","70542","0.0-13.0-0.0-0.0","72E80D34D4AB45F09881B1CBF1A3F231","0199d68e-6ca6-706a-bf4f-be53279c91a9","0199d675-8795-765b-adc2-c813de8cd3d1","","null","<div style=""display: flex; justify-content: center; align-items: center;"">
                     <img src=""images/causal/causal_series_4/causal_series_4_b.png"" style=""width: 300px; height: 300px;"" />
                   </div>","null","4","2","B","",""
"","","","","","html-keyboard-response","16","76546","0.0-13.0-0.0-1.0","72E80D34D4AB45F09881B1CBF1A3F231","0199d68e-6ca6-706a-bf4f-be53279c91a9","0199d675-8795-765b-adc2-c813de8cd3d1","","null","<div style=""display: flex; justify-content: center; align-items: center;"">
                     <img src=""images/causal/causal_series_4/causal_series_4_c.png"" style=""width: 300px; height: 300px;"" />
                   </div>","null","4","2","C","",""
"","","","","","html-keyboard-response","17","82559","0.0-13.0-0.0-2.0","72E80D34D4AB45F09881B1CBF1A3F231","0199d68e-6ca6-706a-bf4f-be53279c91a9","0199d675-8795-765b-adc2-c813de8cd3d1","","null","<div style=""display: flex; justify-content: center; align-items: center;"">
                     <img src=""images/causal/causal_series_4/causal_series_4_d.png"" style=""width: 300px; height: 300px;"" />
                   </div>","null","4","2","D","",""
"","","","","","survey-likert","18","84879","0.0-14.0","72E80D34D4AB45F09881B1CBF1A3F231","0199d68e-6ca6-706a-bf4f-be53279c91a9","0199d675-8795-765b-adc2-c813de8cd3d1","","2319","","{""Q0"":3}","4","2","surprise_rating","","[0]"
"","","","","","survey-likert","19","86794","0.0-15.0","72E80D34D4AB45F09881B1CBF1A3F231","0199d68e-6ca6-706a-bf4f-be53279c91a9","0199d675-8795-765b-adc2-c813de8cd3d1","","1913","","{""Q0"":2}","4","2","enjoyment_rating","","[0]"
"","","","","","html-keyboard-response","20","92806","0.0-16.0","72E80D34D4AB45F09881B1CBF1A3F231","0199d68e-6ca6-706a-bf4f-be53279c91a9","0199d675-8795-765b-adc2-c813de8cd3d1","","null","<div style=""display: flex; justify-content: center; align-items: center;"">
                     <img src=""images/other/blank.png"" style=""width: 300px; height: 300px;"" />
                   </div>","null","0","0","blank","",""
"","","","","","html-keyboard-response","21","98810","0.0-17.0","72E80D34D4AB45F09881B1CBF1A3F231","0199d68e-6ca6-706a-bf4f-be53279c91a9","0199d675-8795-765b-adc2-c813de8cd3d1","","null","<div style=""display: flex; justify-content: center; align-items: center;"">
                     <img src=""images/causal/causal_series_6/causal_series_6_a.png"" style=""width: 300px; height: 300px;"" />
                   </div>","null","6","2","A","",""
"","","","","","html-button-response","22","100340","0.0-18.0","72E80D34D4AB45F09881B1CBF1A3F231","0199d68e-6ca6-706a-bf4f-be53279c91a9","0199d675-8795-765b-adc2-c813de8cd3d1","","1529","
        <div style=""display: flex; justify-content: center; align-items: center;"">
          <img src=""images/red_deck_2.png"" style=""width: 300px; height: 300px; margin-right: 10px;"" />
          <img src=""images/blue_deck_1.png"" style=""width: 300px; height: 300px;"" />
        </div>","1","6","2","choice","1",""
"","","","","","html-keyboard-response","23","107261","0.0-19.0-1.0-0.0","72E80D34D4AB45F09881B1CBF1A3F231","0199d68e-6ca6-706a-bf4f-be53279c91a9","0199d675-8795-765b-adc2-c813de8cd3d1","","null","<div style=""display: flex; justify-content: center; align-items: center;"">
                     <img src=""images/semantic/semantic_series_6/semantic_series_6_b.png"" style=""width: 300px; height: 300px;"" />
                   </div>","null","6","2","B","",""
"","","","","","html-keyboard-response","24","113272","0.0-19.0-1.0-1.0","72E80D34D4AB45F09881B1CBF1A3F231","0199d68e-6ca6-706a-bf4f-be53279c91a9","0199d675-8795-765b-adc2-c813de8cd3d1","","null","<div style=""display: flex; justify-content: center; align-items: center;"">
                     <img src=""images/semantic/semantic_series_6/semantic_series_6_c.png"" style=""width: 300px; height: 300px;"" />
                   </div>","null","6","2","C","",""
"","","","","","html-keyboard-response","25","119275","0.0-19.0-1.0-2.0","72E80D34D4AB45F09881B1CBF1A3F231","0199d68e-6ca6-706a-bf4f-be53279c91a9","0199d675-8795-765b-adc2-c813de8cd3d1","","null","<div style=""display: flex; justify-content: center; align-items: center;"">
                     <img src=""images/semantic/semantic_series_6/semantic_series_6_d.png"" style=""width: 300px; height: 300px;"" />
                   </div>","null","6","2","D","",""
"","","","","","survey-likert","26","121651","0.0-20.0","72E80D34D4AB45F09881B1CBF1A3F231","0199d68e-6ca6-706a-bf4f-be53279c91a9","0199d675-8795-765b-adc2-c813de8cd3d1","","2375","","{""Q0"":1}","6","2","surprise_rating","","[0]"
"","","","","","survey-likert","27","124130","0.0-21.0","72E80D34D4AB45F09881B1CBF1A3F231","0199d68e-6ca6-706a-bf4f-be53279c91a9","0199d675-8795-765b-adc2-c813de8cd3d1","","2478","","{""Q0"":1}","6","2","enjoyment_rating","","[0]"
"","","","","","html-keyboard-response","28","130142","0.0-22.0","72E80D34D4AB45F09881B1CBF1A3F231","0199d68e-6ca6-706a-bf4f-be53279c91a9","0199d675-8795-765b-adc2-c813de8cd3d1","","null","<div style=""display: flex; justify-content: center; align-items: center;"">
                     <img src=""images/other/blank.png"" style=""width: 300px; height: 300px;"" />
                   </div>","null","0","0","blank","",""
"","","","","","html-keyboard-response","29","136155","0.0-23.0","72E80D34D4AB45F09881B1CBF1A3F231","0199d68e-6ca6-706a-bf4f-be53279c91a9","0199d675-8795-765b-adc2-c813de8cd3d1","","null","<div style=""display: flex; justify-content: center; align-items: center;"">
                     <img src=""images/causal/causal_series_2/causal_series_2_a.png"" style=""width: 300px; height: 300px;"" />
                   </div>","null","2","2","A","",""
"","","","","","html-button-response","30","143801","0.0-24.0","72E80D34D4AB45F09881B1CBF1A3F231","0199d68e-6ca6-706a-bf4f-be53279c91a9","0199d675-8795-765b-adc2-c813de8cd3d1","","7645","
        <div style=""display: flex; justify-content: center; align-items: center;"">
          <img src=""images/red_deck_2.png"" style=""width: 300px; height: 300px; margin-right: 10px;"" />
          <img src=""images/blue_deck_1.png"" style=""width: 300px; height: 300px;"" />
        </div>","0","2","2","choice","0",""
"","","","","","html-keyboard-response","31","149817","0.0-25.0-0.0-0.0","72E80D34D4AB45F09881B1CBF1A3F231","0199d68e-6ca6-706a-bf4f-be53279c91a9","0199d675-8795-765b-adc2-c813de8cd3d1","","null","<div style=""display: flex; justify-content: center; align-items: center;"">
                     <img src=""images/causal/causal_series_2/causal_series_2_b.png"" style=""width: 300px; height: 300px;"" />
                   </div>","null","2","2","B","",""
"","","","","","html-keyboard-response","32","155826","0.0-25.0-0.0-1.0","72E80D34D4AB45F09881B1CBF1A3F231","0199d68e-6ca6-706a-bf4f-be53279c91a9","0199d675-8795-765b-adc2-c813de8cd3d1","","null","<div style=""display: flex; justify-content: center; align-items: center;"">
                     <img src=""images/causal/causal_series_2/causal_series_2_c.png"" style=""width: 300px; height: 300px;"" />
                   </div>","null","2","2","C","",""
"","","","","","html-keyboard-response","33","161837","0.0-25.0-0.0-2.0","72E80D34D4AB45F09881B1CBF1A3F231","0199d68e-6ca6-706a-bf4f-be53279c91a9","0199d675-8795-765b-adc2-c813de8cd3d1","","null","<div style=""display: flex; justify-content: center; align-items: center;"">
                     <img src=""images/causal/causal_series_2/causal_series_2_d.png"" style=""width: 300px; height: 300px;"" />
                   </div>","null","2","2","D","",""
"","","","","","survey-likert","34","167924","0.0-26.0","72E80D34D4AB45F09881B1CBF1A3F231","0199d68e-6ca6-706a-bf4f-be53279c91a9","0199d675-8795-765b-adc2-c813de8cd3d1","","6086","","{""Q0"":2}","2","2","surprise_rating","","[0]"
"","","","","","survey-likert","35","170725","0.0-27.0","72E80D34D4AB45F09881B1CBF1A3F231","0199d68e-6ca6-706a-bf4f-be53279c91a9","0199d675-8795-765b-adc2-c813de8cd3d1","","2800","","{""Q0"":3}","2","2","enjoyment_rating","","[0]"
"","","","","","html-keyboard-response","36","176727","0.0-28.0","72E80D34D4AB45F09881B1CBF1A3F231","0199d68e-6ca6-706a-bf4f-be53279c91a9","0199d675-8795-765b-adc2-c813de8cd3d1","","null","<div style=""display: flex; justify-content: center; align-items: center;"">
                     <img src=""images/other/blank.png"" style=""width: 300px; height: 300px;"" />
                   </div>","null","0","0","blank","",""
"","","","","","html-keyboard-response","37","182744","0.0-29.0","72E80D34D4AB45F09881B1CBF1A3F231","0199d68e-6ca6-706a-bf4f-be53279c91a9","0199d675-8795-765b-adc2-c813de8cd3d1","","null","<div style=""display: flex; justify-content: center; align-items: center;"">
                     <img src=""images/causal/causal_series_4/causal_series_4_a.png"" style=""width: 300px; height: 300px;"" />
                   </div>","null","4","1","A","",""
"","","","","","html-button-response","38","189812","0.0-30.0","72E80D34D4AB45F09881B1CBF1A3F231","0199d68e-6ca6-706a-bf4f-be53279c91a9","0199d675-8795-765b-adc2-c813de8cd3d1","","7067","
        <div style=""display: flex; justify-content: center; align-items: center;"">
          <img src=""images/red_deck_2.png"" style=""width: 300px; height: 300px; margin-right: 10px;"" />
          <img src=""images/blue_deck_1.png"" style=""width: 300px; height: 300px;"" />
        </div>","0","4","1","choice","0",""
"","","","","","html-keyboard-response","39","195814","0.0-31.0-0.0-0.0","72E80D34D4AB45F09881B1CBF1A3F231","0199d68e-6ca6-706a-bf4f-be53279c91a9","0199d675-8795-765b-adc2-c813de8cd3d1","","null","<div style=""display: flex; justify-content: center; align-items: center;"">
                     <img src=""images/causal/causal_series_4/causal_series_4_b.png"" style=""width: 300px; height: 300px;"" />
                   </div>","null","4","1","B","",""
"","","","","","html-keyboard-response","40","201829","0.0-31.0-0.0-1.0","72E80D34D4AB45F09881B1CBF1A3F231","0199d68e-6ca6-706a-bf4f-be53279c91a9","0199d675-8795-765b-adc2-c813de8cd3d1","","null","<div style=""display: flex; justify-content: center; align-items: center;"">
                     <img src=""images/causal/causal_series_4/causal_series_4_c.png"" style=""width: 300px; height: 300px;"" />
                   </div>","null","4","1","C","",""
"","","","","","html-keyboard-response","41","207843","0.0-31.0-0.0-2.0","72E80D34D4AB45F09881B1CBF1A3F231","0199d68e-6ca6-706a-bf4f-be53279c91a9","0199d675-8795-765b-adc2-c813de8cd3d1","","null","<div style=""display: flex; justify-content: center; align-items: center;"">
                     <img src=""images/causal/causal_series_4/causal_series_4_d.png"" style=""width: 300px; height: 300px;"" />
                   </div>","null","4","1","D","",""
"","","","","","survey-likert","42","214052","0.0-32.0","72E80D34D4AB45F09881B1CBF1A3F231","0199d68e-6ca6-706a-bf4f-be53279c91a9","0199d675-8795-765b-adc2-c813de8cd3d1","","6208","","{""Q0"":3}","4","1","surprise_rating","","[0]"
"","","","","","survey-likert","43","215602","0.0-33.0","72E80D34D4AB45F09881B1CBF1A3F231","0199d68e-6ca6-706a-bf4f-be53279c91a9","0199d675-8795-765b-adc2-c813de8cd3d1","","1549","","{""Q0"":2}","4","1","enjoyment_rating","","[0]"
"","","","","","html-keyboard-response","44","221614","0.0-34.0","72E80D34D4AB45F09881B1CBF1A3F231","0199d68e-6ca6-706a-bf4f-be53279c91a9","0199d675-8795-765b-adc2-c813de8cd3d1","","null","<div style=""display: flex; justify-content: center; align-items: center;"">
                     <img src=""images/other/blank.png"" style=""width: 300px; height: 300px;"" />
                   </div>","null","0","0","blank","",""
"","","","","","html-keyboard-response","45","227627","0.0-35.0","72E80D34D4AB45F09881B1CBF1A3F231","0199d68e-6ca6-706a-bf4f-be53279c91a9","0199d675-8795-765b-adc2-c813de8cd3d1","","null","<div style=""display: flex; justify-content: center; align-items: center;"">
                     <img src=""images/causal/causal_series_6/causal_series_6_a.png"" style=""width: 300px; height: 300px;"" />
                   </div>","null","6","1","A","",""
"","","","","","html-button-response","46","229622","0.0-36.0","72E80D34D4AB45F09881B1CBF1A3F231","0199d68e-6ca6-706a-bf4f-be53279c91a9","0199d675-8795-765b-adc2-c813de8cd3d1","","1994","
        <div style=""display: flex; justify-content: center; align-items: center;"">
          <img src=""images/red_deck_2.png"" style=""width: 300px; height: 300px; margin-right: 10px;"" />
          <img src=""images/blue_deck_1.png"" style=""width: 300px; height: 300px;"" />
        </div>","1","6","1","choice","1",""
"","","","","","html-keyboard-response","47","235625","0.0-37.0-1.0-0.0","72E80D34D4AB45F09881B1CBF1A3F231","0199d68e-6ca6-706a-bf4f-be53279c91a9","0199d675-8795-765b-adc2-c813de8cd3d1","","null","<div style=""display: flex; justify-content: center; align-items: center;"">
                     <img src=""images/semantic/semantic_series_6/semantic_series_6_b.png"" style=""width: 300px; height: 300px;"" />
                   </div>","null","6","1","B","",""
"","","","","","html-keyboard-response","48","241632","0.0-37.0-1.0-1.0","72E80D34D4AB45F09881B1CBF1A3F231","0199d68e-6ca6-706a-bf4f-be53279c91a9","0199d675-8795-765b-adc2-c813de8cd3d1","","null","<div style=""display: flex; justify-content: center; align-items: center;"">
                     <img src=""images/semantic/semantic_series_6/semantic_series_6_c.png"" style=""width: 300px; height: 300px;"" />
                   </div>","null","6","1","C","",""
"","","","","","html-keyboard-response","49","247634","0.0-37.0-1.0-2.0","72E80D34D4AB45F09881B1CBF1A3F231","0199d68e-6ca6-706a-bf4f-be53279c91a9","0199d675-8795-765b-adc2-c813de8cd3d1","","null","<div style=""display: flex; justify-content: center; align-items: center;"">
                     <img src=""images/semantic/semantic_series_6/semantic_series_6_d.png"" style=""width: 300px; height: 300px;"" />
                   </div>","null","6","1","D","",""
"","","","","","survey-likert","50","249543","0.0-38.0","72E80D34D4AB45F09881B1CBF1A3F231","0199d68e-6ca6-706a-bf4f-be53279c91a9","0199d675-8795-765b-adc2-c813de8cd3d1","","1909","","{""Q0"":1}","6","1","surprise_rating","","[0]"
"","","","","","survey-likert","51","251870","0.0-39.0","72E80D34D4AB45F09881B1CBF1A3F231","0199d68e-6ca6-706a-bf4f-be53279c91a9","0199d675-8795-765b-adc2-c813de8cd3d1","","2326","","{""Q0"":1}","6","1","enjoyment_rating","","[0]"
"","","","","","html-keyboard-response","52","257887","0.0-40.0","72E80D34D4AB45F09881B1CBF1A3F231","0199d68e-6ca6-706a-bf4f-be53279c91a9","0199d675-8795-765b-adc2-c813de8cd3d1","","null","<div style=""display: flex; justify-content: center; align-items: center;"">
                     <img src=""images/other/blank.png"" style=""width: 300px; height: 300px;"" />
                   </div>","null","0","0","blank","",""
"","","","","","html-keyboard-response","53","263897","0.0-41.0","72E80D34D4AB45F09881B1CBF1A3F231","0199d68e-6ca6-706a-bf4f-be53279c91a9","0199d675-8795-765b-adc2-c813de8cd3d1","","null","<div style=""display: flex; justify-content: center; align-items: center;"">
                     <img src=""images/causal/causal_series_3/causal_series_3_a.png"" style=""width: 300px; height: 300px;"" />
                   </div>","null","3","2","A","",""
"","","","","","html-button-response","54","265469","0.0-42.0","72E80D34D4AB45F09881B1CBF1A3F231","0199d68e-6ca6-706a-bf4f-be53279c91a9","0199d675-8795-765b-adc2-c813de8cd3d1","","1571","
        <div style=""display: flex; justify-content: center; align-items: center;"">
          <img src=""images/red_deck_2.png"" style=""width: 300px; height: 300px; margin-right: 10px;"" />
          <img src=""images/blue_deck_1.png"" style=""width: 300px; height: 300px;"" />
        </div>","1","3","2","choice","1",""
"","","","","","html-keyboard-response","55","271476","0.0-43.0-1.0-0.0","72E80D34D4AB45F09881B1CBF1A3F231","0199d68e-6ca6-706a-bf4f-be53279c91a9","0199d675-8795-765b-adc2-c813de8cd3d1","","null","<div style=""display: flex; justify-content: center; align-items: center;"">
                     <img src=""images/semantic/semantic_series_3/semantic_series_3_b.png"" style=""width: 300px; height: 300px;"" />
                   </div>","null","3","2","B","",""
"","","","","","html-keyboard-response","56","277488","0.0-43.0-1.0-1.0","72E80D34D4AB45F09881B1CBF1A3F231","0199d68e-6ca6-706a-bf4f-be53279c91a9","0199d675-8795-765b-adc2-c813de8cd3d1","","null","<div style=""display: flex; justify-content: center; align-items: center;"">
                     <img src=""images/semantic/semantic_series_3/semantic_series_3_c.png"" style=""width: 300px; height: 300px;"" />
                   </div>","null","3","2","C","",""
"","","","","","html-keyboard-response","57","283492","0.0-43.0-1.0-2.0","72E80D34D4AB45F09881B1CBF1A3F231","0199d68e-6ca6-706a-bf4f-be53279c91a9","0199d675-8795-765b-adc2-c813de8cd3d1","","null","<div style=""display: flex; justify-content: center; align-items: center;"">
                     <img src=""images/semantic/semantic_series_3/semantic_series_3_d.png"" style=""width: 300px; height: 300px;"" />
                   </div>","null","3","2","D","",""
"","","","","","survey-likert","58","286698","0.0-44.0","72E80D34D4AB45F09881B1CBF1A3F231","0199d68e-6ca6-706a-bf4f-be53279c91a9","0199d675-8795-765b-adc2-c813de8cd3d1","","3205","","{""Q0"":1}","3","2","surprise_rating","","[0]"
"","","","","","survey-likert","59","288571","0.0-45.0","72E80D34D4AB45F09881B1CBF1A3F231","0199d68e-6ca6-706a-bf4f-be53279c91a9","0199d675-8795-765b-adc2-c813de8cd3d1","","1872","","{""Q0"":1}","3","2","enjoyment_rating","","[0]"
"","","","","","html-keyboard-response","60","294579","0.0-46.0","72E80D34D4AB45F09881B1CBF1A3F231","0199d68e-6ca6-706a-bf4f-be53279c91a9","0199d675-8795-765b-adc2-c813de8cd3d1","","null","<div style=""display: flex; justify-content: center; align-items: center;"">
                     <img src=""images/other/blank.png"" style=""width: 300px; height: 300px;"" />
                   </div>","null","0","0","blank","",""
"","","","","","html-keyboard-response","61","300581","0.0-47.0","72E80D34D4AB45F09881B1CBF1A3F231","0199d68e-6ca6-706a-bf4f-be53279c91a9","0199d675-8795-765b-adc2-c813de8cd3d1","","null","<div style=""display: flex; justify-content: center; align-items: center;"">
                     <img src=""images/causal/causal_series_9/causal_series_9_a.png"" style=""width: 300px; height: 300px;"" />
                   </div>","null","9","1","A","",""
"","","","","","html-button-response","62","303753","0.0-48.0","72E80D34D4AB45F09881B1CBF1A3F231","0199d68e-6ca6-706a-bf4f-be53279c91a9","0199d675-8795-765b-adc2-c813de8cd3d1","","3170","
        <div style=""display: flex; justify-content: center; align-items: center;"">
          <img src=""images/red_deck_2.png"" style=""width: 300px; height: 300px; margin-right: 10px;"" />
          <img src=""images/blue_deck_1.png"" style=""width: 300px; height: 300px;"" />
        </div>","0","9","1","choice","0",""
"","","","","","html-keyboard-response","63","309759","0.0-49.0-0.0-0.0","72E80D34D4AB45F09881B1CBF1A3F231","0199d68e-6ca6-706a-bf4f-be53279c91a9","0199d675-8795-765b-adc2-c813de8cd3d1","","null","<div style=""display: flex; justify-content: center; align-items: center;"">
                     <img src=""images/causal/causal_series_9/causal_series_9_b.png"" style=""width: 300px; height: 300px;"" />
                   </div>","null","9","1","B","",""
"","","","","","html-keyboard-response","64","315767","0.0-49.0-0.0-1.0","72E80D34D4AB45F09881B1CBF1A3F231","0199d68e-6ca6-706a-bf4f-be53279c91a9","0199d675-8795-765b-adc2-c813de8cd3d1","","null","<div style=""display: flex; justify-content: center; align-items: center;"">
                     <img src=""images/causal/causal_series_9/causal_series_9_c.png"" style=""width: 300px; height: 300px;"" />
                   </div>","null","9","1","C","",""
"","","","","","html-keyboard-response","65","321783","0.0-49.0-0.0-2.0","72E80D34D4AB45F09881B1CBF1A3F231","0199d68e-6ca6-706a-bf4f-be53279c91a9","0199d675-8795-765b-adc2-c813de8cd3d1","","null","<div style=""display: flex; justify-content: center; align-items: center;"">
                     <img src=""images/causal/causal_series_9/causal_series_9_d.png"" style=""width: 300px; height: 300px;"" />
                   </div>","null","9","1","D","",""
"","","","","","survey-likert","66","330824","0.0-50.0","72E80D34D4AB45F09881B1CBF1A3F231","0199d68e-6ca6-706a-bf4f-be53279c91a9","0199d675-8795-765b-adc2-c813de8cd3d1","","9039","","{""Q0"":2}","9","1","surprise_rating","","[0]"
"","","","","","survey-likert","67","333351","0.0-51.0","72E80D34D4AB45F09881B1CBF1A3F231","0199d68e-6ca6-706a-bf4f-be53279c91a9","0199d675-8795-765b-adc2-c813de8cd3d1","","2526","","{""Q0"":2}","9","1","enjoyment_rating","","[0]"
"","","","","","html-keyboard-response","68","339368","0.0-52.0","72E80D34D4AB45F09881B1CBF1A3F231","0199d68e-6ca6-706a-bf4f-be53279c91a9","0199d675-8795-765b-adc2-c813de8cd3d1","","null","<div style=""display: flex; justify-content: center; align-items: center;"">
                     <img src=""images/other/blank.png"" style=""width: 300px; height: 300px;"" />
                   </div>","null","0","0","blank","",""
"","","","","","html-keyboard-response","69","345382","0.0-53.0","72E80D34D4AB45F09881B1CBF1A3F231","0199d68e-6ca6-706a-bf4f-be53279c91a9","0199d675-8795-765b-adc2-c813de8cd3d1","","null","<div style=""display: flex; justify-content: center; align-items: center;"">
                     <img src=""images/causal/causal_series_1/causal_series_1_a.png"" style=""width: 300px; height: 300px;"" />
                   </div>","null","1","2","A","",""
"","","","","","html-button-response","70","348030","0.0-54.0","72E80D34D4AB45F09881B1CBF1A3F231","0199d68e-6ca6-706a-bf4f-be53279c91a9","0199d675-8795-765b-adc2-c813de8cd3d1","","2647","
        <div style=""display: flex; justify-content: center; align-items: center;"">
          <img src=""images/red_deck_2.png"" style=""width: 300px; height: 300px; margin-right: 10px;"" />
          <img src=""images/blue_deck_1.png"" style=""width: 300px; height: 300px;"" />
        </div>","0","1","2","choice","0",""
"","","","","","html-keyboard-response","71","354037","0.0-55.0-0.0-0.0","72E80D34D4AB45F09881B1CBF1A3F231","0199d68e-6ca6-706a-bf4f-be53279c91a9","0199d675-8795-765b-adc2-c813de8cd3d1","","null","<div style=""display: flex; justify-content: center; align-items: center;"">
                     <img src=""images/causal/causal_series_1/causal_series_1_b.png"" style=""width: 300px; height: 300px;"" />
                   </div>","null","1","2","B","",""
"","","","","","html-keyboard-response","72","360054","0.0-55.0-0.0-1.0","72E80D34D4AB45F09881B1CBF1A3F231","0199d68e-6ca6-706a-bf4f-be53279c91a9","0199d675-8795-765b-adc2-c813de8cd3d1","","null","<div style=""display: flex; justify-content: center; align-items: center;"">
                     <img src=""images/causal/causal_series_1/causal_series_1_c.png"" style=""width: 300px; height: 300px;"" />
                   </div>","null","1","2","C","",""
"","","","","","html-keyboard-response","73","366065","0.0-55.0-0.0-2.0","72E80D34D4AB45F09881B1CBF1A3F231","0199d68e-6ca6-706a-bf4f-be53279c91a9","0199d675-8795-765b-adc2-c813de8cd3d1","","null","<div style=""display: flex; justify-content: center; align-items: center;"">
                     <img src=""images/causal/causal_series_1/causal_series_1_d.png"" style=""width: 300px; height: 300px;"" />
                   </div>","null","1","2","D","",""
"","","","","","survey-likert","74","368967","0.0-56.0","72E80D34D4AB45F09881B1CBF1A3F231","0199d68e-6ca6-706a-bf4f-be53279c91a9","0199d675-8795-765b-adc2-c813de8cd3d1","","2901","","{""Q0"":3}","1","2","surprise_rating","","[0]"
"","","","","","survey-likert","75","370234","0.0-57.0","72E80D34D4AB45F09881B1CBF1A3F231","0199d68e-6ca6-706a-bf4f-be53279c91a9","0199d675-8795-765b-adc2-c813de8cd3d1","","1266","","{""Q0"":4}","1","2","enjoyment_rating","","[0]"
"","","","","","html-keyboard-response","76","376242","0.0-58.0","72E80D34D4AB45F09881B1CBF1A3F231","0199d68e-6ca6-706a-bf4f-be53279c91a9","0199d675-8795-765b-adc2-c813de8cd3d1","","null","<div style=""display: flex; justify-content: center; align-items: center;"">
                     <img src=""images/other/blank.png"" style=""width: 300px; height: 300px;"" />
                   </div>","null","0","0","blank","",""
"","","","","","html-keyboard-response","77","382254","0.0-59.0","72E80D34D4AB45F09881B1CBF1A3F231","0199d68e-6ca6-706a-bf4f-be53279c91a9","0199d675-8795-765b-adc2-c813de8cd3d1","","null","<div style=""display: flex; justify-content: center; align-items: center;"">
                     <img src=""images/causal/causal_series_5/causal_series_5_a.png"" style=""width: 300px; height: 300px;"" />
                   </div>","null","5","1","A","",""
"","","","","","html-button-response","78","392241","0.0-60.0","72E80D34D4AB45F09881B1CBF1A3F231","0199d68e-6ca6-706a-bf4f-be53279c91a9","0199d675-8795-765b-adc2-c813de8cd3d1","","9986","
        <div style=""display: flex; justify-content: center; align-items: center;"">
          <img src=""images/red_deck_2.png"" style=""width: 300px; height: 300px; margin-right: 10px;"" />
          <img src=""images/blue_deck_1.png"" style=""width: 300px; height: 300px;"" />
        </div>","1","5","1","choice","1",""
"","","","","","html-keyboard-response","79","398258","0.0-61.0-1.0-0.0","72E80D34D4AB45F09881B1CBF1A3F231","0199d68e-6ca6-706a-bf4f-be53279c91a9","0199d675-8795-765b-adc2-c813de8cd3d1","","null","<div style=""display: flex; justify-content: center; align-items: center;"">
                     <img src=""images/semantic/semantic_series_5/semantic_series_5_b.png"" style=""width: 300px; height: 300px;"" />
                   </div>","null","5","1","B","",""
"","","","","","html-keyboard-response","80","404260","0.0-61.0-1.0-1.0","72E80D34D4AB45F09881B1CBF1A3F231","0199d68e-6ca6-706a-bf4f-be53279c91a9","0199d675-8795-765b-adc2-c813de8cd3d1","","null","<div style=""display: flex; justify-content: center; align-items: center;"">
                     <img src=""images/semantic/semantic_series_5/semantic_series_5_c.png"" style=""width: 300px; height: 300px;"" />
                   </div>","null","5","1","C","",""
"","","","","","html-keyboard-response","81","410276","0.0-61.0-1.0-2.0","72E80D34D4AB45F09881B1CBF1A3F231","0199d68e-6ca6-706a-bf4f-be53279c91a9","0199d675-8795-765b-adc2-c813de8cd3d1","","null","<div style=""display: flex; justify-content: center; align-items: center;"">
                     <img src=""images/semantic/semantic_series_5/semantic_series_5_d.png"" style=""width: 300px; height: 300px;"" />
                   </div>","null","5","1","D","",""
"","","","","","survey-likert","82","418541","0.0-62.0","72E80D34D4AB45F09881B1CBF1A3F231","0199d68e-6ca6-706a-bf4f-be53279c91a9","0199d675-8795-765b-adc2-c813de8cd3d1","","8264","","{""Q0"":1}","5","1","surprise_rating","","[0]"
"","","","","","survey-likert","83","420291","0.0-63.0","72E80D34D4AB45F09881B1CBF1A3F231","0199d68e-6ca6-706a-bf4f-be53279c91a9","0199d675-8795-765b-adc2-c813de8cd3d1","","1749","","{""Q0"":1}","5","1","enjoyment_rating","","[0]"
"","","","","","html-keyboard-response","84","426297","0.0-64.0","72E80D34D4AB45F09881B1CBF1A3F231","0199d68e-6ca6-706a-bf4f-be53279c91a9","0199d675-8795-765b-adc2-c813de8cd3d1","","null","<div style=""display: flex; justify-content: center; align-items: center;"">
                     <img src=""images/other/blank.png"" style=""width: 300px; height: 300px;"" />
                   </div>","null","0","0","blank","",""
"","","","","","html-keyboard-response","85","432308","0.0-65.0","72E80D34D4AB45F09881B1CBF1A3F231","0199d68e-6ca6-706a-bf4f-be53279c91a9","0199d675-8795-765b-adc2-c813de8cd3d1","","null","<div style=""display: flex; justify-content: center; align-items: center;"">
                     <img src=""images/causal/causal_series_10/causal_series_10_a.png"" style=""width: 300px; height: 300px;"" />
                   </div>","null","10","2","A","",""
"","","","","","html-button-response","86","434497","0.0-66.0","72E80D34D4AB45F09881B1CBF1A3F231","0199d68e-6ca6-706a-bf4f-be53279c91a9","0199d675-8795-765b-adc2-c813de8cd3d1","","2188","
        <div style=""display: flex; justify-content: center; align-items: center;"">
          <img src=""images/red_deck_2.png"" style=""width: 300px; height: 300px; margin-right: 10px;"" />
          <img src=""images/blue_deck_1.png"" style=""width: 300px; height: 300px;"" />
        </div>","0","10","2","choice","0",""
"","","","","","html-keyboard-response","87","440512","0.0-67.0-0.0-0.0","72E80D34D4AB45F09881B1CBF1A3F231","0199d68e-6ca6-706a-bf4f-be53279c91a9","0199d675-8795-765b-adc2-c813de8cd3d1","","null","<div style=""display: flex; justify-content: center; align-items: center;"">
                     <img src=""images/causal/causal_series_10/causal_series_10_b.png"" style=""width: 300px; height: 300px;"" />
                   </div>","null","10","2","B","",""
"","","","","","html-keyboard-response","88","446520","0.0-67.0-0.0-1.0","72E80D34D4AB45F09881B1CBF1A3F231","0199d68e-6ca6-706a-bf4f-be53279c91a9","0199d675-8795-765b-adc2-c813de8cd3d1","","null","<div style=""display: flex; justify-content: center; align-items: center;"">
                     <img src=""images/causal/causal_series_10/causal_series_10_c.png"" style=""width: 300px; height: 300px;"" />
                   </div>","null","10","2","C","",""
"","","","","","html-keyboard-response","89","452524","0.0-67.0-0.0-2.0","72E80D34D4AB45F09881B1CBF1A3F231","0199d68e-6ca6-706a-bf4f-be53279c91a9","0199d675-8795-765b-adc2-c813de8cd3d1","","null","<div style=""display: flex; justify-content: center; align-items: center;"">
                     <img src=""images/causal/causal_series_10/causal_series_10_d.png"" style=""width: 300px; height: 300px;"" />
                   </div>","null","10","2","D","",""
"","","","","","survey-likert","90","456733","0.0-68.0","72E80D34D4AB45F09881B1CBF1A3F231","0199d68e-6ca6-706a-bf4f-be53279c91a9","0199d675-8795-765b-adc2-c813de8cd3d1","","4207","","{""Q0"":3}","10","2","surprise_rating","","[0]"
"","","","","","survey-likert","91","460280","0.0-69.0","72E80D34D4AB45F09881B1CBF1A3F231","0199d68e-6ca6-706a-bf4f-be53279c91a9","0199d675-8795-765b-adc2-c813de8cd3d1","","3545","","{""Q0"":3}","10","2","enjoyment_rating","","[0]"
"","","","","","html-keyboard-response","92","466288","0.0-70.0","72E80D34D4AB45F09881B1CBF1A3F231","0199d68e-6ca6-706a-bf4f-be53279c91a9","0199d675-8795-765b-adc2-c813de8cd3d1","","null","<div style=""display: flex; justify-content: center; align-items: center;"">
                     <img src=""images/other/blank.png"" style=""width: 300px; height: 300px;"" />
                   </div>","null","0","0","blank","",""
"","","","","","html-keyboard-response","93","472297","0.0-71.0","72E80D34D4AB45F09881B1CBF1A3F231","0199d68e-6ca6-706a-bf4f-be53279c91a9","0199d675-8795-765b-adc2-c813de8cd3d1","","null","<div style=""display: flex; justify-content: center; align-items: center;"">
                     <img src=""images/causal/causal_series_10/causal_series_10_a.png"" style=""width: 300px; height: 300px;"" />
                   </div>","null","10","1","A","",""
"","","","","","html-button-response","94","474018","0.0-72.0","72E80D34D4AB45F09881B1CBF1A3F231","0199d68e-6ca6-706a-bf4f-be53279c91a9","0199d675-8795-765b-adc2-c813de8cd3d1","","1719","
        <div style=""display: flex; justify-content: center; align-items: center;"">
          <img src=""images/red_deck_2.png"" style=""width: 300px; height: 300px; margin-right: 10px;"" />
          <img src=""images/blue_deck_1.png"" style=""width: 300px; height: 300px;"" />
        </div>","0","10","1","choice","0",""
"","","","","","html-keyboard-response","95","480021","0.0-73.0-0.0-0.0","72E80D34D4AB45F09881B1CBF1A3F231","0199d68e-6ca6-706a-bf4f-be53279c91a9","0199d675-8795-765b-adc2-c813de8cd3d1","","null","<div style=""display: flex; justify-content: center; align-items: center;"">
                     <img src=""images/causal/causal_series_10/causal_series_10_b.png"" style=""width: 300px; height: 300px;"" />
                   </div>","null","10","1","B","",""
"","","","","","html-keyboard-response","96","486025","0.0-73.0-0.0-1.0","72E80D34D4AB45F09881B1CBF1A3F231","0199d68e-6ca6-706a-bf4f-be53279c91a9","0199d675-8795-765b-adc2-c813de8cd3d1","","null","<div style=""display: flex; justify-content: center; align-items: center;"">
                     <img src=""images/causal/causal_series_10/causal_series_10_c.png"" style=""width: 300px; height: 300px;"" />
                   </div>","null","10","1","C","",""
"","","","","","html-keyboard-response","97","492033","0.0-73.0-0.0-2.0","72E80D34D4AB45F09881B1CBF1A3F231","0199d68e-6ca6-706a-bf4f-be53279c91a9","0199d675-8795-765b-adc2-c813de8cd3d1","","null","<div style=""display: flex; justify-content: center; align-items: center;"">
                     <img src=""images/causal/causal_series_10/causal_series_10_d.png"" style=""width: 300px; height: 300px;"" />
                   </div>","null","10","1","D","",""
"","","","","","survey-likert","98","496774","0.0-74.0","72E80D34D4AB45F09881B1CBF1A3F231","0199d68e-6ca6-706a-bf4f-be53279c91a9","0199d675-8795-765b-adc2-c813de8cd3d1","","4740","","{""Q0"":3}","10","1","surprise_rating","","[0]"
"","","","","","survey-likert","99","498393","0.0-75.0","72E80D34D4AB45F09881B1CBF1A3F231","0199d68e-6ca6-706a-bf4f-be53279c91a9","0199d675-8795-765b-adc2-c813de8cd3d1","","1618","","{""Q0"":2}","10","1","enjoyment_rating","","[0]"
"","","","","","html-keyboard-response","100","504400","0.0-76.0","72E80D34D4AB45F09881B1CBF1A3F231","0199d68e-6ca6-706a-bf4f-be53279c91a9","0199d675-8795-765b-adc2-c813de8cd3d1","","null","<div style=""display: flex; justify-content: center; align-items: center;"">
                     <img src=""images/other/blank.png"" style=""width: 300px; height: 300px;"" />
                   </div>","null","0","0","blank","",""
"","","","","","html-keyboard-response","101","510412","0.0-77.0","72E80D34D4AB45F09881B1CBF1A3F231","0199d68e-6ca6-706a-bf4f-be53279c91a9","0199d675-8795-765b-adc2-c813de8cd3d1","","null","<div style=""display: flex; justify-content: center; align-items: center;"">
                     <img src=""images/causal/causal_series_3/causal_series_3_a.png"" style=""width: 300px; height: 300px;"" />
                   </div>","null","3","1","A","",""
"","","","","","html-button-response","102","518658","0.0-78.0","72E80D34D4AB45F09881B1CBF1A3F231","0199d68e-6ca6-706a-bf4f-be53279c91a9","0199d675-8795-765b-adc2-c813de8cd3d1","","8245","
        <div style=""display: flex; justify-content: center; align-items: center;"">
          <img src=""images/red_deck_2.png"" style=""width: 300px; height: 300px; margin-right: 10px;"" />
          <img src=""images/blue_deck_1.png"" style=""width: 300px; height: 300px;"" />
        </div>","0","3","1","choice","0",""
"","","","","","html-keyboard-response","103","524661","0.0-79.0-0.0-0.0","72E80D34D4AB45F09881B1CBF1A3F231","0199d68e-6ca6-706a-bf4f-be53279c91a9","0199d675-8795-765b-adc2-c813de8cd3d1","","null","<div style=""display: flex; justify-content: center; align-items: center;"">
                     <img src=""images/causal/causal_series_3/causal_series_3_b.png"" style=""width: 300px; height: 300px;"" />
                   </div>","null","3","1","B","",""
"","","","","","html-keyboard-response","104","530676","0.0-79.0-0.0-1.0","72E80D34D4AB45F09881B1CBF1A3F231","0199d68e-6ca6-706a-bf4f-be53279c91a9","0199d675-8795-765b-adc2-c813de8cd3d1","","null","<div style=""display: flex; justify-content: center; align-items: center;"">
                     <img src=""images/causal/causal_series_3/causal_series_3_c.png"" style=""width: 300px; height: 300px;"" />
                   </div>","null","3","1","C","",""
"","","","","","html-keyboard-response","105","536678","0.0-79.0-0.0-2.0","72E80D34D4AB45F09881B1CBF1A3F231","0199d68e-6ca6-706a-bf4f-be53279c91a9","0199d675-8795-765b-adc2-c813de8cd3d1","","null","<div style=""display: flex; justify-content: center; align-items: center;"">
                     <img src=""images/causal/causal_series_3/causal_series_3_d.png"" style=""width: 300px; height: 300px;"" />
                   </div>","null","3","1","D","",""
"","","","","","survey-likert","106","540753","0.0-80.0","72E80D34D4AB45F09881B1CBF1A3F231","0199d68e-6ca6-706a-bf4f-be53279c91a9","0199d675-8795-765b-adc2-c813de8cd3d1","","4074","","{""Q0"":2}","3","1","surprise_rating","","[0]"
"","","","","","survey-likert","107","542137","0.0-81.0","72E80D34D4AB45F09881B1CBF1A3F231","0199d68e-6ca6-706a-bf4f-be53279c91a9","0199d675-8795-765b-adc2-c813de8cd3d1","","1382","","{""Q0"":2}","3","1","enjoyment_rating","","[0]"
"","","","","","html-keyboard-response","108","548146","0.0-82.0","72E80D34D4AB45F09881B1CBF1A3F231","0199d68e-6ca6-706a-bf4f-be53279c91a9","0199d675-8795-765b-adc2-c813de8cd3d1","","null","<div style=""display: flex; justify-content: center; align-items: center;"">
                     <img src=""images/other/blank.png"" style=""width: 300px; height: 300px;"" />
                   </div>","null","0","0","blank","",""
"","","","","","html-keyboard-response","109","554147","0.0-83.0","72E80D34D4AB45F09881B1CBF1A3F231","0199d68e-6ca6-706a-bf4f-be53279c91a9","0199d675-8795-765b-adc2-c813de8cd3d1","","null","<div style=""display: flex; justify-content: center; align-items: center;"">
                     <img src=""images/causal/causal_series_8/causal_series_8_a.png"" style=""width: 300px; height: 300px;"" />
                   </div>","null","8","1","A","",""
"","","","","","html-button-response","110","562484","0.0-84.0","72E80D34D4AB45F09881B1CBF1A3F231","0199d68e-6ca6-706a-bf4f-be53279c91a9","0199d675-8795-765b-adc2-c813de8cd3d1","","8336","
        <div style=""display: flex; justify-content: center; align-items: center;"">
          <img src=""images/red_deck_2.png"" style=""width: 300px; height: 300px; margin-right: 10px;"" />
          <img src=""images/blue_deck_1.png"" style=""width: 300px; height: 300px;"" />
        </div>","1","8","1","choice","1",""
"","","","","","html-keyboard-response","111","568499","0.0-85.0-1.0-0.0","72E80D34D4AB45F09881B1CBF1A3F231","0199d68e-6ca6-706a-bf4f-be53279c91a9","0199d675-8795-765b-adc2-c813de8cd3d1","","null","<div style=""display: flex; justify-content: center; align-items: center;"">
                     <img src=""images/semantic/semantic_series_8/semantic_series_8_b.png"" style=""width: 300px; height: 300px;"" />
                   </div>","null","8","1","B","",""
"","","","","","html-keyboard-response","112","574504","0.0-85.0-1.0-1.0","72E80D34D4AB45F09881B1CBF1A3F231","0199d68e-6ca6-706a-bf4f-be53279c91a9","0199d675-8795-765b-adc2-c813de8cd3d1","","null","<div style=""display: flex; justify-content: center; align-items: center;"">
                     <img src=""images/semantic/semantic_series_8/semantic_series_8_c.png"" style=""width: 300px; height: 300px;"" />
                   </div>","null","8","1","C","",""
"","","","","","html-keyboard-response","113","580519","0.0-85.0-1.0-2.0","72E80D34D4AB45F09881B1CBF1A3F231","0199d68e-6ca6-706a-bf4f-be53279c91a9","0199d675-8795-765b-adc2-c813de8cd3d1","","null","<div style=""display: flex; justify-content: center; align-items: center;"">
                     <img src=""images/semantic/semantic_series_8/semantic_series_8_d.png"" style=""width: 300px; height: 300px;"" />
                   </div>","null","8","1","D","",""
"","","","","","survey-likert","114","583706","0.0-86.0","72E80D34D4AB45F09881B1CBF1A3F231","0199d68e-6ca6-706a-bf4f-be53279c91a9","0199d675-8795-765b-adc2-c813de8cd3d1","","3186","","{""Q0"":1}","8","1","surprise_rating","","[0]"
"","","","","","survey-likert","115","585426","0.0-87.0","72E80D34D4AB45F09881B1CBF1A3F231","0199d68e-6ca6-706a-bf4f-be53279c91a9","0199d675-8795-765b-adc2-c813de8cd3d1","","1719","","{""Q0"":1}","8","1","enjoyment_rating","","[0]"
"","","","","","html-keyboard-response","116","591437","0.0-88.0","72E80D34D4AB45F09881B1CBF1A3F231","0199d68e-6ca6-706a-bf4f-be53279c91a9","0199d675-8795-765b-adc2-c813de8cd3d1","","null","<div style=""display: flex; justify-content: center; align-items: center;"">
                     <img src=""images/other/blank.png"" style=""width: 300px; height: 300px;"" />
                   </div>","null","0","0","blank","",""
"","","","","","html-keyboard-response","117","597441","0.0-89.0","72E80D34D4AB45F09881B1CBF1A3F231","0199d68e-6ca6-706a-bf4f-be53279c91a9","0199d675-8795-765b-adc2-c813de8cd3d1","","null","<div style=""display: flex; justify-content: center; align-items: center;"">
                     <img src=""images/causal/causal_series_7/causal_series_7_a.png"" style=""width: 300px; height: 300px;"" />
                   </div>","null","7","2","A","",""
"","","","","","html-button-response","118","600581","0.0-90.0","72E80D34D4AB45F09881B1CBF1A3F231","0199d68e-6ca6-706a-bf4f-be53279c91a9","0199d675-8795-765b-adc2-c813de8cd3d1","","3139","
        <div style=""display: flex; justify-content: center; align-items: center;"">
          <img src=""images/red_deck_2.png"" style=""width: 300px; height: 300px; margin-right: 10px;"" />
          <img src=""images/blue_deck_1.png"" style=""width: 300px; height: 300px;"" />
        </div>","0","7","2","choice","0",""
"","","","","","html-keyboard-response","119","606593","0.0-91.0-0.0-0.0","72E80D34D4AB45F09881B1CBF1A3F231","0199d68e-6ca6-706a-bf4f-be53279c91a9","0199d675-8795-765b-adc2-c813de8cd3d1","","null","<div style=""display: flex; justify-content: center; align-items: center;"">
                     <img src=""images/causal/causal_series_7/causal_series_7_b.png"" style=""width: 300px; height: 300px;"" />
                   </div>","null","7","2","B","",""
"","","","","","html-keyboard-response","120","612596","0.0-91.0-0.0-1.0","72E80D34D4AB45F09881B1CBF1A3F231","0199d68e-6ca6-706a-bf4f-be53279c91a9","0199d675-8795-765b-adc2-c813de8cd3d1","","null","<div style=""display: flex; justify-content: center; align-items: center;"">
                     <img src=""images/causal/causal_series_7/causal_series_7_c.png"" style=""width: 300px; height: 300px;"" />
                   </div>","null","7","2","C","",""
"","","","","","html-keyboard-response","121","618598","0.0-91.0-0.0-2.0","72E80D34D4AB45F09881B1CBF1A3F231","0199d68e-6ca6-706a-bf4f-be53279c91a9","0199d675-8795-765b-adc2-c813de8cd3d1","","null","<div style=""display: flex; justify-content: center; align-items: center;"">
                     <img src=""images/causal/causal_series_7/causal_series_7_d.png"" style=""width: 300px; height: 300px;"" />
                   </div>","null","7","2","D","",""
"","","","","","survey-likert","122","622601","0.0-92.0","72E80D34D4AB45F09881B1CBF1A3F231","0199d68e-6ca6-706a-bf4f-be53279c91a9","0199d675-8795-765b-adc2-c813de8cd3d1","","4003","","{""Q0"":2}","7","2","surprise_rating","","[0]"
"","","","","","survey-likert","123","624529","0.0-93.0","72E80D34D4AB45F09881B1CBF1A3F231","0199d68e-6ca6-706a-bf4f-be53279c91a9","0199d675-8795-765b-adc2-c813de8cd3d1","","1927","","{""Q0"":2}","7","2","enjoyment_rating","","[0]"
"","","","","","html-keyboard-response","124","630531","0.0-94.0","72E80D34D4AB45F09881B1CBF1A3F231","0199d68e-6ca6-706a-bf4f-be53279c91a9","0199d675-8795-765b-adc2-c813de8cd3d1","","null","<div style=""display: flex; justify-content: center; align-items: center;"">
                     <img src=""images/other/blank.png"" style=""width: 300px; height: 300px;"" />
                   </div>","null","0","0","blank","",""
"","","","","","html-keyboard-response","125","636548","0.0-95.0","72E80D34D4AB45F09881B1CBF1A3F231","0199d68e-6ca6-706a-bf4f-be53279c91a9","0199d675-8795-765b-adc2-c813de8cd3d1","","null","<div style=""display: flex; justify-content: center; align-items: center;"">
                     <img src=""images/causal/causal_series_1/causal_series_1_a.png"" style=""width: 300px; height: 300px;"" />
                   </div>","null","1","1","A","",""
"","","","","","html-button-response","126","637749","0.0-96.0","72E80D34D4AB45F09881B1CBF1A3F231","0199d68e-6ca6-706a-bf4f-be53279c91a9","0199d675-8795-765b-adc2-c813de8cd3d1","","1200","
        <div style=""display: flex; justify-content: center; align-items: center;"">
          <img src=""images/red_deck_2.png"" style=""width: 300px; height: 300px; margin-right: 10px;"" />
          <img src=""images/blue_deck_1.png"" style=""width: 300px; height: 300px;"" />
        </div>","0","1","1","choice","0",""
"","","","","","html-keyboard-response","127","643752","0.0-97.0-0.0-0.0","72E80D34D4AB45F09881B1CBF1A3F231","0199d68e-6ca6-706a-bf4f-be53279c91a9","0199d675-8795-765b-adc2-c813de8cd3d1","","null","<div style=""display: flex; justify-content: center; align-items: center;"">
                     <img src=""images/causal/causal_series_1/causal_series_1_b.png"" style=""width: 300px; height: 300px;"" />
                   </div>","null","1","1","B","",""
"","","","","","html-keyboard-response","128","649769","0.0-97.0-0.0-1.0","72E80D34D4AB45F09881B1CBF1A3F231","0199d68e-6ca6-706a-bf4f-be53279c91a9","0199d675-8795-765b-adc2-c813de8cd3d1","","null","<div style=""display: flex; justify-content: center; align-items: center;"">
                     <img src=""images/causal/causal_series_1/causal_series_1_c.png"" style=""width: 300px; height: 300px;"" />
                   </div>","null","1","1","C","",""
"","","","","","html-keyboard-response","129","655772","0.0-97.0-0.0-2.0","72E80D34D4AB45F09881B1CBF1A3F231","0199d68e-6ca6-706a-bf4f-be53279c91a9","0199d675-8795-765b-adc2-c813de8cd3d1","","null","<div style=""display: flex; justify-content: center; align-items: center;"">
                     <img src=""images/causal/causal_series_1/causal_series_1_d.png"" style=""width: 300px; height: 300px;"" />
                   </div>","null","1","1","D","",""
"","","","","","survey-likert","130","657908","0.0-98.0","72E80D34D4AB45F09881B1CBF1A3F231","0199d68e-6ca6-706a-bf4f-be53279c91a9","0199d675-8795-765b-adc2-c813de8cd3d1","","2135","","{""Q0"":3}","1","1","surprise_rating","","[0]"
"","","","","","survey-likert","131","659493","0.0-99.0","72E80D34D4AB45F09881B1CBF1A3F231","0199d68e-6ca6-706a-bf4f-be53279c91a9","0199d675-8795-765b-adc2-c813de8cd3d1","","1584","","{""Q0"":4}","1","1","enjoyment_rating","","[0]"
"","","","","","html-keyboard-response","132","665495","0.0-100.0","72E80D34D4AB45F09881B1CBF1A3F231","0199d68e-6ca6-706a-bf4f-be53279c91a9","0199d675-8795-765b-adc2-c813de8cd3d1","","null","<div style=""display: flex; justify-content: center; align-items: center;"">
                     <img src=""images/other/blank.png"" style=""width: 300px; height: 300px;"" />
                   </div>","null","0","0","blank","",""
"","","","","","html-keyboard-response","133","671506","0.0-101.0","72E80D34D4AB45F09881B1CBF1A3F231","0199d68e-6ca6-706a-bf4f-be53279c91a9","0199d675-8795-765b-adc2-c813de8cd3d1","","null","<div style=""display: flex; justify-content: center; align-items: center;"">
                     <img src=""images/causal/causal_series_2/causal_series_2_a.png"" style=""width: 300px; height: 300px;"" />
                   </div>","null","2","1","A","",""
"","","","","","html-button-response","134","672824","0.0-102.0","72E80D34D4AB45F09881B1CBF1A3F231","0199d68e-6ca6-706a-bf4f-be53279c91a9","0199d675-8795-765b-adc2-c813de8cd3d1","","1317","
        <div style=""display: flex; justify-content: center; align-items: center;"">
          <img src=""images/red_deck_2.png"" style=""width: 300px; height: 300px; margin-right: 10px;"" />
          <img src=""images/blue_deck_1.png"" style=""width: 300px; height: 300px;"" />
        </div>","0","2","1","choice","0",""
"","","","","","html-keyboard-response","135","678831","0.0-103.0-0.0-0.0","72E80D34D4AB45F09881B1CBF1A3F231","0199d68e-6ca6-706a-bf4f-be53279c91a9","0199d675-8795-765b-adc2-c813de8cd3d1","","null","<div style=""display: flex; justify-content: center; align-items: center;"">
                     <img src=""images/causal/causal_series_2/causal_series_2_b.png"" style=""width: 300px; height: 300px;"" />
                   </div>","null","2","1","B","",""
"","","","","","html-keyboard-response","136","684841","0.0-103.0-0.0-1.0","72E80D34D4AB45F09881B1CBF1A3F231","0199d68e-6ca6-706a-bf4f-be53279c91a9","0199d675-8795-765b-adc2-c813de8cd3d1","","null","<div style=""display: flex; justify-content: center; align-items: center;"">
                     <img src=""images/causal/causal_series_2/causal_series_2_c.png"" style=""width: 300px; height: 300px;"" />
                   </div>","null","2","1","C","",""
"","","","","","html-keyboard-response","137","690852","0.0-103.0-0.0-2.0","72E80D34D4AB45F09881B1CBF1A3F231","0199d68e-6ca6-706a-bf4f-be53279c91a9","0199d675-8795-765b-adc2-c813de8cd3d1","","null","<div style=""display: flex; justify-content: center; align-items: center;"">
                     <img src=""images/causal/causal_series_2/causal_series_2_d.png"" style=""width: 300px; height: 300px;"" />
                   </div>","null","2","1","D","",""
"","","","","","survey-likert","138","693950","0.0-104.0","72E80D34D4AB45F09881B1CBF1A3F231","0199d68e-6ca6-706a-bf4f-be53279c91a9","0199d675-8795-765b-adc2-c813de8cd3d1","","3097","","{""Q0"":1}","2","1","surprise_rating","","[0]"
"","","","","","survey-likert","139","695464","0.0-105.0","72E80D34D4AB45F09881B1CBF1A3F231","0199d68e-6ca6-706a-bf4f-be53279c91a9","0199d675-8795-765b-adc2-c813de8cd3d1","","1513","","{""Q0"":3}","2","1","enjoyment_rating","","[0]"
"","","","","","html-keyboard-response","140","701470","0.0-106.0","72E80D34D4AB45F09881B1CBF1A3F231","0199d68e-6ca6-706a-bf4f-be53279c91a9","0199d675-8795-765b-adc2-c813de8cd3d1","","null","<div style=""display: flex; justify-content: center; align-items: center;"">
                     <img src=""images/other/blank.png"" style=""width: 300px; height: 300px;"" />
                   </div>","null","0","0","blank","",""
"","","","","","html-keyboard-response","141","707471","0.0-107.0","72E80D34D4AB45F09881B1CBF1A3F231","0199d68e-6ca6-706a-bf4f-be53279c91a9","0199d675-8795-765b-adc2-c813de8cd3d1","","null","<div style=""display: flex; justify-content: center; align-items: center;"">
                     <img src=""images/causal/causal_series_7/causal_series_7_a.png"" style=""width: 300px; height: 300px;"" />
                   </div>","null","7","1","A","",""
"","","","","","html-button-response","142","711970","0.0-108.0","72E80D34D4AB45F09881B1CBF1A3F231","0199d68e-6ca6-706a-bf4f-be53279c91a9","0199d675-8795-765b-adc2-c813de8cd3d1","","4497","
        <div style=""display: flex; justify-content: center; align-items: center;"">
          <img src=""images/red_deck_2.png"" style=""width: 300px; height: 300px; margin-right: 10px;"" />
          <img src=""images/blue_deck_1.png"" style=""width: 300px; height: 300px;"" />
        </div>","1","7","1","choice","1",""
"","","","","","html-keyboard-response","143","717981","0.0-109.0-1.0-0.0","72E80D34D4AB45F09881B1CBF1A3F231","0199d68e-6ca6-706a-bf4f-be53279c91a9","0199d675-8795-765b-adc2-c813de8cd3d1","","null","<div style=""display: flex; justify-content: center; align-items: center;"">
                     <img src=""images/semantic/semantic_series_7/semantic_series_7_b.png"" style=""width: 300px; height: 300px;"" />
                   </div>","null","7","1","B","",""
"","","","","","html-keyboard-response","144","723988","0.0-109.0-1.0-1.0","72E80D34D4AB45F09881B1CBF1A3F231","0199d68e-6ca6-706a-bf4f-be53279c91a9","0199d675-8795-765b-adc2-c813de8cd3d1","","null","<div style=""display: flex; justify-content: center; align-items: center;"">
                     <img src=""images/semantic/semantic_series_7/semantic_series_7_c.png"" style=""width: 300px; height: 300px;"" />
                   </div>","null","7","1","C","",""
"","","","","","html-keyboard-response","145","730000","0.0-109.0-1.0-2.0","72E80D34D4AB45F09881B1CBF1A3F231","0199d68e-6ca6-706a-bf4f-be53279c91a9","0199d675-8795-765b-adc2-c813de8cd3d1","","null","<div style=""display: flex; justify-content: center; align-items: center;"">
                     <img src=""images/semantic/semantic_series_7/semantic_series_7_d.png"" style=""width: 300px; height: 300px;"" />
                   </div>","null","7","1","D","",""
"","","","","","survey-likert","146","731824","0.0-110.0","72E80D34D4AB45F09881B1CBF1A3F231","0199d68e-6ca6-706a-bf4f-be53279c91a9","0199d675-8795-765b-adc2-c813de8cd3d1","","1823","","{""Q0"":1}","7","1","surprise_rating","","[0]"
"","","","","","survey-likert","147","734536","0.0-111.0","72E80D34D4AB45F09881B1CBF1A3F231","0199d68e-6ca6-706a-bf4f-be53279c91a9","0199d675-8795-765b-adc2-c813de8cd3d1","","2711","","{""Q0"":1}","7","1","enjoyment_rating","","[0]"
"","","","","","html-keyboard-response","148","740546","0.0-112.0","72E80D34D4AB45F09881B1CBF1A3F231","0199d68e-6ca6-706a-bf4f-be53279c91a9","0199d675-8795-765b-adc2-c813de8cd3d1","","null","<div style=""display: flex; justify-content: center; align-items: center;"">
                     <img src=""images/other/blank.png"" style=""width: 300px; height: 300px;"" />
                   </div>","null","0","0","blank","",""
"","","","","","html-keyboard-response","149","746563","0.0-113.0","72E80D34D4AB45F09881B1CBF1A3F231","0199d68e-6ca6-706a-bf4f-be53279c91a9","0199d675-8795-765b-adc2-c813de8cd3d1","","null","<div style=""display: flex; justify-content: center; align-items: center;"">
                     <img src=""images/causal/causal_series_8/causal_series_8_a.png"" style=""width: 300px; height: 300px;"" />
                   </div>","null","8","2","A","",""
"","","","","","html-button-response","150","762754","0.0-114.0","72E80D34D4AB45F09881B1CBF1A3F231","0199d68e-6ca6-706a-bf4f-be53279c91a9","0199d675-8795-765b-adc2-c813de8cd3d1","","16190","
        <div style=""display: flex; justify-content: center; align-items: center;"">
          <img src=""images/red_deck_2.png"" style=""width: 300px; height: 300px; margin-right: 10px;"" />
          <img src=""images/blue_deck_1.png"" style=""width: 300px; height: 300px;"" />
        </div>","1","8","2","choice","1",""
"","","","","","html-keyboard-response","151","768760","0.0-115.0-1.0-0.0","72E80D34D4AB45F09881B1CBF1A3F231","0199d68e-6ca6-706a-bf4f-be53279c91a9","0199d675-8795-765b-adc2-c813de8cd3d1","","null","<div style=""display: flex; justify-content: center; align-items: center;"">
                     <img src=""images/semantic/semantic_series_8/semantic_series_8_b.png"" style=""width: 300px; height: 300px;"" />
                   </div>","null","8","2","B","",""
"","","","","","html-keyboard-response","152","774766","0.0-115.0-1.0-1.0","72E80D34D4AB45F09881B1CBF1A3F231","0199d68e-6ca6-706a-bf4f-be53279c91a9","0199d675-8795-765b-adc2-c813de8cd3d1","","null","<div style=""display: flex; justify-content: center; align-items: center;"">
                     <img src=""images/semantic/semantic_series_8/semantic_series_8_c.png"" style=""width: 300px; height: 300px;"" />
                   </div>","null","8","2","C","",""
"","","","","","html-keyboard-response","153","780782","0.0-115.0-1.0-2.0","72E80D34D4AB45F09881B1CBF1A3F231","0199d68e-6ca6-706a-bf4f-be53279c91a9","0199d675-8795-765b-adc2-c813de8cd3d1","","null","<div style=""display: flex; justify-content: center; align-items: center;"">
                     <img src=""images/semantic/semantic_series_8/semantic_series_8_d.png"" style=""width: 300px; height: 300px;"" />
                   </div>","null","8","2","D","",""
"","","","","","survey-likert","154","783562","0.0-116.0","72E80D34D4AB45F09881B1CBF1A3F231","0199d68e-6ca6-706a-bf4f-be53279c91a9","0199d675-8795-765b-adc2-c813de8cd3d1","","2779","","{""Q0"":1}","8","2","surprise_rating","","[0]"
"","","","","","survey-likert","155","784891","0.0-117.0","72E80D34D4AB45F09881B1CBF1A3F231","0199d68e-6ca6-706a-bf4f-be53279c91a9","0199d675-8795-765b-adc2-c813de8cd3d1","","1328","","{""Q0"":1}","8","2","enjoyment_rating","","[0]"
"","","","","","html-keyboard-response","156","790906","0.0-118.0","72E80D34D4AB45F09881B1CBF1A3F231","0199d68e-6ca6-706a-bf4f-be53279c91a9","0199d675-8795-765b-adc2-c813de8cd3d1","","null","<div style=""display: flex; justify-content: center; align-items: center;"">
                     <img src=""images/other/blank.png"" style=""width: 300px; height: 300px;"" />
                   </div>","null","0","0","blank","",""
"","","","","","html-keyboard-response","157","796918","0.0-119.0","72E80D34D4AB45F09881B1CBF1A3F231","0199d68e-6ca6-706a-bf4f-be53279c91a9","0199d675-8795-765b-adc2-c813de8cd3d1","","null","<div style=""display: flex; justify-content: center; align-items: center;"">
                     <img src=""images/causal/causal_series_5/causal_series_5_a.png"" style=""width: 300px; height: 300px;"" />
                   </div>","null","5","2","A","",""
"","","","","","html-button-response","158","811877","0.0-120.0","72E80D34D4AB45F09881B1CBF1A3F231","0199d68e-6ca6-706a-bf4f-be53279c91a9","0199d675-8795-765b-adc2-c813de8cd3d1","","14957","
        <div style=""display: flex; justify-content: center; align-items: center;"">
          <img src=""images/red_deck_2.png"" style=""width: 300px; height: 300px; margin-right: 10px;"" />
          <img src=""images/blue_deck_1.png"" style=""width: 300px; height: 300px;"" />
        </div>","0","5","2","choice","0",""
"","","","","","html-keyboard-response","159","817880","0.0-121.0-0.0-0.0","72E80D34D4AB45F09881B1CBF1A3F231","0199d68e-6ca6-706a-bf4f-be53279c91a9","0199d675-8795-765b-adc2-c813de8cd3d1","","null","<div style=""display: flex; justify-content: center; align-items: center;"">
                     <img src=""images/causal/causal_series_5/causal_series_5_b.png"" style=""width: 300px; height: 300px;"" />
                   </div>","null","5","2","B","",""
"","","","","","html-keyboard-response","160","823889","0.0-121.0-0.0-1.0","72E80D34D4AB45F09881B1CBF1A3F231","0199d68e-6ca6-706a-bf4f-be53279c91a9","0199d675-8795-765b-adc2-c813de8cd3d1","","null","<div style=""display: flex; justify-content: center; align-items: center;"">
                     <img src=""images/causal/causal_series_5/causal_series_5_c.png"" style=""width: 300px; height: 300px;"" />
                   </div>","null","5","2","C","",""
"","","","","","html-keyboard-response","161","829899","0.0-121.0-0.0-2.0","72E80D34D4AB45F09881B1CBF1A3F231","0199d68e-6ca6-706a-bf4f-be53279c91a9","0199d675-8795-765b-adc2-c813de8cd3d1","","null","<div style=""display: flex; justify-content: center; align-items: center;"">
                     <img src=""images/causal/causal_series_5/causal_series_5_d.png"" style=""width: 300px; height: 300px;"" />
                   </div>","null","5","2","D","",""
"","","","","","survey-likert","162","837992","0.0-122.0","72E80D34D4AB45F09881B1CBF1A3F231","0199d68e-6ca6-706a-bf4f-be53279c91a9","0199d675-8795-765b-adc2-c813de8cd3d1","","8092","","{""Q0"":3}","5","2","surprise_rating","","[0]"
"","","","","","survey-likert","163","839631","0.0-123.0","72E80D34D4AB45F09881B1CBF1A3F231","0199d68e-6ca6-706a-bf4f-be53279c91a9","0199d675-8795-765b-adc2-c813de8cd3d1","","1638","","{""Q0"":2}","5","2","enjoyment_rating","","[0]"
"","","","","","html-keyboard-response","164","845645","0.0-124.0","72E80D34D4AB45F09881B1CBF1A3F231","0199d68e-6ca6-706a-bf4f-be53279c91a9","0199d675-8795-765b-adc2-c813de8cd3d1","","null","<div style=""display: flex; justify-content: center; align-items: center;"">
                     <img src=""images/other/blank.png"" style=""width: 300px; height: 300px;"" />
                   </div>","null","0","0","blank","",""
"","","","","","survey-text","165","868121","0.0-125.0","72E80D34D4AB45F09881B1CBF1A3F231","0199d68e-6ca6-706a-bf4f-be53279c91a9","0199d675-8795-765b-adc2-c813de8cd3d1","","22471","","{""Q0"":""blue was like a story and red was like stuff that was unrelated""}","","","","",""
"","","","","","html-button-response","166","870013","0.0-126.0","72E80D34D4AB45F09881B1CBF1A3F231","0199d68e-6ca6-706a-bf4f-be53279c91a9","0199d675-8795-765b-adc2-c813de8cd3d1","","1892","Which color deck do the following sentences continue the story from?","0","","","","",""
"","","","","","html-button-response","167","871143","0.0-127.0","72E80D34D4AB45F09881B1CBF1A3F231","0199d68e-6ca6-706a-bf4f-be53279c91a9","0199d675-8795-765b-adc2-c813de8cd3d1","","1129","Which color deck do the following sentences NOT follow the story from?","1","","","","",""
"","","","","","html-button-response","168","872431","0.0-128.0","72E80D34D4AB45F09881B1CBF1A3F231","0199d68e-6ca6-706a-bf4f-be53279c91a9","0199d675-8795-765b-adc2-c813de8cd3d1","","1287","Which type of deck did you prefer overall?","1","","","","",""
"","","","","","survey-text","169","877582","0.0-129.0","72E80D34D4AB45F09881B1CBF1A3F231","0199d68e-6ca6-706a-bf4f-be53279c91a9","0199d675-8795-765b-adc2-c813de8cd3d1","","5148","","{""Q0"":""MALE"",""Q1"":""19""}","","","","",""
"","","","","","instructions","170","1016300","0.0-130.0","72E80D34D4AB45F09881B1CBF1A3F231","0199d68e-6ca6-706a-bf4f-be53279c91a9","0199d675-8795-765b-adc2-c813de8cd3d1","[{""page_index"":0,""viewing_time"":138717}]","138718","","","","","","",""
