"success","timeout","failed_images","failed_audio","failed_video","trial_type","trial_index","time_elapsed","internal_node_id","subject_id","study_id","session_id","view_history","rt","stimulus","response","series","repetition","phase","choice","question_order"
"true","false","[]","[]","[]","preload","0","799","0.0-0.0","B91E9B68B87746D19B0336AAB07E81A4","0199d676-47eb-7398-af1d-53471d1c6d69","0199d675-8795-765b-adc2-c813de8cd3d1","","","","","","","","",""
"","","","","","instructions","1","11191","0.0-1.0","B91E9B68B87746D19B0336AAB07E81A4","0199d676-47eb-7398-af1d-53471d1c6d69","0199d675-8795-765b-adc2-c813de8cd3d1","[{""page_index"":0,""viewing_time"":10391}]","10391","","","","","","",""
"","","","","","instructions","2","146404","0.0-2.0","B91E9B68B87746D19B0336AAB07E81A4","0199d676-47eb-7398-af1d-53471d1c6d69","0199d675-8795-765b-adc2-c813de8cd3d1","[{""page_index"":0,""viewing_time"":135213}]","135213","","","","","","",""
"true","","","","","fullscreen","3","152437","0.0-3.0","B91E9B68B87746D19B0336AAB07E81A4","0199d676-47eb-7398-af1d-53471d1c6d69","0199d675-8795-765b-adc2-c813de8cd3d1","","5030","","","","","","",""
"","","","","","instructions","4","303254","0.0-4.0","B91E9B68B87746D19B0336AAB07E81A4","0199d676-47eb-7398-af1d-53471d1c6d69","0199d675-8795-765b-adc2-c813de8cd3d1","[{""page_index"":0,""viewing_time"":150816}]","150816","","","","","","",""
"","","","","","html-keyboard-response","5","309256","0.0-5.0","B91E9B68B87746D19B0336AAB07E81A4","0199d676-47eb-7398-af1d-53471d1c6d69","0199d675-8795-765b-adc2-c813de8cd3d1","","null","<div style=""display: flex; justify-content: center; align-items: center;"">
                     <img src=""images/causal/causal_series_8/causal_series_8_a.png"" style=""width: 300px; height: 300px;"" />
                   </div>","null","8","1","A","",""
"","","","","","html-button-response","6","310971","0.0-6.0","B91E9B68B87746D19B0336AAB07E81A4","0199d676-47eb-7398-af1d-53471d1c6d69","0199d675-8795-765b-adc2-c813de8cd3d1","","1714","
        <div style=""display: flex; justify-content: center; align-items: center;"">
          <img src=""images/red_deck_2.png"" style=""width: 300px; height: 300px; margin-right: 10px;"" />
          <img src=""images/blue_deck_1.png"" style=""width: 300px; height: 300px;"" />
        </div>","0","8","1","choice","0",""
"","","","","","html-keyboard-response","7","316974","0.0-7.0-0.0-0.0","B91E9B68B87746D19B0336AAB07E81A4","0199d676-47eb-7398-af1d-53471d1c6d69","0199d675-8795-765b-adc2-c813de8cd3d1","","null","<div style=""display: flex; justify-content: center; align-items: center;"">
                     <img src=""images/causal/causal_series_8/causal_series_8_b.png"" style=""width: 300px; height: 300px;"" />
                   </div>","null","8","1","B","",""
"","","","","","html-keyboard-response","8","322979","0.0-7.0-0.0-1.0","B91E9B68B87746D19B0336AAB07E81A4","0199d676-47eb-7398-af1d-53471d1c6d69","0199d675-8795-765b-adc2-c813de8cd3d1","","null","<div style=""display: flex; justify-content: center; align-items: center;"">
                     <img src=""images/causal/causal_series_8/causal_series_8_c.png"" style=""width: 300px; height: 300px;"" />
                   </div>","null","8","1","C","",""
"","","","","","html-keyboard-response","9","328980","0.0-7.0-0.0-2.0","B91E9B68B87746D19B0336AAB07E81A4","0199d676-47eb-7398-af1d-53471d1c6d69","0199d675-8795-765b-adc2-c813de8cd3d1","","null","<div style=""display: flex; justify-content: center; align-items: center;"">
                     <img src=""images/causal/causal_series_8/causal_series_8_d.png"" style=""width: 300px; height: 300px;"" />
                   </div>","null","8","1","D","",""
"","","","","","survey-likert","10","334911","0.0-8.0","B91E9B68B87746D19B0336AAB07E81A4","0199d676-47eb-7398-af1d-53471d1c6d69","0199d675-8795-765b-adc2-c813de8cd3d1","","5929","","{""Q0"":4}","8","1","surprise_rating","","[0]"
"","","","","","survey-likert","11","338563","0.0-9.0","B91E9B68B87746D19B0336AAB07E81A4","0199d676-47eb-7398-af1d-53471d1c6d69","0199d675-8795-765b-adc2-c813de8cd3d1","","3651","","{""Q0"":2}","8","1","enjoyment_rating","","[0]"
"","","","","","html-keyboard-response","12","344564","0.0-10.0","B91E9B68B87746D19B0336AAB07E81A4","0199d676-47eb-7398-af1d-53471d1c6d69","0199d675-8795-765b-adc2-c813de8cd3d1","","null","<div style=""display: flex; justify-content: center; align-items: center;"">
                     <img src=""images/other/blank.png"" style=""width: 300px; height: 300px;"" />
                   </div>","null","0","0","blank","",""
"","","","","","html-keyboard-response","13","350565","0.0-11.0","B91E9B68B87746D19B0336AAB07E81A4","0199d676-47eb-7398-af1d-53471d1c6d69","0199d675-8795-765b-adc2-c813de8cd3d1","","null","<div style=""display: flex; justify-content: center; align-items: center;"">
                     <img src=""images/causal/causal_series_1/causal_series_1_a.png"" style=""width: 300px; height: 300px;"" />
                   </div>","null","1","1","A","",""
"","","","","","html-button-response","14","353170","0.0-12.0","B91E9B68B87746D19B0336AAB07E81A4","0199d676-47eb-7398-af1d-53471d1c6d69","0199d675-8795-765b-adc2-c813de8cd3d1","","2605","
        <div style=""display: flex; justify-content: center; align-items: center;"">
          <img src=""images/red_deck_2.png"" style=""width: 300px; height: 300px; margin-right: 10px;"" />
          <img src=""images/blue_deck_1.png"" style=""width: 300px; height: 300px;"" />
        </div>","1","1","1","choice","1",""
"","","","","","html-keyboard-response","15","359175","0.0-13.0-1.0-0.0","B91E9B68B87746D19B0336AAB07E81A4","0199d676-47eb-7398-af1d-53471d1c6d69","0199d675-8795-765b-adc2-c813de8cd3d1","","null","<div style=""display: flex; justify-content: center; align-items: center;"">
                     <img src=""images/semantic/semantic_series_1/semantic_series_1_b.png"" style=""width: 300px; height: 300px;"" />
                   </div>","null","1","1","B","",""
"","","","","","html-keyboard-response","16","365178","0.0-13.0-1.0-1.0","B91E9B68B87746D19B0336AAB07E81A4","0199d676-47eb-7398-af1d-53471d1c6d69","0199d675-8795-765b-adc2-c813de8cd3d1","","null","<div style=""display: flex; justify-content: center; align-items: center;"">
                     <img src=""images/semantic/semantic_series_1/semantic_series_1_c.png"" style=""width: 300px; height: 300px;"" />
                   </div>","null","1","1","C","",""
"","","","","","html-keyboard-response","17","371178","0.0-13.0-1.0-2.0","B91E9B68B87746D19B0336AAB07E81A4","0199d676-47eb-7398-af1d-53471d1c6d69","0199d675-8795-765b-adc2-c813de8cd3d1","","null","<div style=""display: flex; justify-content: center; align-items: center;"">
                     <img src=""images/semantic/semantic_series_1/semantic_series_1_d.png"" style=""width: 300px; height: 300px;"" />
                   </div>","null","1","1","D","",""
"","","","","","survey-likert","18","378414","0.0-14.0","B91E9B68B87746D19B0336AAB07E81A4","0199d676-47eb-7398-af1d-53471d1c6d69","0199d675-8795-765b-adc2-c813de8cd3d1","","7234","","{""Q0"":3}","1","1","surprise_rating","","[0]"
"","","","","","survey-likert","19","381051","0.0-15.0","B91E9B68B87746D19B0336AAB07E81A4","0199d676-47eb-7398-af1d-53471d1c6d69","0199d675-8795-765b-adc2-c813de8cd3d1","","2636","","{""Q0"":3}","1","1","enjoyment_rating","","[0]"
"","","","","","html-keyboard-response","20","387053","0.0-16.0","B91E9B68B87746D19B0336AAB07E81A4","0199d676-47eb-7398-af1d-53471d1c6d69","0199d675-8795-765b-adc2-c813de8cd3d1","","null","<div style=""display: flex; justify-content: center; align-items: center;"">
                     <img src=""images/other/blank.png"" style=""width: 300px; height: 300px;"" />
                   </div>","null","0","0","blank","",""
"","","","","","html-keyboard-response","21","393053","0.0-17.0","B91E9B68B87746D19B0336AAB07E81A4","0199d676-47eb-7398-af1d-53471d1c6d69","0199d675-8795-765b-adc2-c813de8cd3d1","","null","<div style=""display: flex; justify-content: center; align-items: center;"">
                     <img src=""images/causal/causal_series_3/causal_series_3_a.png"" style=""width: 300px; height: 300px;"" />
                   </div>","null","3","2","A","",""
"","","","","","html-button-response","22","394400","0.0-18.0","B91E9B68B87746D19B0336AAB07E81A4","0199d676-47eb-7398-af1d-53471d1c6d69","0199d675-8795-765b-adc2-c813de8cd3d1","","1346","
        <div style=""display: flex; justify-content: center; align-items: center;"">
          <img src=""images/red_deck_2.png"" style=""width: 300px; height: 300px; margin-right: 10px;"" />
          <img src=""images/blue_deck_1.png"" style=""width: 300px; height: 300px;"" />
        </div>","0","3","2","choice","0",""
"","","","","","html-keyboard-response","23","400403","0.0-19.0-0.0-0.0","B91E9B68B87746D19B0336AAB07E81A4","0199d676-47eb-7398-af1d-53471d1c6d69","0199d675-8795-765b-adc2-c813de8cd3d1","","null","<div style=""display: flex; justify-content: center; align-items: center;"">
                     <img src=""images/causal/causal_series_3/causal_series_3_b.png"" style=""width: 300px; height: 300px;"" />
                   </div>","null","3","2","B","",""
"","","","","","html-keyboard-response","24","406404","0.0-19.0-0.0-1.0","B91E9B68B87746D19B0336AAB07E81A4","0199d676-47eb-7398-af1d-53471d1c6d69","0199d675-8795-765b-adc2-c813de8cd3d1","","null","<div style=""display: flex; justify-content: center; align-items: center;"">
                     <img src=""images/causal/causal_series_3/causal_series_3_c.png"" style=""width: 300px; height: 300px;"" />
                   </div>","null","3","2","C","",""
"","","","","","html-keyboard-response","25","412406","0.0-19.0-0.0-2.0","B91E9B68B87746D19B0336AAB07E81A4","0199d676-47eb-7398-af1d-53471d1c6d69","0199d675-8795-765b-adc2-c813de8cd3d1","","null","<div style=""display: flex; justify-content: center; align-items: center;"">
                     <img src=""images/causal/causal_series_3/causal_series_3_d.png"" style=""width: 300px; height: 300px;"" />
                   </div>","null","3","2","D","",""
"","","","","","survey-likert","26","420439","0.0-20.0","B91E9B68B87746D19B0336AAB07E81A4","0199d676-47eb-7398-af1d-53471d1c6d69","0199d675-8795-765b-adc2-c813de8cd3d1","","8031","","{""Q0"":4}","3","2","surprise_rating","","[0]"
"","","","","","survey-likert","27","424055","0.0-21.0","B91E9B68B87746D19B0336AAB07E81A4","0199d676-47eb-7398-af1d-53471d1c6d69","0199d675-8795-765b-adc2-c813de8cd3d1","","3616","","{""Q0"":2}","3","2","enjoyment_rating","","[0]"
"","","","","","html-keyboard-response","28","430056","0.0-22.0","B91E9B68B87746D19B0336AAB07E81A4","0199d676-47eb-7398-af1d-53471d1c6d69","0199d675-8795-765b-adc2-c813de8cd3d1","","null","<div style=""display: flex; justify-content: center; align-items: center;"">
                     <img src=""images/other/blank.png"" style=""width: 300px; height: 300px;"" />
                   </div>","null","0","0","blank","",""
"","","","","","html-keyboard-response","29","436057","0.0-23.0","B91E9B68B87746D19B0336AAB07E81A4","0199d676-47eb-7398-af1d-53471d1c6d69","0199d675-8795-765b-adc2-c813de8cd3d1","","null","<div style=""display: flex; justify-content: center; align-items: center;"">
                     <img src=""images/causal/causal_series_9/causal_series_9_a.png"" style=""width: 300px; height: 300px;"" />
                   </div>","null","9","1","A","",""
"","","","","","html-button-response","30","448509","0.0-24.0","B91E9B68B87746D19B0336AAB07E81A4","0199d676-47eb-7398-af1d-53471d1c6d69","0199d675-8795-765b-adc2-c813de8cd3d1","","12451","
        <div style=""display: flex; justify-content: center; align-items: center;"">
          <img src=""images/red_deck_2.png"" style=""width: 300px; height: 300px; margin-right: 10px;"" />
          <img src=""images/blue_deck_1.png"" style=""width: 300px; height: 300px;"" />
        </div>","1","9","1","choice","1",""
"","","","","","html-keyboard-response","31","454511","0.0-25.0-1.0-0.0","B91E9B68B87746D19B0336AAB07E81A4","0199d676-47eb-7398-af1d-53471d1c6d69","0199d675-8795-765b-adc2-c813de8cd3d1","","null","<div style=""display: flex; justify-content: center; align-items: center;"">
                     <img src=""images/semantic/semantic_series_9/semantic_series_9_b.png"" style=""width: 300px; height: 300px;"" />
                   </div>","null","9","1","B","",""
"","","","","","html-keyboard-response","32","460515","0.0-25.0-1.0-1.0","B91E9B68B87746D19B0336AAB07E81A4","0199d676-47eb-7398-af1d-53471d1c6d69","0199d675-8795-765b-adc2-c813de8cd3d1","","null","<div style=""display: flex; justify-content: center; align-items: center;"">
                     <img src=""images/semantic/semantic_series_9/semantic_series_9_c.png"" style=""width: 300px; height: 300px;"" />
                   </div>","null","9","1","C","",""
"","","","","","html-keyboard-response","33","466516","0.0-25.0-1.0-2.0","B91E9B68B87746D19B0336AAB07E81A4","0199d676-47eb-7398-af1d-53471d1c6d69","0199d675-8795-765b-adc2-c813de8cd3d1","","null","<div style=""display: flex; justify-content: center; align-items: center;"">
                     <img src=""images/semantic/semantic_series_9/semantic_series_9_d.png"" style=""width: 300px; height: 300px;"" />
                   </div>","null","9","1","D","",""
"","","","","","survey-likert","34","472628","0.0-26.0","B91E9B68B87746D19B0336AAB07E81A4","0199d676-47eb-7398-af1d-53471d1c6d69","0199d675-8795-765b-adc2-c813de8cd3d1","","6112","","{""Q0"":1}","9","1","surprise_rating","","[0]"
"","","","","","survey-likert","35","474229","0.0-27.0","B91E9B68B87746D19B0336AAB07E81A4","0199d676-47eb-7398-af1d-53471d1c6d69","0199d675-8795-765b-adc2-c813de8cd3d1","","1599","","{""Q0"":2}","9","1","enjoyment_rating","","[0]"
"","","","","","html-keyboard-response","36","480231","0.0-28.0","B91E9B68B87746D19B0336AAB07E81A4","0199d676-47eb-7398-af1d-53471d1c6d69","0199d675-8795-765b-adc2-c813de8cd3d1","","null","<div style=""display: flex; justify-content: center; align-items: center;"">
                     <img src=""images/other/blank.png"" style=""width: 300px; height: 300px;"" />
                   </div>","null","0","0","blank","",""
"","","","","","html-keyboard-response","37","486232","0.0-29.0","B91E9B68B87746D19B0336AAB07E81A4","0199d676-47eb-7398-af1d-53471d1c6d69","0199d675-8795-765b-adc2-c813de8cd3d1","","null","<div style=""display: flex; justify-content: center; align-items: center;"">
                     <img src=""images/causal/causal_series_4/causal_series_4_a.png"" style=""width: 300px; height: 300px;"" />
                   </div>","null","4","2","A","",""
"","","","","","html-button-response","38","488951","0.0-30.0","B91E9B68B87746D19B0336AAB07E81A4","0199d676-47eb-7398-af1d-53471d1c6d69","0199d675-8795-765b-adc2-c813de8cd3d1","","2717","
        <div style=""display: flex; justify-content: center; align-items: center;"">
          <img src=""images/red_deck_2.png"" style=""width: 300px; height: 300px; margin-right: 10px;"" />
          <img src=""images/blue_deck_1.png"" style=""width: 300px; height: 300px;"" />
        </div>","0","4","2","choice","0",""
"","","","","","html-keyboard-response","39","494953","0.0-31.0-0.0-0.0","B91E9B68B87746D19B0336AAB07E81A4","0199d676-47eb-7398-af1d-53471d1c6d69","0199d675-8795-765b-adc2-c813de8cd3d1","","null","<div style=""display: flex; justify-content: center; align-items: center;"">
                     <img src=""images/causal/causal_series_4/causal_series_4_b.png"" style=""width: 300px; height: 300px;"" />
                   </div>","null","4","2","B","",""
"","","","","","html-keyboard-response","40","500955","0.0-31.0-0.0-1.0","B91E9B68B87746D19B0336AAB07E81A4","0199d676-47eb-7398-af1d-53471d1c6d69","0199d675-8795-765b-adc2-c813de8cd3d1","","null","<div style=""display: flex; justify-content: center; align-items: center;"">
                     <img src=""images/causal/causal_series_4/causal_series_4_c.png"" style=""width: 300px; height: 300px;"" />
                   </div>","null","4","2","C","",""
"","","","","","html-keyboard-response","41","506956","0.0-31.0-0.0-2.0","B91E9B68B87746D19B0336AAB07E81A4","0199d676-47eb-7398-af1d-53471d1c6d69","0199d675-8795-765b-adc2-c813de8cd3d1","","null","<div style=""display: flex; justify-content: center; align-items: center;"">
                     <img src=""images/causal/causal_series_4/causal_series_4_d.png"" style=""width: 300px; height: 300px;"" />
                   </div>","null","4","2","D","",""
"","","","","","survey-likert","42","508988","0.0-32.0","B91E9B68B87746D19B0336AAB07E81A4","0199d676-47eb-7398-af1d-53471d1c6d69","0199d675-8795-765b-adc2-c813de8cd3d1","","2031","","{""Q0"":4}","4","2","surprise_rating","","[0]"
"","","","","","survey-likert","43","511199","0.0-33.0","B91E9B68B87746D19B0336AAB07E81A4","0199d676-47eb-7398-af1d-53471d1c6d69","0199d675-8795-765b-adc2-c813de8cd3d1","","2210","","{""Q0"":2}","4","2","enjoyment_rating","","[0]"
"","","","","","html-keyboard-response","44","517201","0.0-34.0","B91E9B68B87746D19B0336AAB07E81A4","0199d676-47eb-7398-af1d-53471d1c6d69","0199d675-8795-765b-adc2-c813de8cd3d1","","null","<div style=""display: flex; justify-content: center; align-items: center;"">
                     <img src=""images/other/blank.png"" style=""width: 300px; height: 300px;"" />
                   </div>","null","0","0","blank","",""
"","","","","","html-keyboard-response","45","523202","0.0-35.0","B91E9B68B87746D19B0336AAB07E81A4","0199d676-47eb-7398-af1d-53471d1c6d69","0199d675-8795-765b-adc2-c813de8cd3d1","","null","<div style=""display: flex; justify-content: center; align-items: center;"">
                     <img src=""images/causal/causal_series_5/causal_series_5_a.png"" style=""width: 300px; height: 300px;"" />
                   </div>","null","5","1","A","",""
"","","","","","html-button-response","46","524447","0.0-36.0","B91E9B68B87746D19B0336AAB07E81A4","0199d676-47eb-7398-af1d-53471d1c6d69","0199d675-8795-765b-adc2-c813de8cd3d1","","1244","
        <div style=""display: flex; justify-content: center; align-items: center;"">
          <img src=""images/red_deck_2.png"" style=""width: 300px; height: 300px; margin-right: 10px;"" />
          <img src=""images/blue_deck_1.png"" style=""width: 300px; height: 300px;"" />
        </div>","1","5","1","choice","1",""
"","","","","","html-keyboard-response","47","530448","0.0-37.0-1.0-0.0","B91E9B68B87746D19B0336AAB07E81A4","0199d676-47eb-7398-af1d-53471d1c6d69","0199d675-8795-765b-adc2-c813de8cd3d1","","null","<div style=""display: flex; justify-content: center; align-items: center;"">
                     <img src=""images/semantic/semantic_series_5/semantic_series_5_b.png"" style=""width: 300px; height: 300px;"" />
                   </div>","null","5","1","B","",""
"","","","","","html-keyboard-response","48","536452","0.0-37.0-1.0-1.0","B91E9B68B87746D19B0336AAB07E81A4","0199d676-47eb-7398-af1d-53471d1c6d69","0199d675-8795-765b-adc2-c813de8cd3d1","","null","<div style=""display: flex; justify-content: center; align-items: center;"">
                     <img src=""images/semantic/semantic_series_5/semantic_series_5_c.png"" style=""width: 300px; height: 300px;"" />
                   </div>","null","5","1","C","",""
"","","","","","html-keyboard-response","49","542453","0.0-37.0-1.0-2.0","B91E9B68B87746D19B0336AAB07E81A4","0199d676-47eb-7398-af1d-53471d1c6d69","0199d675-8795-765b-adc2-c813de8cd3d1","","null","<div style=""display: flex; justify-content: center; align-items: center;"">
                     <img src=""images/semantic/semantic_series_5/semantic_series_5_d.png"" style=""width: 300px; height: 300px;"" />
                   </div>","null","5","1","D","",""
"","","","","","survey-likert","50","547446","0.0-38.0","B91E9B68B87746D19B0336AAB07E81A4","0199d676-47eb-7398-af1d-53471d1c6d69","0199d675-8795-765b-adc2-c813de8cd3d1","","4992","","{""Q0"":4}","5","1","surprise_rating","","[0]"
"","","","","","survey-likert","51","549407","0.0-39.0","B91E9B68B87746D19B0336AAB07E81A4","0199d676-47eb-7398-af1d-53471d1c6d69","0199d675-8795-765b-adc2-c813de8cd3d1","","1961","","{""Q0"":3}","5","1","enjoyment_rating","","[0]"
"","","","","","html-keyboard-response","52","555411","0.0-40.0","B91E9B68B87746D19B0336AAB07E81A4","0199d676-47eb-7398-af1d-53471d1c6d69","0199d675-8795-765b-adc2-c813de8cd3d1","","null","<div style=""display: flex; justify-content: center; align-items: center;"">
                     <img src=""images/other/blank.png"" style=""width: 300px; height: 300px;"" />
                   </div>","null","0","0","blank","",""
"","","","","","html-keyboard-response","53","561414","0.0-41.0","B91E9B68B87746D19B0336AAB07E81A4","0199d676-47eb-7398-af1d-53471d1c6d69","0199d675-8795-765b-adc2-c813de8cd3d1","","null","<div style=""display: flex; justify-content: center; align-items: center;"">
                     <img src=""images/causal/causal_series_9/causal_series_9_a.png"" style=""width: 300px; height: 300px;"" />
                   </div>","null","9","2","A","",""
"","","","","","html-button-response","54","564511","0.0-42.0","B91E9B68B87746D19B0336AAB07E81A4","0199d676-47eb-7398-af1d-53471d1c6d69","0199d675-8795-765b-adc2-c813de8cd3d1","","3097","
        <div style=""display: flex; justify-content: center; align-items: center;"">
          <img src=""images/red_deck_2.png"" style=""width: 300px; height: 300px; margin-right: 10px;"" />
          <img src=""images/blue_deck_1.png"" style=""width: 300px; height: 300px;"" />
        </div>","1","9","2","choice","1",""
"","","","","","html-keyboard-response","55","570515","0.0-43.0-1.0-0.0","B91E9B68B87746D19B0336AAB07E81A4","0199d676-47eb-7398-af1d-53471d1c6d69","0199d675-8795-765b-adc2-c813de8cd3d1","","null","<div style=""display: flex; justify-content: center; align-items: center;"">
                     <img src=""images/semantic/semantic_series_9/semantic_series_9_b.png"" style=""width: 300px; height: 300px;"" />
                   </div>","null","9","2","B","",""
"","","","","","html-keyboard-response","56","576519","0.0-43.0-1.0-1.0","B91E9B68B87746D19B0336AAB07E81A4","0199d676-47eb-7398-af1d-53471d1c6d69","0199d675-8795-765b-adc2-c813de8cd3d1","","null","<div style=""display: flex; justify-content: center; align-items: center;"">
                     <img src=""images/semantic/semantic_series_9/semantic_series_9_c.png"" style=""width: 300px; height: 300px;"" />
                   </div>","null","9","2","C","",""
"","","","","","html-keyboard-response","57","582521","0.0-43.0-1.0-2.0","B91E9B68B87746D19B0336AAB07E81A4","0199d676-47eb-7398-af1d-53471d1c6d69","0199d675-8795-765b-adc2-c813de8cd3d1","","null","<div style=""display: flex; justify-content: center; align-items: center;"">
                     <img src=""images/semantic/semantic_series_9/semantic_series_9_d.png"" style=""width: 300px; height: 300px;"" />
                   </div>","null","9","2","D","",""
"","","","","","survey-likert","58","585219","0.0-44.0","B91E9B68B87746D19B0336AAB07E81A4","0199d676-47eb-7398-af1d-53471d1c6d69","0199d675-8795-765b-adc2-c813de8cd3d1","","2697","","{""Q0"":1}","9","2","surprise_rating","","[0]"
"","","","","","survey-likert","59","586958","0.0-45.0","B91E9B68B87746D19B0336AAB07E81A4","0199d676-47eb-7398-af1d-53471d1c6d69","0199d675-8795-765b-adc2-c813de8cd3d1","","1738","","{""Q0"":1}","9","2","enjoyment_rating","","[0]"
"","","","","","html-keyboard-response","60","592960","0.0-46.0","B91E9B68B87746D19B0336AAB07E81A4","0199d676-47eb-7398-af1d-53471d1c6d69","0199d675-8795-765b-adc2-c813de8cd3d1","","null","<div style=""display: flex; justify-content: center; align-items: center;"">
                     <img src=""images/other/blank.png"" style=""width: 300px; height: 300px;"" />
                   </div>","null","0","0","blank","",""
"","","","","","html-keyboard-response","61","598960","0.0-47.0","B91E9B68B87746D19B0336AAB07E81A4","0199d676-47eb-7398-af1d-53471d1c6d69","0199d675-8795-765b-adc2-c813de8cd3d1","","null","<div style=""display: flex; justify-content: center; align-items: center;"">
                     <img src=""images/causal/causal_series_1/causal_series_1_a.png"" style=""width: 300px; height: 300px;"" />
                   </div>","null","1","2","A","",""
"","","","","","html-button-response","62","603123","0.0-48.0","B91E9B68B87746D19B0336AAB07E81A4","0199d676-47eb-7398-af1d-53471d1c6d69","0199d675-8795-765b-adc2-c813de8cd3d1","","4162","
        <div style=""display: flex; justify-content: center; align-items: center;"">
          <img src=""images/red_deck_2.png"" style=""width: 300px; height: 300px; margin-right: 10px;"" />
          <img src=""images/blue_deck_1.png"" style=""width: 300px; height: 300px;"" />
        </div>","0","1","2","choice","0",""
"","","","","","html-keyboard-response","63","609124","0.0-49.0-0.0-0.0","B91E9B68B87746D19B0336AAB07E81A4","0199d676-47eb-7398-af1d-53471d1c6d69","0199d675-8795-765b-adc2-c813de8cd3d1","","null","<div style=""display: flex; justify-content: center; align-items: center;"">
                     <img src=""images/causal/causal_series_1/causal_series_1_b.png"" style=""width: 300px; height: 300px;"" />
                   </div>","null","1","2","B","",""
"","","","","","html-keyboard-response","64","615127","0.0-49.0-0.0-1.0","B91E9B68B87746D19B0336AAB07E81A4","0199d676-47eb-7398-af1d-53471d1c6d69","0199d675-8795-765b-adc2-c813de8cd3d1","","null","<div style=""display: flex; justify-content: center; align-items: center;"">
                     <img src=""images/causal/causal_series_1/causal_series_1_c.png"" style=""width: 300px; height: 300px;"" />
                   </div>","null","1","2","C","",""
"","","","","","html-keyboard-response","65","621128","0.0-49.0-0.0-2.0","B91E9B68B87746D19B0336AAB07E81A4","0199d676-47eb-7398-af1d-53471d1c6d69","0199d675-8795-765b-adc2-c813de8cd3d1","","null","<div style=""display: flex; justify-content: center; align-items: center;"">
                     <img src=""images/causal/causal_series_1/causal_series_1_d.png"" style=""width: 300px; height: 300px;"" />
                   </div>","null","1","2","D","",""
"","","","","","survey-likert","66","624274","0.0-50.0","B91E9B68B87746D19B0336AAB07E81A4","0199d676-47eb-7398-af1d-53471d1c6d69","0199d675-8795-765b-adc2-c813de8cd3d1","","3145","","{""Q0"":3}","1","2","surprise_rating","","[0]"
"","","","","","survey-likert","67","626842","0.0-51.0","B91E9B68B87746D19B0336AAB07E81A4","0199d676-47eb-7398-af1d-53471d1c6d69","0199d675-8795-765b-adc2-c813de8cd3d1","","2566","","{""Q0"":2}","1","2","enjoyment_rating","","[0]"
"","","","","","html-keyboard-response","68","632843","0.0-52.0","B91E9B68B87746D19B0336AAB07E81A4","0199d676-47eb-7398-af1d-53471d1c6d69","0199d675-8795-765b-adc2-c813de8cd3d1","","null","<div style=""display: flex; justify-content: center; align-items: center;"">
                     <img src=""images/other/blank.png"" style=""width: 300px; height: 300px;"" />
                   </div>","null","0","0","blank","",""
"","","","","","html-keyboard-response","69","638844","0.0-53.0","B91E9B68B87746D19B0336AAB07E81A4","0199d676-47eb-7398-af1d-53471d1c6d69","0199d675-8795-765b-adc2-c813de8cd3d1","","null","<div style=""display: flex; justify-content: center; align-items: center;"">
                     <img src=""images/causal/causal_series_7/causal_series_7_a.png"" style=""width: 300px; height: 300px;"" />
                   </div>","null","7","1","A","",""
"","","","","","html-button-response","70","640709","0.0-54.0","B91E9B68B87746D19B0336AAB07E81A4","0199d676-47eb-7398-af1d-53471d1c6d69","0199d675-8795-765b-adc2-c813de8cd3d1","","1864","
        <div style=""display: flex; justify-content: center; align-items: center;"">
          <img src=""images/red_deck_2.png"" style=""width: 300px; height: 300px; margin-right: 10px;"" />
          <img src=""images/blue_deck_1.png"" style=""width: 300px; height: 300px;"" />
        </div>","0","7","1","choice","0",""
"","","","","","html-keyboard-response","71","646710","0.0-55.0-0.0-0.0","B91E9B68B87746D19B0336AAB07E81A4","0199d676-47eb-7398-af1d-53471d1c6d69","0199d675-8795-765b-adc2-c813de8cd3d1","","null","<div style=""display: flex; justify-content: center; align-items: center;"">
                     <img src=""images/causal/causal_series_7/causal_series_7_b.png"" style=""width: 300px; height: 300px;"" />
                   </div>","null","7","1","B","",""
"","","","","","html-keyboard-response","72","652711","0.0-55.0-0.0-1.0","B91E9B68B87746D19B0336AAB07E81A4","0199d676-47eb-7398-af1d-53471d1c6d69","0199d675-8795-765b-adc2-c813de8cd3d1","","null","<div style=""display: flex; justify-content: center; align-items: center;"">
                     <img src=""images/causal/causal_series_7/causal_series_7_c.png"" style=""width: 300px; height: 300px;"" />
                   </div>","null","7","1","C","",""
"","","","","","html-keyboard-response","73","658716","0.0-55.0-0.0-2.0","B91E9B68B87746D19B0336AAB07E81A4","0199d676-47eb-7398-af1d-53471d1c6d69","0199d675-8795-765b-adc2-c813de8cd3d1","","null","<div style=""display: flex; justify-content: center; align-items: center;"">
                     <img src=""images/causal/causal_series_7/causal_series_7_d.png"" style=""width: 300px; height: 300px;"" />
                   </div>","null","7","1","D","",""
"","","","","","survey-likert","74","664692","0.0-56.0","B91E9B68B87746D19B0336AAB07E81A4","0199d676-47eb-7398-af1d-53471d1c6d69","0199d675-8795-765b-adc2-c813de8cd3d1","","5975","","{""Q0"":3}","7","1","surprise_rating","","[0]"
"","","","","","survey-likert","75","669157","0.0-57.0","B91E9B68B87746D19B0336AAB07E81A4","0199d676-47eb-7398-af1d-53471d1c6d69","0199d675-8795-765b-adc2-c813de8cd3d1","","4464","","{""Q0"":2}","7","1","enjoyment_rating","","[0]"
"","","","","","html-keyboard-response","76","675159","0.0-58.0","B91E9B68B87746D19B0336AAB07E81A4","0199d676-47eb-7398-af1d-53471d1c6d69","0199d675-8795-765b-adc2-c813de8cd3d1","","null","<div style=""display: flex; justify-content: center; align-items: center;"">
                     <img src=""images/other/blank.png"" style=""width: 300px; height: 300px;"" />
                   </div>","null","0","0","blank","",""
"","","","","","html-keyboard-response","77","681160","0.0-59.0","B91E9B68B87746D19B0336AAB07E81A4","0199d676-47eb-7398-af1d-53471d1c6d69","0199d675-8795-765b-adc2-c813de8cd3d1","","null","<div style=""display: flex; justify-content: center; align-items: center;"">
                     <img src=""images/causal/causal_series_10/causal_series_10_a.png"" style=""width: 300px; height: 300px;"" />
                   </div>","null","10","2","A","",""
"","","","","","html-button-response","78","684480","0.0-60.0","B91E9B68B87746D19B0336AAB07E81A4","0199d676-47eb-7398-af1d-53471d1c6d69","0199d675-8795-765b-adc2-c813de8cd3d1","","3319","
        <div style=""display: flex; justify-content: center; align-items: center;"">
          <img src=""images/red_deck_2.png"" style=""width: 300px; height: 300px; margin-right: 10px;"" />
          <img src=""images/blue_deck_1.png"" style=""width: 300px; height: 300px;"" />
        </div>","1","10","2","choice","1",""
"","","","","","html-keyboard-response","79","690481","0.0-61.0-1.0-0.0","B91E9B68B87746D19B0336AAB07E81A4","0199d676-47eb-7398-af1d-53471d1c6d69","0199d675-8795-765b-adc2-c813de8cd3d1","","null","<div style=""display: flex; justify-content: center; align-items: center;"">
                     <img src=""images/semantic/semantic_series_10/semantic_series_10_b.png"" style=""width: 300px; height: 300px;"" />
                   </div>","null","10","2","B","",""
"","","","","","html-keyboard-response","80","696482","0.0-61.0-1.0-1.0","B91E9B68B87746D19B0336AAB07E81A4","0199d676-47eb-7398-af1d-53471d1c6d69","0199d675-8795-765b-adc2-c813de8cd3d1","","null","<div style=""display: flex; justify-content: center; align-items: center;"">
                     <img src=""images/semantic/semantic_series_10/semantic_series_10_c.png"" style=""width: 300px; height: 300px;"" />
                   </div>","null","10","2","C","",""
"","","","","","html-keyboard-response","81","702486","0.0-61.0-1.0-2.0","B91E9B68B87746D19B0336AAB07E81A4","0199d676-47eb-7398-af1d-53471d1c6d69","0199d675-8795-765b-adc2-c813de8cd3d1","","null","<div style=""display: flex; justify-content: center; align-items: center;"">
                     <img src=""images/semantic/semantic_series_10/semantic_series_10_d.png"" style=""width: 300px; height: 300px;"" />
                   </div>","null","10","2","D","",""
"","","","","","survey-likert","82","703745","0.0-62.0","B91E9B68B87746D19B0336AAB07E81A4","0199d676-47eb-7398-af1d-53471d1c6d69","0199d675-8795-765b-adc2-c813de8cd3d1","","1258","","{""Q0"":1}","10","2","surprise_rating","","[0]"
"","","","","","survey-likert","83","706303","0.0-63.0","B91E9B68B87746D19B0336AAB07E81A4","0199d676-47eb-7398-af1d-53471d1c6d69","0199d675-8795-765b-adc2-c813de8cd3d1","","2556","","{""Q0"":1}","10","2","enjoyment_rating","","[0]"
"","","","","","html-keyboard-response","84","712306","0.0-64.0","B91E9B68B87746D19B0336AAB07E81A4","0199d676-47eb-7398-af1d-53471d1c6d69","0199d675-8795-765b-adc2-c813de8cd3d1","","null","<div style=""display: flex; justify-content: center; align-items: center;"">
                     <img src=""images/other/blank.png"" style=""width: 300px; height: 300px;"" />
                   </div>","null","0","0","blank","",""
"","","","","","html-keyboard-response","85","718307","0.0-65.0","B91E9B68B87746D19B0336AAB07E81A4","0199d676-47eb-7398-af1d-53471d1c6d69","0199d675-8795-765b-adc2-c813de8cd3d1","","null","<div style=""display: flex; justify-content: center; align-items: center;"">
                     <img src=""images/causal/causal_series_2/causal_series_2_a.png"" style=""width: 300px; height: 300px;"" />
                   </div>","null","2","2","A","",""
"","","","","","html-button-response","86","723893","0.0-66.0","B91E9B68B87746D19B0336AAB07E81A4","0199d676-47eb-7398-af1d-53471d1c6d69","0199d675-8795-765b-adc2-c813de8cd3d1","","5585","
        <div style=""display: flex; justify-content: center; align-items: center;"">
          <img src=""images/red_deck_2.png"" style=""width: 300px; height: 300px; margin-right: 10px;"" />
          <img src=""images/blue_deck_1.png"" style=""width: 300px; height: 300px;"" />
        </div>","0","2","2","choice","0",""
"","","","","","html-keyboard-response","87","729894","0.0-67.0-0.0-0.0","B91E9B68B87746D19B0336AAB07E81A4","0199d676-47eb-7398-af1d-53471d1c6d69","0199d675-8795-765b-adc2-c813de8cd3d1","","null","<div style=""display: flex; justify-content: center; align-items: center;"">
                     <img src=""images/causal/causal_series_2/causal_series_2_b.png"" style=""width: 300px; height: 300px;"" />
                   </div>","null","2","2","B","",""
"","","","","","html-keyboard-response","88","735897","0.0-67.0-0.0-1.0","B91E9B68B87746D19B0336AAB07E81A4","0199d676-47eb-7398-af1d-53471d1c6d69","0199d675-8795-765b-adc2-c813de8cd3d1","","null","<div style=""display: flex; justify-content: center; align-items: center;"">
                     <img src=""images/causal/causal_series_2/causal_series_2_c.png"" style=""width: 300px; height: 300px;"" />
                   </div>","null","2","2","C","",""
"","","","","","html-keyboard-response","89","741898","0.0-67.0-0.0-2.0","B91E9B68B87746D19B0336AAB07E81A4","0199d676-47eb-7398-af1d-53471d1c6d69","0199d675-8795-765b-adc2-c813de8cd3d1","","null","<div style=""display: flex; justify-content: center; align-items: center;"">
                     <img src=""images/causal/causal_series_2/causal_series_2_d.png"" style=""width: 300px; height: 300px;"" />
                   </div>","null","2","2","D","",""
"","","","","","survey-likert","90","748349","0.0-68.0","B91E9B68B87746D19B0336AAB07E81A4","0199d676-47eb-7398-af1d-53471d1c6d69","0199d675-8795-765b-adc2-c813de8cd3d1","","6451","","{""Q0"":3}","2","2","surprise_rating","","[0]"
"","","","","","survey-likert","91","750196","0.0-69.0","B91E9B68B87746D19B0336AAB07E81A4","0199d676-47eb-7398-af1d-53471d1c6d69","0199d675-8795-765b-adc2-c813de8cd3d1","","1846","","{""Q0"":3}","2","2","enjoyment_rating","","[0]"
"","","","","","html-keyboard-response","92","756199","0.0-70.0","B91E9B68B87746D19B0336AAB07E81A4","0199d676-47eb-7398-af1d-53471d1c6d69","0199d675-8795-765b-adc2-c813de8cd3d1","","null","<div style=""display: flex; justify-content: center; align-items: center;"">
                     <img src=""images/other/blank.png"" style=""width: 300px; height: 300px;"" />
                   </div>","null","0","0","blank","",""
"","","","","","html-keyboard-response","93","762201","0.0-71.0","B91E9B68B87746D19B0336AAB07E81A4","0199d676-47eb-7398-af1d-53471d1c6d69","0199d675-8795-765b-adc2-c813de8cd3d1","","null","<div style=""display: flex; justify-content: center; align-items: center;"">
                     <img src=""images/causal/causal_series_2/causal_series_2_a.png"" style=""width: 300px; height: 300px;"" />
                   </div>","null","2","1","A","",""
"","","","","","html-button-response","94","763309","0.0-72.0","B91E9B68B87746D19B0336AAB07E81A4","0199d676-47eb-7398-af1d-53471d1c6d69","0199d675-8795-765b-adc2-c813de8cd3d1","","1107","
        <div style=""display: flex; justify-content: center; align-items: center;"">
          <img src=""images/red_deck_2.png"" style=""width: 300px; height: 300px; margin-right: 10px;"" />
          <img src=""images/blue_deck_1.png"" style=""width: 300px; height: 300px;"" />
        </div>","1","2","1","choice","1",""
"","","","","","html-keyboard-response","95","769310","0.0-73.0-1.0-0.0","B91E9B68B87746D19B0336AAB07E81A4","0199d676-47eb-7398-af1d-53471d1c6d69","0199d675-8795-765b-adc2-c813de8cd3d1","","null","<div style=""display: flex; justify-content: center; align-items: center;"">
                     <img src=""images/semantic/semantic_series_2/semantic_series_2_b.png"" style=""width: 300px; height: 300px;"" />
                   </div>","null","2","1","B","",""
"","","","","","html-keyboard-response","96","775311","0.0-73.0-1.0-1.0","B91E9B68B87746D19B0336AAB07E81A4","0199d676-47eb-7398-af1d-53471d1c6d69","0199d675-8795-765b-adc2-c813de8cd3d1","","null","<div style=""display: flex; justify-content: center; align-items: center;"">
                     <img src=""images/semantic/semantic_series_2/semantic_series_2_c.png"" style=""width: 300px; height: 300px;"" />
                   </div>","null","2","1","C","",""
"","","","","","html-keyboard-response","97","781315","0.0-73.0-1.0-2.0","B91E9B68B87746D19B0336AAB07E81A4","0199d676-47eb-7398-af1d-53471d1c6d69","0199d675-8795-765b-adc2-c813de8cd3d1","","null","<div style=""display: flex; justify-content: center; align-items: center;"">
                     <img src=""images/semantic/semantic_series_2/semantic_series_2_d.png"" style=""width: 300px; height: 300px;"" />
                   </div>","null","2","1","D","",""
"","","","","","survey-likert","98","784357","0.0-74.0","B91E9B68B87746D19B0336AAB07E81A4","0199d676-47eb-7398-af1d-53471d1c6d69","0199d675-8795-765b-adc2-c813de8cd3d1","","3042","","{""Q0"":3}","2","1","surprise_rating","","[0]"
"","","","","","survey-likert","99","786250","0.0-75.0","B91E9B68B87746D19B0336AAB07E81A4","0199d676-47eb-7398-af1d-53471d1c6d69","0199d675-8795-765b-adc2-c813de8cd3d1","","1892","","{""Q0"":3}","2","1","enjoyment_rating","","[0]"
"","","","","","html-keyboard-response","100","792253","0.0-76.0","B91E9B68B87746D19B0336AAB07E81A4","0199d676-47eb-7398-af1d-53471d1c6d69","0199d675-8795-765b-adc2-c813de8cd3d1","","null","<div style=""display: flex; justify-content: center; align-items: center;"">
                     <img src=""images/other/blank.png"" style=""width: 300px; height: 300px;"" />
                   </div>","null","0","0","blank","",""
"","","","","","html-keyboard-response","101","798253","0.0-77.0","B91E9B68B87746D19B0336AAB07E81A4","0199d676-47eb-7398-af1d-53471d1c6d69","0199d675-8795-765b-adc2-c813de8cd3d1","","null","<div style=""display: flex; justify-content: center; align-items: center;"">
                     <img src=""images/causal/causal_series_8/causal_series_8_a.png"" style=""width: 300px; height: 300px;"" />
                   </div>","null","8","2","A","",""
"","","","","","html-button-response","102","803212","0.0-78.0","B91E9B68B87746D19B0336AAB07E81A4","0199d676-47eb-7398-af1d-53471d1c6d69","0199d675-8795-765b-adc2-c813de8cd3d1","","4958","
        <div style=""display: flex; justify-content: center; align-items: center;"">
          <img src=""images/red_deck_2.png"" style=""width: 300px; height: 300px; margin-right: 10px;"" />
          <img src=""images/blue_deck_1.png"" style=""width: 300px; height: 300px;"" />
        </div>","0","8","2","choice","0",""
"","","","","","html-keyboard-response","103","809214","0.0-79.0-0.0-0.0","B91E9B68B87746D19B0336AAB07E81A4","0199d676-47eb-7398-af1d-53471d1c6d69","0199d675-8795-765b-adc2-c813de8cd3d1","","null","<div style=""display: flex; justify-content: center; align-items: center;"">
                     <img src=""images/causal/causal_series_8/causal_series_8_b.png"" style=""width: 300px; height: 300px;"" />
                   </div>","null","8","2","B","",""
"","","","","","html-keyboard-response","104","815216","0.0-79.0-0.0-1.0","B91E9B68B87746D19B0336AAB07E81A4","0199d676-47eb-7398-af1d-53471d1c6d69","0199d675-8795-765b-adc2-c813de8cd3d1","","null","<div style=""display: flex; justify-content: center; align-items: center;"">
                     <img src=""images/causal/causal_series_8/causal_series_8_c.png"" style=""width: 300px; height: 300px;"" />
                   </div>","null","8","2","C","",""
"","","","","","html-keyboard-response","105","821217","0.0-79.0-0.0-2.0","B91E9B68B87746D19B0336AAB07E81A4","0199d676-47eb-7398-af1d-53471d1c6d69","0199d675-8795-765b-adc2-c813de8cd3d1","","null","<div style=""display: flex; justify-content: center; align-items: center;"">
                     <img src=""images/causal/causal_series_8/causal_series_8_d.png"" style=""width: 300px; height: 300px;"" />
                   </div>","null","8","2","D","",""
"","","","","","survey-likert","106","849926","0.0-80.0","B91E9B68B87746D19B0336AAB07E81A4","0199d676-47eb-7398-af1d-53471d1c6d69","0199d675-8795-765b-adc2-c813de8cd3d1","","28708","","{""Q0"":3}","8","2","surprise_rating","","[0]"
"","","","","","survey-likert","107","852867","0.0-81.0","B91E9B68B87746D19B0336AAB07E81A4","0199d676-47eb-7398-af1d-53471d1c6d69","0199d675-8795-765b-adc2-c813de8cd3d1","","2940","","{""Q0"":2}","8","2","enjoyment_rating","","[0]"
"","","","","","html-keyboard-response","108","858869","0.0-82.0","B91E9B68B87746D19B0336AAB07E81A4","0199d676-47eb-7398-af1d-53471d1c6d69","0199d675-8795-765b-adc2-c813de8cd3d1","","null","<div style=""display: flex; justify-content: center; align-items: center;"">
                     <img src=""images/other/blank.png"" style=""width: 300px; height: 300px;"" />
                   </div>","null","0","0","blank","",""
"","","","","","html-keyboard-response","109","864871","0.0-83.0","B91E9B68B87746D19B0336AAB07E81A4","0199d676-47eb-7398-af1d-53471d1c6d69","0199d675-8795-765b-adc2-c813de8cd3d1","","null","<div style=""display: flex; justify-content: center; align-items: center;"">
                     <img src=""images/causal/causal_series_10/causal_series_10_a.png"" style=""width: 300px; height: 300px;"" />
                   </div>","null","10","1","A","",""
"","","","","","html-button-response","110","866903","0.0-84.0","B91E9B68B87746D19B0336AAB07E81A4","0199d676-47eb-7398-af1d-53471d1c6d69","0199d675-8795-765b-adc2-c813de8cd3d1","","2031","
        <div style=""display: flex; justify-content: center; align-items: center;"">
          <img src=""images/red_deck_2.png"" style=""width: 300px; height: 300px; margin-right: 10px;"" />
          <img src=""images/blue_deck_1.png"" style=""width: 300px; height: 300px;"" />
        </div>","0","10","1","choice","0",""
"","","","","","html-keyboard-response","111","872904","0.0-85.0-0.0-0.0","B91E9B68B87746D19B0336AAB07E81A4","0199d676-47eb-7398-af1d-53471d1c6d69","0199d675-8795-765b-adc2-c813de8cd3d1","","null","<div style=""display: flex; justify-content: center; align-items: center;"">
                     <img src=""images/causal/causal_series_10/causal_series_10_b.png"" style=""width: 300px; height: 300px;"" />
                   </div>","null","10","1","B","",""
"","","","","","html-keyboard-response","112","878907","0.0-85.0-0.0-1.0","B91E9B68B87746D19B0336AAB07E81A4","0199d676-47eb-7398-af1d-53471d1c6d69","0199d675-8795-765b-adc2-c813de8cd3d1","","null","<div style=""display: flex; justify-content: center; align-items: center;"">
                     <img src=""images/causal/causal_series_10/causal_series_10_c.png"" style=""width: 300px; height: 300px;"" />
                   </div>","null","10","1","C","",""
"","","","","","html-keyboard-response","113","884910","0.0-85.0-0.0-2.0","B91E9B68B87746D19B0336AAB07E81A4","0199d676-47eb-7398-af1d-53471d1c6d69","0199d675-8795-765b-adc2-c813de8cd3d1","","null","<div style=""display: flex; justify-content: center; align-items: center;"">
                     <img src=""images/causal/causal_series_10/causal_series_10_d.png"" style=""width: 300px; height: 300px;"" />
                   </div>","null","10","1","D","",""
"","","","","","survey-likert","114","887500","0.0-86.0","B91E9B68B87746D19B0336AAB07E81A4","0199d676-47eb-7398-af1d-53471d1c6d69","0199d675-8795-765b-adc2-c813de8cd3d1","","2589","","{""Q0"":3}","10","1","surprise_rating","","[0]"
"","","","","","survey-likert","115","888423","0.0-87.0","B91E9B68B87746D19B0336AAB07E81A4","0199d676-47eb-7398-af1d-53471d1c6d69","0199d675-8795-765b-adc2-c813de8cd3d1","","922","","{""Q0"":3}","10","1","enjoyment_rating","","[0]"
"","","","","","html-keyboard-response","116","894427","0.0-88.0","B91E9B68B87746D19B0336AAB07E81A4","0199d676-47eb-7398-af1d-53471d1c6d69","0199d675-8795-765b-adc2-c813de8cd3d1","","null","<div style=""display: flex; justify-content: center; align-items: center;"">
                     <img src=""images/other/blank.png"" style=""width: 300px; height: 300px;"" />
                   </div>","null","0","0","blank","",""
"","","","","","html-keyboard-response","117","900432","0.0-89.0","B91E9B68B87746D19B0336AAB07E81A4","0199d676-47eb-7398-af1d-53471d1c6d69","0199d675-8795-765b-adc2-c813de8cd3d1","","null","<div style=""display: flex; justify-content: center; align-items: center;"">
                     <img src=""images/causal/causal_series_3/causal_series_3_a.png"" style=""width: 300px; height: 300px;"" />
                   </div>","null","3","1","A","",""
"","","","","","html-button-response","118","901824","0.0-90.0","B91E9B68B87746D19B0336AAB07E81A4","0199d676-47eb-7398-af1d-53471d1c6d69","0199d675-8795-765b-adc2-c813de8cd3d1","","1391","
        <div style=""display: flex; justify-content: center; align-items: center;"">
          <img src=""images/red_deck_2.png"" style=""width: 300px; height: 300px; margin-right: 10px;"" />
          <img src=""images/blue_deck_1.png"" style=""width: 300px; height: 300px;"" />
        </div>","1","3","1","choice","1",""
"","","","","","html-keyboard-response","119","907826","0.0-91.0-1.0-0.0","B91E9B68B87746D19B0336AAB07E81A4","0199d676-47eb-7398-af1d-53471d1c6d69","0199d675-8795-765b-adc2-c813de8cd3d1","","null","<div style=""display: flex; justify-content: center; align-items: center;"">
                     <img src=""images/semantic/semantic_series_3/semantic_series_3_b.png"" style=""width: 300px; height: 300px;"" />
                   </div>","null","3","1","B","",""
"","","","","","html-keyboard-response","120","913827","0.0-91.0-1.0-1.0","B91E9B68B87746D19B0336AAB07E81A4","0199d676-47eb-7398-af1d-53471d1c6d69","0199d675-8795-765b-adc2-c813de8cd3d1","","null","<div style=""display: flex; justify-content: center; align-items: center;"">
                     <img src=""images/semantic/semantic_series_3/semantic_series_3_c.png"" style=""width: 300px; height: 300px;"" />
                   </div>","null","3","1","C","",""
"","","","","","html-keyboard-response","121","919831","0.0-91.0-1.0-2.0","B91E9B68B87746D19B0336AAB07E81A4","0199d676-47eb-7398-af1d-53471d1c6d69","0199d675-8795-765b-adc2-c813de8cd3d1","","null","<div style=""display: flex; justify-content: center; align-items: center;"">
                     <img src=""images/semantic/semantic_series_3/semantic_series_3_d.png"" style=""width: 300px; height: 300px;"" />
                   </div>","null","3","1","D","",""
"","","","","","survey-likert","122","926023","0.0-92.0","B91E9B68B87746D19B0336AAB07E81A4","0199d676-47eb-7398-af1d-53471d1c6d69","0199d675-8795-765b-adc2-c813de8cd3d1","","6191","","{""Q0"":3}","3","1","surprise_rating","","[0]"
"","","","","","survey-likert","123","927616","0.0-93.0","B91E9B68B87746D19B0336AAB07E81A4","0199d676-47eb-7398-af1d-53471d1c6d69","0199d675-8795-765b-adc2-c813de8cd3d1","","1591","","{""Q0"":2}","3","1","enjoyment_rating","","[0]"
"","","","","","html-keyboard-response","124","933619","0.0-94.0","B91E9B68B87746D19B0336AAB07E81A4","0199d676-47eb-7398-af1d-53471d1c6d69","0199d675-8795-765b-adc2-c813de8cd3d1","","null","<div style=""display: flex; justify-content: center; align-items: center;"">
                     <img src=""images/other/blank.png"" style=""width: 300px; height: 300px;"" />
                   </div>","null","0","0","blank","",""
"","","","","","html-keyboard-response","125","939620","0.0-95.0","B91E9B68B87746D19B0336AAB07E81A4","0199d676-47eb-7398-af1d-53471d1c6d69","0199d675-8795-765b-adc2-c813de8cd3d1","","null","<div style=""display: flex; justify-content: center; align-items: center;"">
                     <img src=""images/causal/causal_series_4/causal_series_4_a.png"" style=""width: 300px; height: 300px;"" />
                   </div>","null","4","1","A","",""
"","","","","","html-button-response","126","942094","0.0-96.0","B91E9B68B87746D19B0336AAB07E81A4","0199d676-47eb-7398-af1d-53471d1c6d69","0199d675-8795-765b-adc2-c813de8cd3d1","","2473","
        <div style=""display: flex; justify-content: center; align-items: center;"">
          <img src=""images/red_deck_2.png"" style=""width: 300px; height: 300px; margin-right: 10px;"" />
          <img src=""images/blue_deck_1.png"" style=""width: 300px; height: 300px;"" />
        </div>","1","4","1","choice","1",""
"","","","","","html-keyboard-response","127","948095","0.0-97.0-1.0-0.0","B91E9B68B87746D19B0336AAB07E81A4","0199d676-47eb-7398-af1d-53471d1c6d69","0199d675-8795-765b-adc2-c813de8cd3d1","","null","<div style=""display: flex; justify-content: center; align-items: center;"">
                     <img src=""images/semantic/semantic_series_4/semantic_series_4_b.png"" style=""width: 300px; height: 300px;"" />
                   </div>","null","4","1","B","",""
"","","","","","html-keyboard-response","128","954097","0.0-97.0-1.0-1.0","B91E9B68B87746D19B0336AAB07E81A4","0199d676-47eb-7398-af1d-53471d1c6d69","0199d675-8795-765b-adc2-c813de8cd3d1","","null","<div style=""display: flex; justify-content: center; align-items: center;"">
                     <img src=""images/semantic/semantic_series_4/semantic_series_4_c.png"" style=""width: 300px; height: 300px;"" />
                   </div>","null","4","1","C","",""
"","","","","","html-keyboard-response","129","960098","0.0-97.0-1.0-2.0","B91E9B68B87746D19B0336AAB07E81A4","0199d676-47eb-7398-af1d-53471d1c6d69","0199d675-8795-765b-adc2-c813de8cd3d1","","null","<div style=""display: flex; justify-content: center; align-items: center;"">
                     <img src=""images/semantic/semantic_series_4/semantic_series_4_d.png"" style=""width: 300px; height: 300px;"" />
                   </div>","null","4","1","D","",""
"","","","","","survey-likert","130","964825","0.0-98.0","B91E9B68B87746D19B0336AAB07E81A4","0199d676-47eb-7398-af1d-53471d1c6d69","0199d675-8795-765b-adc2-c813de8cd3d1","","4727","","{""Q0"":3}","4","1","surprise_rating","","[0]"
"","","","","","survey-likert","131","966230","0.0-99.0","B91E9B68B87746D19B0336AAB07E81A4","0199d676-47eb-7398-af1d-53471d1c6d69","0199d675-8795-765b-adc2-c813de8cd3d1","","1404","","{""Q0"":2}","4","1","enjoyment_rating","","[0]"
"","","","","","html-keyboard-response","132","972232","0.0-100.0","B91E9B68B87746D19B0336AAB07E81A4","0199d676-47eb-7398-af1d-53471d1c6d69","0199d675-8795-765b-adc2-c813de8cd3d1","","null","<div style=""display: flex; justify-content: center; align-items: center;"">
                     <img src=""images/other/blank.png"" style=""width: 300px; height: 300px;"" />
                   </div>","null","0","0","blank","",""
"","","","","","html-keyboard-response","133","978235","0.0-101.0","B91E9B68B87746D19B0336AAB07E81A4","0199d676-47eb-7398-af1d-53471d1c6d69","0199d675-8795-765b-adc2-c813de8cd3d1","","null","<div style=""display: flex; justify-content: center; align-items: center;"">
                     <img src=""images/causal/causal_series_6/causal_series_6_a.png"" style=""width: 300px; height: 300px;"" />
                   </div>","null","6","1","A","",""
"","","","","","html-button-response","134","981652","0.0-102.0","B91E9B68B87746D19B0336AAB07E81A4","0199d676-47eb-7398-af1d-53471d1c6d69","0199d675-8795-765b-adc2-c813de8cd3d1","","3416","
        <div style=""display: flex; justify-content: center; align-items: center;"">
          <img src=""images/red_deck_2.png"" style=""width: 300px; height: 300px; margin-right: 10px;"" />
          <img src=""images/blue_deck_1.png"" style=""width: 300px; height: 300px;"" />
        </div>","1","6","1","choice","1",""
"","","","","","html-keyboard-response","135","987653","0.0-103.0-1.0-0.0","B91E9B68B87746D19B0336AAB07E81A4","0199d676-47eb-7398-af1d-53471d1c6d69","0199d675-8795-765b-adc2-c813de8cd3d1","","null","<div style=""display: flex; justify-content: center; align-items: center;"">
                     <img src=""images/semantic/semantic_series_6/semantic_series_6_b.png"" style=""width: 300px; height: 300px;"" />
                   </div>","null","6","1","B","",""
"","","","","","html-keyboard-response","136","993655","0.0-103.0-1.0-1.0","B91E9B68B87746D19B0336AAB07E81A4","0199d676-47eb-7398-af1d-53471d1c6d69","0199d675-8795-765b-adc2-c813de8cd3d1","","null","<div style=""display: flex; justify-content: center; align-items: center;"">
                     <img src=""images/semantic/semantic_series_6/semantic_series_6_c.png"" style=""width: 300px; height: 300px;"" />
                   </div>","null","6","1","C","",""
"","","","","","html-keyboard-response","137","999656","0.0-103.0-1.0-2.0","B91E9B68B87746D19B0336AAB07E81A4","0199d676-47eb-7398-af1d-53471d1c6d69","0199d675-8795-765b-adc2-c813de8cd3d1","","null","<div style=""display: flex; justify-content: center; align-items: center;"">
                     <img src=""images/semantic/semantic_series_6/semantic_series_6_d.png"" style=""width: 300px; height: 300px;"" />
                   </div>","null","6","1","D","",""
"","","","","","survey-likert","138","1003607","0.0-104.0","B91E9B68B87746D19B0336AAB07E81A4","0199d676-47eb-7398-af1d-53471d1c6d69","0199d675-8795-765b-adc2-c813de8cd3d1","","3950","","{""Q0"":3}","6","1","surprise_rating","","[0]"
"","","","","","survey-likert","139","1005804","0.0-105.0","B91E9B68B87746D19B0336AAB07E81A4","0199d676-47eb-7398-af1d-53471d1c6d69","0199d675-8795-765b-adc2-c813de8cd3d1","","2196","","{""Q0"":3}","6","1","enjoyment_rating","","[0]"
"","","","","","html-keyboard-response","140","1011805","0.0-106.0","B91E9B68B87746D19B0336AAB07E81A4","0199d676-47eb-7398-af1d-53471d1c6d69","0199d675-8795-765b-adc2-c813de8cd3d1","","null","<div style=""display: flex; justify-content: center; align-items: center;"">
                     <img src=""images/other/blank.png"" style=""width: 300px; height: 300px;"" />
                   </div>","null","0","0","blank","",""
"","","","","","html-keyboard-response","141","1017806","0.0-107.0","B91E9B68B87746D19B0336AAB07E81A4","0199d676-47eb-7398-af1d-53471d1c6d69","0199d675-8795-765b-adc2-c813de8cd3d1","","null","<div style=""display: flex; justify-content: center; align-items: center;"">
                     <img src=""images/causal/causal_series_6/causal_series_6_a.png"" style=""width: 300px; height: 300px;"" />
                   </div>","null","6","2","A","",""
"","","","","","html-button-response","142","1018662","0.0-108.0","B91E9B68B87746D19B0336AAB07E81A4","0199d676-47eb-7398-af1d-53471d1c6d69","0199d675-8795-765b-adc2-c813de8cd3d1","","855","
        <div style=""display: flex; justify-content: center; align-items: center;"">
          <img src=""images/red_deck_2.png"" style=""width: 300px; height: 300px; margin-right: 10px;"" />
          <img src=""images/blue_deck_1.png"" style=""width: 300px; height: 300px;"" />
        </div>","0","6","2","choice","0",""
"","","","","","html-keyboard-response","143","1024665","0.0-109.0-0.0-0.0","B91E9B68B87746D19B0336AAB07E81A4","0199d676-47eb-7398-af1d-53471d1c6d69","0199d675-8795-765b-adc2-c813de8cd3d1","","null","<div style=""display: flex; justify-content: center; align-items: center;"">
                     <img src=""images/causal/causal_series_6/causal_series_6_b.png"" style=""width: 300px; height: 300px;"" />
                   </div>","null","6","2","B","",""
"","","","","","html-keyboard-response","144","1030668","0.0-109.0-0.0-1.0","B91E9B68B87746D19B0336AAB07E81A4","0199d676-47eb-7398-af1d-53471d1c6d69","0199d675-8795-765b-adc2-c813de8cd3d1","","null","<div style=""display: flex; justify-content: center; align-items: center;"">
                     <img src=""images/causal/causal_series_6/causal_series_6_c.png"" style=""width: 300px; height: 300px;"" />
                   </div>","null","6","2","C","",""
"","","","","","html-keyboard-response","145","1036673","0.0-109.0-0.0-2.0","B91E9B68B87746D19B0336AAB07E81A4","0199d676-47eb-7398-af1d-53471d1c6d69","0199d675-8795-765b-adc2-c813de8cd3d1","","null","<div style=""display: flex; justify-content: center; align-items: center;"">
                     <img src=""images/causal/causal_series_6/causal_series_6_d.png"" style=""width: 300px; height: 300px;"" />
                   </div>","null","6","2","D","",""
"","","","","","survey-likert","146","1041645","0.0-110.0","B91E9B68B87746D19B0336AAB07E81A4","0199d676-47eb-7398-af1d-53471d1c6d69","0199d675-8795-765b-adc2-c813de8cd3d1","","4971","","{""Q0"":3}","6","2","surprise_rating","","[0]"
"","","","","","survey-likert","147","1043721","0.0-111.0","B91E9B68B87746D19B0336AAB07E81A4","0199d676-47eb-7398-af1d-53471d1c6d69","0199d675-8795-765b-adc2-c813de8cd3d1","","2075","","{""Q0"":2}","6","2","enjoyment_rating","","[0]"
"","","","","","html-keyboard-response","148","1049726","0.0-112.0","B91E9B68B87746D19B0336AAB07E81A4","0199d676-47eb-7398-af1d-53471d1c6d69","0199d675-8795-765b-adc2-c813de8cd3d1","","null","<div style=""display: flex; justify-content: center; align-items: center;"">
                     <img src=""images/other/blank.png"" style=""width: 300px; height: 300px;"" />
                   </div>","null","0","0","blank","",""
"","","","","","html-keyboard-response","149","1055729","0.0-113.0","B91E9B68B87746D19B0336AAB07E81A4","0199d676-47eb-7398-af1d-53471d1c6d69","0199d675-8795-765b-adc2-c813de8cd3d1","","null","<div style=""display: flex; justify-content: center; align-items: center;"">
                     <img src=""images/causal/causal_series_5/causal_series_5_a.png"" style=""width: 300px; height: 300px;"" />
                   </div>","null","5","2","A","",""
"","","","","","html-button-response","150","1056330","0.0-114.0","B91E9B68B87746D19B0336AAB07E81A4","0199d676-47eb-7398-af1d-53471d1c6d69","0199d675-8795-765b-adc2-c813de8cd3d1","","600","
        <div style=""display: flex; justify-content: center; align-items: center;"">
          <img src=""images/red_deck_2.png"" style=""width: 300px; height: 300px; margin-right: 10px;"" />
          <img src=""images/blue_deck_1.png"" style=""width: 300px; height: 300px;"" />
        </div>","0","5","2","choice","0",""
"","","","","","html-keyboard-response","151","1062331","0.0-115.0-0.0-0.0","B91E9B68B87746D19B0336AAB07E81A4","0199d676-47eb-7398-af1d-53471d1c6d69","0199d675-8795-765b-adc2-c813de8cd3d1","","null","<div style=""display: flex; justify-content: center; align-items: center;"">
                     <img src=""images/causal/causal_series_5/causal_series_5_b.png"" style=""width: 300px; height: 300px;"" />
                   </div>","null","5","2","B","",""
"","","","","","html-keyboard-response","152","1068335","0.0-115.0-0.0-1.0","B91E9B68B87746D19B0336AAB07E81A4","0199d676-47eb-7398-af1d-53471d1c6d69","0199d675-8795-765b-adc2-c813de8cd3d1","","null","<div style=""display: flex; justify-content: center; align-items: center;"">
                     <img src=""images/causal/causal_series_5/causal_series_5_c.png"" style=""width: 300px; height: 300px;"" />
                   </div>","null","5","2","C","",""
"","","","","","html-keyboard-response","153","1074339","0.0-115.0-0.0-2.0","B91E9B68B87746D19B0336AAB07E81A4","0199d676-47eb-7398-af1d-53471d1c6d69","0199d675-8795-765b-adc2-c813de8cd3d1","","null","<div style=""display: flex; justify-content: center; align-items: center;"">
                     <img src=""images/causal/causal_series_5/causal_series_5_d.png"" style=""width: 300px; height: 300px;"" />
                   </div>","null","5","2","D","",""
"","","","","","survey-likert","154","1077874","0.0-116.0","B91E9B68B87746D19B0336AAB07E81A4","0199d676-47eb-7398-af1d-53471d1c6d69","0199d675-8795-765b-adc2-c813de8cd3d1","","3534","","{""Q0"":3}","5","2","surprise_rating","","[0]"
"","","","","","survey-likert","155","1081897","0.0-117.0","B91E9B68B87746D19B0336AAB07E81A4","0199d676-47eb-7398-af1d-53471d1c6d69","0199d675-8795-765b-adc2-c813de8cd3d1","","4022","","{""Q0"":3}","5","2","enjoyment_rating","","[0]"
"","","","","","html-keyboard-response","156","1087901","0.0-118.0","B91E9B68B87746D19B0336AAB07E81A4","0199d676-47eb-7398-af1d-53471d1c6d69","0199d675-8795-765b-adc2-c813de8cd3d1","","null","<div style=""display: flex; justify-content: center; align-items: center;"">
                     <img src=""images/other/blank.png"" style=""width: 300px; height: 300px;"" />
                   </div>","null","0","0","blank","",""
"","","","","","html-keyboard-response","157","1093902","0.0-119.0","B91E9B68B87746D19B0336AAB07E81A4","0199d676-47eb-7398-af1d-53471d1c6d69","0199d675-8795-765b-adc2-c813de8cd3d1","","null","<div style=""display: flex; justify-content: center; align-items: center;"">
                     <img src=""images/causal/causal_series_7/causal_series_7_a.png"" style=""width: 300px; height: 300px;"" />
                   </div>","null","7","2","A","",""
"","","","","","html-button-response","158","1095624","0.0-120.0","B91E9B68B87746D19B0336AAB07E81A4","0199d676-47eb-7398-af1d-53471d1c6d69","0199d675-8795-765b-adc2-c813de8cd3d1","","1721","
        <div style=""display: flex; justify-content: center; align-items: center;"">
          <img src=""images/red_deck_2.png"" style=""width: 300px; height: 300px; margin-right: 10px;"" />
          <img src=""images/blue_deck_1.png"" style=""width: 300px; height: 300px;"" />
        </div>","1","7","2","choice","1",""
"","","","","","html-keyboard-response","159","1101627","0.0-121.0-1.0-0.0","B91E9B68B87746D19B0336AAB07E81A4","0199d676-47eb-7398-af1d-53471d1c6d69","0199d675-8795-765b-adc2-c813de8cd3d1","","null","<div style=""display: flex; justify-content: center; align-items: center;"">
                     <img src=""images/semantic/semantic_series_7/semantic_series_7_b.png"" style=""width: 300px; height: 300px;"" />
                   </div>","null","7","2","B","",""
"","","","","","html-keyboard-response","160","1107631","0.0-121.0-1.0-1.0","B91E9B68B87746D19B0336AAB07E81A4","0199d676-47eb-7398-af1d-53471d1c6d69","0199d675-8795-765b-adc2-c813de8cd3d1","","null","<div style=""display: flex; justify-content: center; align-items: center;"">
                     <img src=""images/semantic/semantic_series_7/semantic_series_7_c.png"" style=""width: 300px; height: 300px;"" />
                   </div>","null","7","2","C","",""
"","","","","","html-keyboard-response","161","1113633","0.0-121.0-1.0-2.0","B91E9B68B87746D19B0336AAB07E81A4","0199d676-47eb-7398-af1d-53471d1c6d69","0199d675-8795-765b-adc2-c813de8cd3d1","","null","<div style=""display: flex; justify-content: center; align-items: center;"">
                     <img src=""images/semantic/semantic_series_7/semantic_series_7_d.png"" style=""width: 300px; height: 300px;"" />
                   </div>","null","7","2","D","",""
"","","","","","survey-likert","162","1117298","0.0-122.0","B91E9B68B87746D19B0336AAB07E81A4","0199d676-47eb-7398-af1d-53471d1c6d69","0199d675-8795-765b-adc2-c813de8cd3d1","","3665","","{""Q0"":4}","7","2","surprise_rating","","[0]"
"","","","","","survey-likert","163","1120047","0.0-123.0","B91E9B68B87746D19B0336AAB07E81A4","0199d676-47eb-7398-af1d-53471d1c6d69","0199d675-8795-765b-adc2-c813de8cd3d1","","2748","","{""Q0"":2}","7","2","enjoyment_rating","","[0]"
"","","","","","html-keyboard-response","164","1126048","0.0-124.0","B91E9B68B87746D19B0336AAB07E81A4","0199d676-47eb-7398-af1d-53471d1c6d69","0199d675-8795-765b-adc2-c813de8cd3d1","","null","<div style=""display: flex; justify-content: center; align-items: center;"">
                     <img src=""images/other/blank.png"" style=""width: 300px; height: 300px;"" />
                   </div>","null","0","0","blank","",""
"","","","","","survey-text","165","1153446","0.0-125.0","B91E9B68B87746D19B0336AAB07E81A4","0199d676-47eb-7398-af1d-53471d1c6d69","0199d675-8795-765b-adc2-c813de8cd3d1","","27396","","{""Q0"":""The blue continued the story, the red went in a different direction.""}","","","","",""
"","","","","","html-button-response","166","1158344","0.0-126.0","B91E9B68B87746D19B0336AAB07E81A4","0199d676-47eb-7398-af1d-53471d1c6d69","0199d675-8795-765b-adc2-c813de8cd3d1","","4897","Which color deck do the following sentences continue the story from?","0","","","","",""
"","","","","","html-button-response","167","1161668","0.0-127.0","B91E9B68B87746D19B0336AAB07E81A4","0199d676-47eb-7398-af1d-53471d1c6d69","0199d675-8795-765b-adc2-c813de8cd3d1","","3323","Which color deck do the following sentences NOT follow the story from?","1","","","","",""
"","","","","","html-button-response","168","1169548","0.0-128.0","B91E9B68B87746D19B0336AAB07E81A4","0199d676-47eb-7398-af1d-53471d1c6d69","0199d675-8795-765b-adc2-c813de8cd3d1","","7880","Which type of deck did you prefer overall?","1","","","","",""
"","","","","","survey-text","169","1178285","0.0-129.0","B91E9B68B87746D19B0336AAB07E81A4","0199d676-47eb-7398-af1d-53471d1c6d69","0199d675-8795-765b-adc2-c813de8cd3d1","","8734","","{""Q0"":""MALE"",""Q1"":""24""}","","","","",""
"","","","","","instructions","170","1183579","0.0-130.0","B91E9B68B87746D19B0336AAB07E81A4","0199d676-47eb-7398-af1d-53471d1c6d69","0199d675-8795-765b-adc2-c813de8cd3d1","[{""page_index"":0,""viewing_time"":5294}]","5294","","","","","","",""
