"success","timeout","failed_images","failed_audio","failed_video","trial_type","trial_index","time_elapsed","internal_node_id","subject_id","study_id","session_id","view_history","rt","stimulus","response","choice"
"true","false","[]","[]","[]","preload","0","3326","0.0-0.0","11611D7ADEE14F5D91DCFC3B7ADFDB7F","04f7636c-03c1-4eb4-87ca-dfd696c3b32e","935a6d0c-0ba8-4f12-81d2-6af4ae24cda6","","","","",""
"","","","","","instructions","1","63410","0.0-1.0","11611D7ADEE14F5D91DCFC3B7ADFDB7F","04f7636c-03c1-4eb4-87ca-dfd696c3b32e","935a6d0c-0ba8-4f12-81d2-6af4ae24cda6","[{""page_index"":0,""viewing_time"":60080}]","60082","","",""
"","","","","","instructions","2","85224","0.0-2.0","11611D7ADEE14F5D91DCFC3B7ADFDB7F","04f7636c-03c1-4eb4-87ca-dfd696c3b32e","935a6d0c-0ba8-4f12-81d2-6af4ae24cda6","[{""page_index"":0,""viewing_time"":21805}]","21806","","",""
"true","","","","","fullscreen","3","87958","0.0-3.0","11611D7ADEE14F5D91DCFC3B7ADFDB7F","04f7636c-03c1-4eb4-87ca-dfd696c3b32e","935a6d0c-0ba8-4f12-81d2-6af4ae24cda6","","1718","","",""
"","","","","","instructions","4","115388","0.0-4.0","11611D7ADEE14F5D91DCFC3B7ADFDB7F","04f7636c-03c1-4eb4-87ca-dfd696c3b32e","935a6d0c-0ba8-4f12-81d2-6af4ae24cda6","[{""page_index"":0,""viewing_time"":27425}]","27429","","",""
"","","","","","html-keyboard-response","5","118407","0.0-5.0","11611D7ADEE14F5D91DCFC3B7ADFDB7F","04f7636c-03c1-4eb4-87ca-dfd696c3b32e","935a6d0c-0ba8-4f12-81d2-6af4ae24cda6","","null","<div style=""display: flex; justify-content: center; align-items: center;"">
                <img src=""images/causal/causal_series_6/causal_series_6_a.jpg"" style=""width: 300px; height: 300px;"" />
              </div>","null",""
"","","","","","html-button-response","6","120791","0.0-6.0","11611D7ADEE14F5D91DCFC3B7ADFDB7F","04f7636c-03c1-4eb4-87ca-dfd696c3b32e","935a6d0c-0ba8-4f12-81d2-6af4ae24cda6","","2373","
    <div style=""display: flex; justify-content: center; align-items: center;"">
      <img src=""images/red_deck_2.png"" style=""width: 300px; height: 300px; margin-right: 10px;"" />
      <img src=""images/blue_deck_1.png"" style=""width: 300px; height: 300px;"" />
    </div>","0","0"
"","","","","","html-keyboard-response","7","123794","0.0-7.0-0.0-0.0","11611D7ADEE14F5D91DCFC3B7ADFDB7F","04f7636c-03c1-4eb4-87ca-dfd696c3b32e","935a6d0c-0ba8-4f12-81d2-6af4ae24cda6","","null","<div style=""display: flex; justify-content: center; align-items: center;"">
                <img src=""images/causal/causal_series_6/causal_series_6_b.jpg"" style=""width: 300px; height: 300px;"" />
              </div>","null",""
"","","","","","html-keyboard-response","8","126796","0.0-7.0-0.0-1.0","11611D7ADEE14F5D91DCFC3B7ADFDB7F","04f7636c-03c1-4eb4-87ca-dfd696c3b32e","935a6d0c-0ba8-4f12-81d2-6af4ae24cda6","","null","<div style=""display: flex; justify-content: center; align-items: center;"">
                <img src=""images/causal/causal_series_6/causal_series_6_c.jpg"" style=""width: 300px; height: 300px;"" />
              </div>","null",""
"","","","","","html-keyboard-response","9","129797","0.0-7.0-0.0-2.0","11611D7ADEE14F5D91DCFC3B7ADFDB7F","04f7636c-03c1-4eb4-87ca-dfd696c3b32e","935a6d0c-0ba8-4f12-81d2-6af4ae24cda6","","null","<div style=""display: flex; justify-content: center; align-items: center;"">
                <img src=""images/causal/causal_series_6/causal_series_6_d.jpg"" style=""width: 300px; height: 300px;"" />
              </div>","null",""
"","","","","","html-keyboard-response","10","132800","0.0-8.0","11611D7ADEE14F5D91DCFC3B7ADFDB7F","04f7636c-03c1-4eb4-87ca-dfd696c3b32e","935a6d0c-0ba8-4f12-81d2-6af4ae24cda6","","null","<div style=""display: flex; justify-content: center; align-items: center;"">
                <img src=""images/other/blank.jpg"" style=""width: 300px; height: 300px;"" />
              </div>","null",""
"","","","","","html-keyboard-response","11","135802","0.0-9.0","11611D7ADEE14F5D91DCFC3B7ADFDB7F","04f7636c-03c1-4eb4-87ca-dfd696c3b32e","935a6d0c-0ba8-4f12-81d2-6af4ae24cda6","","null","<div style=""display: flex; justify-content: center; align-items: center;"">
                <img src=""images/causal/causal_series_5/causal_series_5_a.jpg"" style=""width: 300px; height: 300px;"" />
              </div>","null",""
"","","","","","html-button-response","12","137160","0.0-10.0","11611D7ADEE14F5D91DCFC3B7ADFDB7F","04f7636c-03c1-4eb4-87ca-dfd696c3b32e","935a6d0c-0ba8-4f12-81d2-6af4ae24cda6","","1358","
    <div style=""display: flex; justify-content: center; align-items: center;"">
      <img src=""images/red_deck_2.png"" style=""width: 300px; height: 300px; margin-right: 10px;"" />
      <img src=""images/blue_deck_1.png"" style=""width: 300px; height: 300px;"" />
    </div>","1","1"
"","","","","","html-keyboard-response","13","140163","0.0-11.0-1.0-0.0","11611D7ADEE14F5D91DCFC3B7ADFDB7F","04f7636c-03c1-4eb4-87ca-dfd696c3b32e","935a6d0c-0ba8-4f12-81d2-6af4ae24cda6","","null","<div style=""display: flex; justify-content: center; align-items: center;"">
                <img src=""images/semantic/semantic_series_12/semantic_series_12_d.jpg"" style=""width: 300px; height: 300px;"" />
              </div>","null",""
"","","","","","html-keyboard-response","14","143176","0.0-11.0-1.0-1.0","11611D7ADEE14F5D91DCFC3B7ADFDB7F","04f7636c-03c1-4eb4-87ca-dfd696c3b32e","935a6d0c-0ba8-4f12-81d2-6af4ae24cda6","","null","<div style=""display: flex; justify-content: center; align-items: center;"">
                <img src=""images/semantic/semantic_series_13/semantic_series_13_d.jpg"" style=""width: 300px; height: 300px;"" />
              </div>","null",""
"","","","","","html-keyboard-response","15","146179","0.0-11.0-1.0-2.0","11611D7ADEE14F5D91DCFC3B7ADFDB7F","04f7636c-03c1-4eb4-87ca-dfd696c3b32e","935a6d0c-0ba8-4f12-81d2-6af4ae24cda6","","null","<div style=""display: flex; justify-content: center; align-items: center;"">
                <img src=""images/semantic/semantic_series_14/semantic_series_14_d.jpg"" style=""width: 300px; height: 300px;"" />
              </div>","null",""
"","","","","","html-keyboard-response","16","149181","0.0-12.0","11611D7ADEE14F5D91DCFC3B7ADFDB7F","04f7636c-03c1-4eb4-87ca-dfd696c3b32e","935a6d0c-0ba8-4f12-81d2-6af4ae24cda6","","null","<div style=""display: flex; justify-content: center; align-items: center;"">
                <img src=""images/other/blank.jpg"" style=""width: 300px; height: 300px;"" />
              </div>","null",""
"","","","","","html-keyboard-response","17","152182","0.0-13.0","11611D7ADEE14F5D91DCFC3B7ADFDB7F","04f7636c-03c1-4eb4-87ca-dfd696c3b32e","935a6d0c-0ba8-4f12-81d2-6af4ae24cda6","","null","<div style=""display: flex; justify-content: center; align-items: center;"">
                <img src=""images/causal/causal_series_7/causal_series_7_a.jpg"" style=""width: 300px; height: 300px;"" />
              </div>","null",""
"","","","","","html-button-response","18","152892","0.0-14.0","11611D7ADEE14F5D91DCFC3B7ADFDB7F","04f7636c-03c1-4eb4-87ca-dfd696c3b32e","935a6d0c-0ba8-4f12-81d2-6af4ae24cda6","","709","
    <div style=""display: flex; justify-content: center; align-items: center;"">
      <img src=""images/red_deck_2.png"" style=""width: 300px; height: 300px; margin-right: 10px;"" />
      <img src=""images/blue_deck_1.png"" style=""width: 300px; height: 300px;"" />
    </div>","0","0"
"","","","","","html-keyboard-response","19","155894","0.0-15.0-0.0-0.0","11611D7ADEE14F5D91DCFC3B7ADFDB7F","04f7636c-03c1-4eb4-87ca-dfd696c3b32e","935a6d0c-0ba8-4f12-81d2-6af4ae24cda6","","null","<div style=""display: flex; justify-content: center; align-items: center;"">
                <img src=""images/causal/causal_series_7/causal_series_7_b.jpg"" style=""width: 300px; height: 300px;"" />
              </div>","null",""
"","","","","","html-keyboard-response","20","158896","0.0-15.0-0.0-1.0","11611D7ADEE14F5D91DCFC3B7ADFDB7F","04f7636c-03c1-4eb4-87ca-dfd696c3b32e","935a6d0c-0ba8-4f12-81d2-6af4ae24cda6","","null","<div style=""display: flex; justify-content: center; align-items: center;"">
                <img src=""images/causal/causal_series_7/causal_series_7_c.jpg"" style=""width: 300px; height: 300px;"" />
              </div>","null",""
"","","","","","html-keyboard-response","21","161898","0.0-15.0-0.0-2.0","11611D7ADEE14F5D91DCFC3B7ADFDB7F","04f7636c-03c1-4eb4-87ca-dfd696c3b32e","935a6d0c-0ba8-4f12-81d2-6af4ae24cda6","","null","<div style=""display: flex; justify-content: center; align-items: center;"">
                <img src=""images/causal/causal_series_7/causal_series_7_d.jpg"" style=""width: 300px; height: 300px;"" />
              </div>","null",""
"","","","","","html-keyboard-response","22","164901","0.0-16.0","11611D7ADEE14F5D91DCFC3B7ADFDB7F","04f7636c-03c1-4eb4-87ca-dfd696c3b32e","935a6d0c-0ba8-4f12-81d2-6af4ae24cda6","","null","<div style=""display: flex; justify-content: center; align-items: center;"">
                <img src=""images/other/blank.jpg"" style=""width: 300px; height: 300px;"" />
              </div>","null",""
"","","","","","html-keyboard-response","23","167903","0.0-17.0","11611D7ADEE14F5D91DCFC3B7ADFDB7F","04f7636c-03c1-4eb4-87ca-dfd696c3b32e","935a6d0c-0ba8-4f12-81d2-6af4ae24cda6","","null","<div style=""display: flex; justify-content: center; align-items: center;"">
                <img src=""images/causal/causal_series_18/causal_series_18_a.jpg"" style=""width: 300px; height: 300px;"" />
              </div>","null",""
"","","","","","html-button-response","24","168801","0.0-18.0","11611D7ADEE14F5D91DCFC3B7ADFDB7F","04f7636c-03c1-4eb4-87ca-dfd696c3b32e","935a6d0c-0ba8-4f12-81d2-6af4ae24cda6","","888","
    <div style=""display: flex; justify-content: center; align-items: center;"">
      <img src=""images/red_deck_2.png"" style=""width: 300px; height: 300px; margin-right: 10px;"" />
      <img src=""images/blue_deck_1.png"" style=""width: 300px; height: 300px;"" />
    </div>","0","0"
"","","","","","html-keyboard-response","25","171811","0.0-19.0-0.0-0.0","11611D7ADEE14F5D91DCFC3B7ADFDB7F","04f7636c-03c1-4eb4-87ca-dfd696c3b32e","935a6d0c-0ba8-4f12-81d2-6af4ae24cda6","","null","<div style=""display: flex; justify-content: center; align-items: center;"">
                <img src=""images/causal/causal_series_18/causal_series_18_b.jpg"" style=""width: 300px; height: 300px;"" />
              </div>","null",""
"","","","","","html-keyboard-response","26","174852","0.0-19.0-0.0-1.0","11611D7ADEE14F5D91DCFC3B7ADFDB7F","04f7636c-03c1-4eb4-87ca-dfd696c3b32e","935a6d0c-0ba8-4f12-81d2-6af4ae24cda6","","null","<div style=""display: flex; justify-content: center; align-items: center;"">
                <img src=""images/causal/causal_series_18/causal_series_18_c.jpg"" style=""width: 300px; height: 300px;"" />
              </div>","null",""
"","","","","","html-keyboard-response","27","177854","0.0-19.0-0.0-2.0","11611D7ADEE14F5D91DCFC3B7ADFDB7F","04f7636c-03c1-4eb4-87ca-dfd696c3b32e","935a6d0c-0ba8-4f12-81d2-6af4ae24cda6","","null","<div style=""display: flex; justify-content: center; align-items: center;"">
                <img src=""images/causal/causal_series_18/causal_series_18_d.jpg"" style=""width: 300px; height: 300px;"" />
              </div>","null",""
"","","","","","html-keyboard-response","28","180856","0.0-20.0","11611D7ADEE14F5D91DCFC3B7ADFDB7F","04f7636c-03c1-4eb4-87ca-dfd696c3b32e","935a6d0c-0ba8-4f12-81d2-6af4ae24cda6","","null","<div style=""display: flex; justify-content: center; align-items: center;"">
                <img src=""images/other/blank.jpg"" style=""width: 300px; height: 300px;"" />
              </div>","null",""
"","","","","","html-keyboard-response","29","183859","0.0-21.0","11611D7ADEE14F5D91DCFC3B7ADFDB7F","04f7636c-03c1-4eb4-87ca-dfd696c3b32e","935a6d0c-0ba8-4f12-81d2-6af4ae24cda6","","null","<div style=""display: flex; justify-content: center; align-items: center;"">
                <img src=""images/causal/causal_series_10/causal_series_10_a.jpg"" style=""width: 300px; height: 300px;"" />
              </div>","null",""
"","","","","","html-button-response","30","185669","0.0-22.0","11611D7ADEE14F5D91DCFC3B7ADFDB7F","04f7636c-03c1-4eb4-87ca-dfd696c3b32e","935a6d0c-0ba8-4f12-81d2-6af4ae24cda6","","1803","
    <div style=""display: flex; justify-content: center; align-items: center;"">
      <img src=""images/red_deck_2.png"" style=""width: 300px; height: 300px; margin-right: 10px;"" />
      <img src=""images/blue_deck_1.png"" style=""width: 300px; height: 300px;"" />
    </div>","0","0"
"","","","","","html-keyboard-response","31","188672","0.0-23.0-0.0-0.0","11611D7ADEE14F5D91DCFC3B7ADFDB7F","04f7636c-03c1-4eb4-87ca-dfd696c3b32e","935a6d0c-0ba8-4f12-81d2-6af4ae24cda6","","null","<div style=""display: flex; justify-content: center; align-items: center;"">
                <img src=""images/causal/causal_series_10/causal_series_10_b.jpg"" style=""width: 300px; height: 300px;"" />
              </div>","null",""
"","","","","","html-keyboard-response","32","191674","0.0-23.0-0.0-1.0","11611D7ADEE14F5D91DCFC3B7ADFDB7F","04f7636c-03c1-4eb4-87ca-dfd696c3b32e","935a6d0c-0ba8-4f12-81d2-6af4ae24cda6","","null","<div style=""display: flex; justify-content: center; align-items: center;"">
                <img src=""images/causal/causal_series_10/causal_series_10_c.jpg"" style=""width: 300px; height: 300px;"" />
              </div>","null",""
"","","","","","html-keyboard-response","33","194676","0.0-23.0-0.0-2.0","11611D7ADEE14F5D91DCFC3B7ADFDB7F","04f7636c-03c1-4eb4-87ca-dfd696c3b32e","935a6d0c-0ba8-4f12-81d2-6af4ae24cda6","","null","<div style=""display: flex; justify-content: center; align-items: center;"">
                <img src=""images/causal/causal_series_10/causal_series_10_d.jpg"" style=""width: 300px; height: 300px;"" />
              </div>","null",""
"","","","","","html-keyboard-response","34","197678","0.0-24.0","11611D7ADEE14F5D91DCFC3B7ADFDB7F","04f7636c-03c1-4eb4-87ca-dfd696c3b32e","935a6d0c-0ba8-4f12-81d2-6af4ae24cda6","","null","<div style=""display: flex; justify-content: center; align-items: center;"">
                <img src=""images/other/blank.jpg"" style=""width: 300px; height: 300px;"" />
              </div>","null",""
"","","","","","html-keyboard-response","35","200680","0.0-25.0","11611D7ADEE14F5D91DCFC3B7ADFDB7F","04f7636c-03c1-4eb4-87ca-dfd696c3b32e","935a6d0c-0ba8-4f12-81d2-6af4ae24cda6","","null","<div style=""display: flex; justify-content: center; align-items: center;"">
                <img src=""images/causal/causal_series_4/causal_series_4_a.jpg"" style=""width: 300px; height: 300px;"" />
              </div>","null",""
"","","","","","html-button-response","36","202490","0.0-26.0","11611D7ADEE14F5D91DCFC3B7ADFDB7F","04f7636c-03c1-4eb4-87ca-dfd696c3b32e","935a6d0c-0ba8-4f12-81d2-6af4ae24cda6","","1799","
    <div style=""display: flex; justify-content: center; align-items: center;"">
      <img src=""images/red_deck_2.png"" style=""width: 300px; height: 300px; margin-right: 10px;"" />
      <img src=""images/blue_deck_1.png"" style=""width: 300px; height: 300px;"" />
    </div>","1","1"
"","","","","","html-keyboard-response","37","205531","0.0-27.0-1.0-0.0","11611D7ADEE14F5D91DCFC3B7ADFDB7F","04f7636c-03c1-4eb4-87ca-dfd696c3b32e","935a6d0c-0ba8-4f12-81d2-6af4ae24cda6","","null","<div style=""display: flex; justify-content: center; align-items: center;"">
                <img src=""images/semantic/semantic_series_9/semantic_series_9_d.jpg"" style=""width: 300px; height: 300px;"" />
              </div>","null",""
"","","","","","html-keyboard-response","38","208547","0.0-27.0-1.0-1.0","11611D7ADEE14F5D91DCFC3B7ADFDB7F","04f7636c-03c1-4eb4-87ca-dfd696c3b32e","935a6d0c-0ba8-4f12-81d2-6af4ae24cda6","","null","<div style=""display: flex; justify-content: center; align-items: center;"">
                <img src=""images/semantic/semantic_series_10/semantic_series_10_d.jpg"" style=""width: 300px; height: 300px;"" />
              </div>","null",""
"","","","","","html-keyboard-response","39","211563","0.0-27.0-1.0-2.0","11611D7ADEE14F5D91DCFC3B7ADFDB7F","04f7636c-03c1-4eb4-87ca-dfd696c3b32e","935a6d0c-0ba8-4f12-81d2-6af4ae24cda6","","null","<div style=""display: flex; justify-content: center; align-items: center;"">
                <img src=""images/semantic/semantic_series_11/semantic_series_11_d.jpg"" style=""width: 300px; height: 300px;"" />
              </div>","null",""
"","","","","","html-keyboard-response","40","214565","0.0-28.0","11611D7ADEE14F5D91DCFC3B7ADFDB7F","04f7636c-03c1-4eb4-87ca-dfd696c3b32e","935a6d0c-0ba8-4f12-81d2-6af4ae24cda6","","null","<div style=""display: flex; justify-content: center; align-items: center;"">
                <img src=""images/other/blank.jpg"" style=""width: 300px; height: 300px;"" />
              </div>","null",""
"","","","","","html-keyboard-response","41","217566","0.0-29.0","11611D7ADEE14F5D91DCFC3B7ADFDB7F","04f7636c-03c1-4eb4-87ca-dfd696c3b32e","935a6d0c-0ba8-4f12-81d2-6af4ae24cda6","","null","<div style=""display: flex; justify-content: center; align-items: center;"">
                <img src=""images/causal/causal_series_1/causal_series_1_a.jpg"" style=""width: 300px; height: 300px;"" />
              </div>","null",""
"","","","","","html-button-response","42","219298","0.0-30.0","11611D7ADEE14F5D91DCFC3B7ADFDB7F","04f7636c-03c1-4eb4-87ca-dfd696c3b32e","935a6d0c-0ba8-4f12-81d2-6af4ae24cda6","","1719","
    <div style=""display: flex; justify-content: center; align-items: center;"">
      <img src=""images/red_deck_2.png"" style=""width: 300px; height: 300px; margin-right: 10px;"" />
      <img src=""images/blue_deck_1.png"" style=""width: 300px; height: 300px;"" />
    </div>","0","0"
"","","","","","html-keyboard-response","43","222302","0.0-31.0-0.0-0.0","11611D7ADEE14F5D91DCFC3B7ADFDB7F","04f7636c-03c1-4eb4-87ca-dfd696c3b32e","935a6d0c-0ba8-4f12-81d2-6af4ae24cda6","","null","<div style=""display: flex; justify-content: center; align-items: center;"">
                <img src=""images/causal/causal_series_1/causal_series_1_b.jpg"" style=""width: 300px; height: 300px;"" />
              </div>","null",""
"","","","","","html-keyboard-response","44","225304","0.0-31.0-0.0-1.0","11611D7ADEE14F5D91DCFC3B7ADFDB7F","04f7636c-03c1-4eb4-87ca-dfd696c3b32e","935a6d0c-0ba8-4f12-81d2-6af4ae24cda6","","null","<div style=""display: flex; justify-content: center; align-items: center;"">
                <img src=""images/causal/causal_series_1/causal_series_1_c.jpg"" style=""width: 300px; height: 300px;"" />
              </div>","null",""
"","","","","","html-keyboard-response","45","228306","0.0-31.0-0.0-2.0","11611D7ADEE14F5D91DCFC3B7ADFDB7F","04f7636c-03c1-4eb4-87ca-dfd696c3b32e","935a6d0c-0ba8-4f12-81d2-6af4ae24cda6","","null","<div style=""display: flex; justify-content: center; align-items: center;"">
                <img src=""images/causal/causal_series_1/causal_series_1_d.jpg"" style=""width: 300px; height: 300px;"" />
              </div>","null",""
"","","","","","html-keyboard-response","46","231316","0.0-32.0","11611D7ADEE14F5D91DCFC3B7ADFDB7F","04f7636c-03c1-4eb4-87ca-dfd696c3b32e","935a6d0c-0ba8-4f12-81d2-6af4ae24cda6","","null","<div style=""display: flex; justify-content: center; align-items: center;"">
                <img src=""images/other/blank.jpg"" style=""width: 300px; height: 300px;"" />
              </div>","null",""
"","","","","","html-keyboard-response","47","234327","0.0-33.0","11611D7ADEE14F5D91DCFC3B7ADFDB7F","04f7636c-03c1-4eb4-87ca-dfd696c3b32e","935a6d0c-0ba8-4f12-81d2-6af4ae24cda6","","null","<div style=""display: flex; justify-content: center; align-items: center;"">
                <img src=""images/causal/causal_series_11/causal_series_11_a.jpg"" style=""width: 300px; height: 300px;"" />
              </div>","null",""
"","","","","","html-button-response","48","235270","0.0-34.0","11611D7ADEE14F5D91DCFC3B7ADFDB7F","04f7636c-03c1-4eb4-87ca-dfd696c3b32e","935a6d0c-0ba8-4f12-81d2-6af4ae24cda6","","928","
    <div style=""display: flex; justify-content: center; align-items: center;"">
      <img src=""images/red_deck_2.png"" style=""width: 300px; height: 300px; margin-right: 10px;"" />
      <img src=""images/blue_deck_1.png"" style=""width: 300px; height: 300px;"" />
    </div>","1","1"
"","","","","","html-keyboard-response","49","238273","0.0-35.0-1.0-0.0","11611D7ADEE14F5D91DCFC3B7ADFDB7F","04f7636c-03c1-4eb4-87ca-dfd696c3b32e","935a6d0c-0ba8-4f12-81d2-6af4ae24cda6","","null","<div style=""display: flex; justify-content: center; align-items: center;"">
                <img src=""images/semantic/semantic_series_12/semantic_series_12_d.jpg"" style=""width: 300px; height: 300px;"" />
              </div>","null",""
"","","","","","html-keyboard-response","50","241275","0.0-35.0-1.0-1.0","11611D7ADEE14F5D91DCFC3B7ADFDB7F","04f7636c-03c1-4eb4-87ca-dfd696c3b32e","935a6d0c-0ba8-4f12-81d2-6af4ae24cda6","","null","<div style=""display: flex; justify-content: center; align-items: center;"">
                <img src=""images/semantic/semantic_series_13/semantic_series_13_d.jpg"" style=""width: 300px; height: 300px;"" />
              </div>","null",""
"","","","","","html-keyboard-response","51","244277","0.0-35.0-1.0-2.0","11611D7ADEE14F5D91DCFC3B7ADFDB7F","04f7636c-03c1-4eb4-87ca-dfd696c3b32e","935a6d0c-0ba8-4f12-81d2-6af4ae24cda6","","null","<div style=""display: flex; justify-content: center; align-items: center;"">
                <img src=""images/semantic/semantic_series_14/semantic_series_14_d.jpg"" style=""width: 300px; height: 300px;"" />
              </div>","null",""
"","","","","","html-keyboard-response","52","247279","0.0-36.0","11611D7ADEE14F5D91DCFC3B7ADFDB7F","04f7636c-03c1-4eb4-87ca-dfd696c3b32e","935a6d0c-0ba8-4f12-81d2-6af4ae24cda6","","null","<div style=""display: flex; justify-content: center; align-items: center;"">
                <img src=""images/other/blank.jpg"" style=""width: 300px; height: 300px;"" />
              </div>","null",""
"","","","","","html-keyboard-response","53","250280","0.0-37.0","11611D7ADEE14F5D91DCFC3B7ADFDB7F","04f7636c-03c1-4eb4-87ca-dfd696c3b32e","935a6d0c-0ba8-4f12-81d2-6af4ae24cda6","","null","<div style=""display: flex; justify-content: center; align-items: center;"">
                <img src=""images/causal/causal_series_9/causal_series_9_a.jpg"" style=""width: 300px; height: 300px;"" />
              </div>","null",""
"","","","","","html-button-response","54","251444","0.0-38.0","11611D7ADEE14F5D91DCFC3B7ADFDB7F","04f7636c-03c1-4eb4-87ca-dfd696c3b32e","935a6d0c-0ba8-4f12-81d2-6af4ae24cda6","","1163","
    <div style=""display: flex; justify-content: center; align-items: center;"">
      <img src=""images/red_deck_2.png"" style=""width: 300px; height: 300px; margin-right: 10px;"" />
      <img src=""images/blue_deck_1.png"" style=""width: 300px; height: 300px;"" />
    </div>","0","0"
"","","","","","html-keyboard-response","55","254446","0.0-39.0-0.0-0.0","11611D7ADEE14F5D91DCFC3B7ADFDB7F","04f7636c-03c1-4eb4-87ca-dfd696c3b32e","935a6d0c-0ba8-4f12-81d2-6af4ae24cda6","","null","<div style=""display: flex; justify-content: center; align-items: center;"">
                <img src=""images/causal/causal_series_9/causal_series_9_b.jpg"" style=""width: 300px; height: 300px;"" />
              </div>","null",""
"","","","","","html-keyboard-response","56","257448","0.0-39.0-0.0-1.0","11611D7ADEE14F5D91DCFC3B7ADFDB7F","04f7636c-03c1-4eb4-87ca-dfd696c3b32e","935a6d0c-0ba8-4f12-81d2-6af4ae24cda6","","null","<div style=""display: flex; justify-content: center; align-items: center;"">
                <img src=""images/causal/causal_series_9/causal_series_9_c.jpg"" style=""width: 300px; height: 300px;"" />
              </div>","null",""
"","","","","","html-keyboard-response","57","260451","0.0-39.0-0.0-2.0","11611D7ADEE14F5D91DCFC3B7ADFDB7F","04f7636c-03c1-4eb4-87ca-dfd696c3b32e","935a6d0c-0ba8-4f12-81d2-6af4ae24cda6","","null","<div style=""display: flex; justify-content: center; align-items: center;"">
                <img src=""images/causal/causal_series_9/causal_series_9_d.jpg"" style=""width: 300px; height: 300px;"" />
              </div>","null",""
"","","","","","html-keyboard-response","58","263453","0.0-40.0","11611D7ADEE14F5D91DCFC3B7ADFDB7F","04f7636c-03c1-4eb4-87ca-dfd696c3b32e","935a6d0c-0ba8-4f12-81d2-6af4ae24cda6","","null","<div style=""display: flex; justify-content: center; align-items: center;"">
                <img src=""images/other/blank.jpg"" style=""width: 300px; height: 300px;"" />
              </div>","null",""
"","","","","","html-keyboard-response","59","266455","0.0-41.0","11611D7ADEE14F5D91DCFC3B7ADFDB7F","04f7636c-03c1-4eb4-87ca-dfd696c3b32e","935a6d0c-0ba8-4f12-81d2-6af4ae24cda6","","null","<div style=""display: flex; justify-content: center; align-items: center;"">
                <img src=""images/causal/causal_series_14/causal_series_14_a.jpg"" style=""width: 300px; height: 300px;"" />
              </div>","null",""
"","","","","","html-button-response","60","267602","0.0-42.0","11611D7ADEE14F5D91DCFC3B7ADFDB7F","04f7636c-03c1-4eb4-87ca-dfd696c3b32e","935a6d0c-0ba8-4f12-81d2-6af4ae24cda6","","1145","
    <div style=""display: flex; justify-content: center; align-items: center;"">
      <img src=""images/red_deck_2.png"" style=""width: 300px; height: 300px; margin-right: 10px;"" />
      <img src=""images/blue_deck_1.png"" style=""width: 300px; height: 300px;"" />
    </div>","0","0"
"","","","","","html-keyboard-response","61","270604","0.0-43.0-0.0-0.0","11611D7ADEE14F5D91DCFC3B7ADFDB7F","04f7636c-03c1-4eb4-87ca-dfd696c3b32e","935a6d0c-0ba8-4f12-81d2-6af4ae24cda6","","null","<div style=""display: flex; justify-content: center; align-items: center;"">
                <img src=""images/causal/causal_series_14/causal_series_14_b.jpg"" style=""width: 300px; height: 300px;"" />
              </div>","null",""
"","","","","","html-keyboard-response","62","273606","0.0-43.0-0.0-1.0","11611D7ADEE14F5D91DCFC3B7ADFDB7F","04f7636c-03c1-4eb4-87ca-dfd696c3b32e","935a6d0c-0ba8-4f12-81d2-6af4ae24cda6","","null","<div style=""display: flex; justify-content: center; align-items: center;"">
                <img src=""images/causal/causal_series_14/causal_series_14_c.jpg"" style=""width: 300px; height: 300px;"" />
              </div>","null",""
"","","","","","html-keyboard-response","63","276608","0.0-43.0-0.0-2.0","11611D7ADEE14F5D91DCFC3B7ADFDB7F","04f7636c-03c1-4eb4-87ca-dfd696c3b32e","935a6d0c-0ba8-4f12-81d2-6af4ae24cda6","","null","<div style=""display: flex; justify-content: center; align-items: center;"">
                <img src=""images/causal/causal_series_14/causal_series_14_d.jpg"" style=""width: 300px; height: 300px;"" />
              </div>","null",""
"","","","","","html-keyboard-response","64","279610","0.0-44.0","11611D7ADEE14F5D91DCFC3B7ADFDB7F","04f7636c-03c1-4eb4-87ca-dfd696c3b32e","935a6d0c-0ba8-4f12-81d2-6af4ae24cda6","","null","<div style=""display: flex; justify-content: center; align-items: center;"">
                <img src=""images/other/blank.jpg"" style=""width: 300px; height: 300px;"" />
              </div>","null",""
"","","","","","html-keyboard-response","65","282612","0.0-45.0","11611D7ADEE14F5D91DCFC3B7ADFDB7F","04f7636c-03c1-4eb4-87ca-dfd696c3b32e","935a6d0c-0ba8-4f12-81d2-6af4ae24cda6","","null","<div style=""display: flex; justify-content: center; align-items: center;"">
                <img src=""images/causal/causal_series_16/causal_series_16_a.jpg"" style=""width: 300px; height: 300px;"" />
              </div>","null",""
"","","","","","html-button-response","66","284816","0.0-46.0","11611D7ADEE14F5D91DCFC3B7ADFDB7F","04f7636c-03c1-4eb4-87ca-dfd696c3b32e","935a6d0c-0ba8-4f12-81d2-6af4ae24cda6","","2203","
    <div style=""display: flex; justify-content: center; align-items: center;"">
      <img src=""images/red_deck_2.png"" style=""width: 300px; height: 300px; margin-right: 10px;"" />
      <img src=""images/blue_deck_1.png"" style=""width: 300px; height: 300px;"" />
    </div>","1","1"
"","","","","","html-keyboard-response","67","287818","0.0-47.0-1.0-0.0","11611D7ADEE14F5D91DCFC3B7ADFDB7F","04f7636c-03c1-4eb4-87ca-dfd696c3b32e","935a6d0c-0ba8-4f12-81d2-6af4ae24cda6","","null","<div style=""display: flex; justify-content: center; align-items: center;"">
                <img src=""images/semantic/semantic_series_9/semantic_series_9_d.jpg"" style=""width: 300px; height: 300px;"" />
              </div>","null",""
"","","","","","html-keyboard-response","68","290821","0.0-47.0-1.0-1.0","11611D7ADEE14F5D91DCFC3B7ADFDB7F","04f7636c-03c1-4eb4-87ca-dfd696c3b32e","935a6d0c-0ba8-4f12-81d2-6af4ae24cda6","","null","<div style=""display: flex; justify-content: center; align-items: center;"">
                <img src=""images/semantic/semantic_series_10/semantic_series_10_d.jpg"" style=""width: 300px; height: 300px;"" />
              </div>","null",""
"","","","","","html-keyboard-response","69","293828","0.0-47.0-1.0-2.0","11611D7ADEE14F5D91DCFC3B7ADFDB7F","04f7636c-03c1-4eb4-87ca-dfd696c3b32e","935a6d0c-0ba8-4f12-81d2-6af4ae24cda6","","null","<div style=""display: flex; justify-content: center; align-items: center;"">
                <img src=""images/semantic/semantic_series_11/semantic_series_11_d.jpg"" style=""width: 300px; height: 300px;"" />
              </div>","null",""
"","","","","","html-keyboard-response","70","296860","0.0-48.0","11611D7ADEE14F5D91DCFC3B7ADFDB7F","04f7636c-03c1-4eb4-87ca-dfd696c3b32e","935a6d0c-0ba8-4f12-81d2-6af4ae24cda6","","null","<div style=""display: flex; justify-content: center; align-items: center;"">
                <img src=""images/other/blank.jpg"" style=""width: 300px; height: 300px;"" />
              </div>","null",""
"","","","","","html-keyboard-response","71","299870","0.0-49.0","11611D7ADEE14F5D91DCFC3B7ADFDB7F","04f7636c-03c1-4eb4-87ca-dfd696c3b32e","935a6d0c-0ba8-4f12-81d2-6af4ae24cda6","","null","<div style=""display: flex; justify-content: center; align-items: center;"">
                <img src=""images/causal/causal_series_2/causal_series_2_a.jpg"" style=""width: 300px; height: 300px;"" />
              </div>","null",""
"","","","","","html-button-response","72","304473","0.0-50.0","11611D7ADEE14F5D91DCFC3B7ADFDB7F","04f7636c-03c1-4eb4-87ca-dfd696c3b32e","935a6d0c-0ba8-4f12-81d2-6af4ae24cda6","","4591","
    <div style=""display: flex; justify-content: center; align-items: center;"">
      <img src=""images/red_deck_2.png"" style=""width: 300px; height: 300px; margin-right: 10px;"" />
      <img src=""images/blue_deck_1.png"" style=""width: 300px; height: 300px;"" />
    </div>","0","0"
"","","","","","html-keyboard-response","73","307477","0.0-51.0-0.0-0.0","11611D7ADEE14F5D91DCFC3B7ADFDB7F","04f7636c-03c1-4eb4-87ca-dfd696c3b32e","935a6d0c-0ba8-4f12-81d2-6af4ae24cda6","","null","<div style=""display: flex; justify-content: center; align-items: center;"">
                <img src=""images/causal/causal_series_2/causal_series_2_b.jpg"" style=""width: 300px; height: 300px;"" />
              </div>","null",""
"","","","","","html-keyboard-response","74","310479","0.0-51.0-0.0-1.0","11611D7ADEE14F5D91DCFC3B7ADFDB7F","04f7636c-03c1-4eb4-87ca-dfd696c3b32e","935a6d0c-0ba8-4f12-81d2-6af4ae24cda6","","null","<div style=""display: flex; justify-content: center; align-items: center;"">
                <img src=""images/causal/causal_series_2/causal_series_2_c.jpg"" style=""width: 300px; height: 300px;"" />
              </div>","null",""
"","","","","","html-keyboard-response","75","313482","0.0-51.0-0.0-2.0","11611D7ADEE14F5D91DCFC3B7ADFDB7F","04f7636c-03c1-4eb4-87ca-dfd696c3b32e","935a6d0c-0ba8-4f12-81d2-6af4ae24cda6","","null","<div style=""display: flex; justify-content: center; align-items: center;"">
                <img src=""images/causal/causal_series_2/causal_series_2_d.jpg"" style=""width: 300px; height: 300px;"" />
              </div>","null",""
"","","","","","html-keyboard-response","76","316483","0.0-52.0","11611D7ADEE14F5D91DCFC3B7ADFDB7F","04f7636c-03c1-4eb4-87ca-dfd696c3b32e","935a6d0c-0ba8-4f12-81d2-6af4ae24cda6","","null","<div style=""display: flex; justify-content: center; align-items: center;"">
                <img src=""images/other/blank.jpg"" style=""width: 300px; height: 300px;"" />
              </div>","null",""
"","","","","","html-keyboard-response","77","319485","0.0-53.0","11611D7ADEE14F5D91DCFC3B7ADFDB7F","04f7636c-03c1-4eb4-87ca-dfd696c3b32e","935a6d0c-0ba8-4f12-81d2-6af4ae24cda6","","null","<div style=""display: flex; justify-content: center; align-items: center;"">
                <img src=""images/causal/causal_series_3/causal_series_3_a.jpg"" style=""width: 300px; height: 300px;"" />
              </div>","null",""
"","","","","","html-button-response","78","320674","0.0-54.0","11611D7ADEE14F5D91DCFC3B7ADFDB7F","04f7636c-03c1-4eb4-87ca-dfd696c3b32e","935a6d0c-0ba8-4f12-81d2-6af4ae24cda6","","1188","
    <div style=""display: flex; justify-content: center; align-items: center;"">
      <img src=""images/red_deck_2.png"" style=""width: 300px; height: 300px; margin-right: 10px;"" />
      <img src=""images/blue_deck_1.png"" style=""width: 300px; height: 300px;"" />
    </div>","0","0"
"","","","","","html-keyboard-response","79","323676","0.0-55.0-0.0-0.0","11611D7ADEE14F5D91DCFC3B7ADFDB7F","04f7636c-03c1-4eb4-87ca-dfd696c3b32e","935a6d0c-0ba8-4f12-81d2-6af4ae24cda6","","null","<div style=""display: flex; justify-content: center; align-items: center;"">
                <img src=""images/causal/causal_series_3/causal_series_3_b.jpg"" style=""width: 300px; height: 300px;"" />
              </div>","null",""
"","","","","","html-keyboard-response","80","326679","0.0-55.0-0.0-1.0","11611D7ADEE14F5D91DCFC3B7ADFDB7F","04f7636c-03c1-4eb4-87ca-dfd696c3b32e","935a6d0c-0ba8-4f12-81d2-6af4ae24cda6","","null","<div style=""display: flex; justify-content: center; align-items: center;"">
                <img src=""images/causal/causal_series_3/causal_series_3_c.jpg"" style=""width: 300px; height: 300px;"" />
              </div>","null",""
"","","","","","html-keyboard-response","81","329682","0.0-55.0-0.0-2.0","11611D7ADEE14F5D91DCFC3B7ADFDB7F","04f7636c-03c1-4eb4-87ca-dfd696c3b32e","935a6d0c-0ba8-4f12-81d2-6af4ae24cda6","","null","<div style=""display: flex; justify-content: center; align-items: center;"">
                <img src=""images/causal/causal_series_3/causal_series_3_d.jpg"" style=""width: 300px; height: 300px;"" />
              </div>","null",""
"","","","","","html-keyboard-response","82","332683","0.0-56.0","11611D7ADEE14F5D91DCFC3B7ADFDB7F","04f7636c-03c1-4eb4-87ca-dfd696c3b32e","935a6d0c-0ba8-4f12-81d2-6af4ae24cda6","","null","<div style=""display: flex; justify-content: center; align-items: center;"">
                <img src=""images/other/blank.jpg"" style=""width: 300px; height: 300px;"" />
              </div>","null",""
"","","","","","html-keyboard-response","83","335684","0.0-57.0","11611D7ADEE14F5D91DCFC3B7ADFDB7F","04f7636c-03c1-4eb4-87ca-dfd696c3b32e","935a6d0c-0ba8-4f12-81d2-6af4ae24cda6","","null","<div style=""display: flex; justify-content: center; align-items: center;"">
                <img src=""images/causal/causal_series_12/causal_series_12_a.jpg"" style=""width: 300px; height: 300px;"" />
              </div>","null",""
"","","","","","html-button-response","84","336797","0.0-58.0","11611D7ADEE14F5D91DCFC3B7ADFDB7F","04f7636c-03c1-4eb4-87ca-dfd696c3b32e","935a6d0c-0ba8-4f12-81d2-6af4ae24cda6","","1112","
    <div style=""display: flex; justify-content: center; align-items: center;"">
      <img src=""images/red_deck_2.png"" style=""width: 300px; height: 300px; margin-right: 10px;"" />
      <img src=""images/blue_deck_1.png"" style=""width: 300px; height: 300px;"" />
    </div>","0","0"
"","","","","","html-keyboard-response","85","339800","0.0-59.0-0.0-0.0","11611D7ADEE14F5D91DCFC3B7ADFDB7F","04f7636c-03c1-4eb4-87ca-dfd696c3b32e","935a6d0c-0ba8-4f12-81d2-6af4ae24cda6","","null","<div style=""display: flex; justify-content: center; align-items: center;"">
                <img src=""images/causal/causal_series_12/causal_series_12_b.jpg"" style=""width: 300px; height: 300px;"" />
              </div>","null",""
"","","","","","html-keyboard-response","86","342802","0.0-59.0-0.0-1.0","11611D7ADEE14F5D91DCFC3B7ADFDB7F","04f7636c-03c1-4eb4-87ca-dfd696c3b32e","935a6d0c-0ba8-4f12-81d2-6af4ae24cda6","","null","<div style=""display: flex; justify-content: center; align-items: center;"">
                <img src=""images/causal/causal_series_12/causal_series_12_c.jpg"" style=""width: 300px; height: 300px;"" />
              </div>","null",""
"","","","","","html-keyboard-response","87","345804","0.0-59.0-0.0-2.0","11611D7ADEE14F5D91DCFC3B7ADFDB7F","04f7636c-03c1-4eb4-87ca-dfd696c3b32e","935a6d0c-0ba8-4f12-81d2-6af4ae24cda6","","null","<div style=""display: flex; justify-content: center; align-items: center;"">
                <img src=""images/causal/causal_series_12/causal_series_12_d.jpg"" style=""width: 300px; height: 300px;"" />
              </div>","null",""
"","","","","","html-keyboard-response","88","348806","0.0-60.0","11611D7ADEE14F5D91DCFC3B7ADFDB7F","04f7636c-03c1-4eb4-87ca-dfd696c3b32e","935a6d0c-0ba8-4f12-81d2-6af4ae24cda6","","null","<div style=""display: flex; justify-content: center; align-items: center;"">
                <img src=""images/other/blank.jpg"" style=""width: 300px; height: 300px;"" />
              </div>","null",""
"","","","","","html-keyboard-response","89","351808","0.0-61.0","11611D7ADEE14F5D91DCFC3B7ADFDB7F","04f7636c-03c1-4eb4-87ca-dfd696c3b32e","935a6d0c-0ba8-4f12-81d2-6af4ae24cda6","","null","<div style=""display: flex; justify-content: center; align-items: center;"">
                <img src=""images/causal/causal_series_8/causal_series_8_a.jpg"" style=""width: 300px; height: 300px;"" />
              </div>","null",""
"","","","","","html-button-response","90","353796","0.0-62.0","11611D7ADEE14F5D91DCFC3B7ADFDB7F","04f7636c-03c1-4eb4-87ca-dfd696c3b32e","935a6d0c-0ba8-4f12-81d2-6af4ae24cda6","","1987","
    <div style=""display: flex; justify-content: center; align-items: center;"">
      <img src=""images/red_deck_2.png"" style=""width: 300px; height: 300px; margin-right: 10px;"" />
      <img src=""images/blue_deck_1.png"" style=""width: 300px; height: 300px;"" />
    </div>","0","0"
"","","","","","html-keyboard-response","91","356801","0.0-63.0-0.0-0.0","11611D7ADEE14F5D91DCFC3B7ADFDB7F","04f7636c-03c1-4eb4-87ca-dfd696c3b32e","935a6d0c-0ba8-4f12-81d2-6af4ae24cda6","","null","<div style=""display: flex; justify-content: center; align-items: center;"">
                <img src=""images/causal/causal_series_8/causal_series_8_b.jpg"" style=""width: 300px; height: 300px;"" />
              </div>","null",""
"","","","","","html-keyboard-response","92","359816","0.0-63.0-0.0-1.0","11611D7ADEE14F5D91DCFC3B7ADFDB7F","04f7636c-03c1-4eb4-87ca-dfd696c3b32e","935a6d0c-0ba8-4f12-81d2-6af4ae24cda6","","null","<div style=""display: flex; justify-content: center; align-items: center;"">
                <img src=""images/causal/causal_series_8/causal_series_8_c.jpg"" style=""width: 300px; height: 300px;"" />
              </div>","null",""
"","","","","","html-keyboard-response","93","362818","0.0-63.0-0.0-2.0","11611D7ADEE14F5D91DCFC3B7ADFDB7F","04f7636c-03c1-4eb4-87ca-dfd696c3b32e","935a6d0c-0ba8-4f12-81d2-6af4ae24cda6","","null","<div style=""display: flex; justify-content: center; align-items: center;"">
                <img src=""images/causal/causal_series_8/causal_series_8_d.jpg"" style=""width: 300px; height: 300px;"" />
              </div>","null",""
"","","","","","html-keyboard-response","94","365821","0.0-64.0","11611D7ADEE14F5D91DCFC3B7ADFDB7F","04f7636c-03c1-4eb4-87ca-dfd696c3b32e","935a6d0c-0ba8-4f12-81d2-6af4ae24cda6","","null","<div style=""display: flex; justify-content: center; align-items: center;"">
                <img src=""images/other/blank.jpg"" style=""width: 300px; height: 300px;"" />
              </div>","null",""
"","","","","","html-keyboard-response","95","368824","0.0-65.0","11611D7ADEE14F5D91DCFC3B7ADFDB7F","04f7636c-03c1-4eb4-87ca-dfd696c3b32e","935a6d0c-0ba8-4f12-81d2-6af4ae24cda6","","null","<div style=""display: flex; justify-content: center; align-items: center;"">
                <img src=""images/causal/causal_series_15/causal_series_15_a.jpg"" style=""width: 300px; height: 300px;"" />
              </div>","null",""
"","","","","","html-button-response","96","369772","0.0-66.0","11611D7ADEE14F5D91DCFC3B7ADFDB7F","04f7636c-03c1-4eb4-87ca-dfd696c3b32e","935a6d0c-0ba8-4f12-81d2-6af4ae24cda6","","939","
    <div style=""display: flex; justify-content: center; align-items: center;"">
      <img src=""images/red_deck_2.png"" style=""width: 300px; height: 300px; margin-right: 10px;"" />
      <img src=""images/blue_deck_1.png"" style=""width: 300px; height: 300px;"" />
    </div>","1","1"
"","","","","","html-keyboard-response","97","372775","0.0-67.0-1.0-0.0","11611D7ADEE14F5D91DCFC3B7ADFDB7F","04f7636c-03c1-4eb4-87ca-dfd696c3b32e","935a6d0c-0ba8-4f12-81d2-6af4ae24cda6","","null","<div style=""display: flex; justify-content: center; align-items: center;"">
                <img src=""images/semantic/semantic_series_6/semantic_series_6_d.jpg"" style=""width: 300px; height: 300px;"" />
              </div>","null",""
"","","","","","html-keyboard-response","98","375777","0.0-67.0-1.0-1.0","11611D7ADEE14F5D91DCFC3B7ADFDB7F","04f7636c-03c1-4eb4-87ca-dfd696c3b32e","935a6d0c-0ba8-4f12-81d2-6af4ae24cda6","","null","<div style=""display: flex; justify-content: center; align-items: center;"">
                <img src=""images/semantic/semantic_series_7/semantic_series_7_d.jpg"" style=""width: 300px; height: 300px;"" />
              </div>","null",""
"","","","","","html-keyboard-response","99","378780","0.0-67.0-1.0-2.0","11611D7ADEE14F5D91DCFC3B7ADFDB7F","04f7636c-03c1-4eb4-87ca-dfd696c3b32e","935a6d0c-0ba8-4f12-81d2-6af4ae24cda6","","null","<div style=""display: flex; justify-content: center; align-items: center;"">
                <img src=""images/semantic/semantic_series_8/semantic_series_8_d.jpg"" style=""width: 300px; height: 300px;"" />
              </div>","null",""
"","","","","","html-keyboard-response","100","381781","0.0-68.0","11611D7ADEE14F5D91DCFC3B7ADFDB7F","04f7636c-03c1-4eb4-87ca-dfd696c3b32e","935a6d0c-0ba8-4f12-81d2-6af4ae24cda6","","null","<div style=""display: flex; justify-content: center; align-items: center;"">
                <img src=""images/other/blank.jpg"" style=""width: 300px; height: 300px;"" />
              </div>","null",""
"","","","","","html-keyboard-response","101","384782","0.0-69.0","11611D7ADEE14F5D91DCFC3B7ADFDB7F","04f7636c-03c1-4eb4-87ca-dfd696c3b32e","935a6d0c-0ba8-4f12-81d2-6af4ae24cda6","","null","<div style=""display: flex; justify-content: center; align-items: center;"">
                <img src=""images/causal/causal_series_13/causal_series_13_a.jpg"" style=""width: 300px; height: 300px;"" />
              </div>","null",""
"","","","","","html-button-response","102","385668","0.0-70.0","11611D7ADEE14F5D91DCFC3B7ADFDB7F","04f7636c-03c1-4eb4-87ca-dfd696c3b32e","935a6d0c-0ba8-4f12-81d2-6af4ae24cda6","","885","
    <div style=""display: flex; justify-content: center; align-items: center;"">
      <img src=""images/red_deck_2.png"" style=""width: 300px; height: 300px; margin-right: 10px;"" />
      <img src=""images/blue_deck_1.png"" style=""width: 300px; height: 300px;"" />
    </div>","1","1"
"","","","","","html-keyboard-response","103","388670","0.0-71.0-1.0-0.0","11611D7ADEE14F5D91DCFC3B7ADFDB7F","04f7636c-03c1-4eb4-87ca-dfd696c3b32e","935a6d0c-0ba8-4f12-81d2-6af4ae24cda6","","null","<div style=""display: flex; justify-content: center; align-items: center;"">
                <img src=""images/semantic/semantic_series_18/semantic_series_18_d.jpg"" style=""width: 300px; height: 300px;"" />
              </div>","null",""
"","","","","","html-keyboard-response","104","391672","0.0-71.0-1.0-1.0","11611D7ADEE14F5D91DCFC3B7ADFDB7F","04f7636c-03c1-4eb4-87ca-dfd696c3b32e","935a6d0c-0ba8-4f12-81d2-6af4ae24cda6","","null","<div style=""display: flex; justify-content: center; align-items: center;"">
                <img src=""images/semantic/semantic_series_1/semantic_series_1_d.jpg"" style=""width: 300px; height: 300px;"" />
              </div>","null",""
"","","","","","html-keyboard-response","105","394674","0.0-71.0-1.0-2.0","11611D7ADEE14F5D91DCFC3B7ADFDB7F","04f7636c-03c1-4eb4-87ca-dfd696c3b32e","935a6d0c-0ba8-4f12-81d2-6af4ae24cda6","","null","<div style=""display: flex; justify-content: center; align-items: center;"">
                <img src=""images/semantic/semantic_series_2/semantic_series_2_d.jpg"" style=""width: 300px; height: 300px;"" />
              </div>","null",""
"","","","","","html-keyboard-response","106","397676","0.0-72.0","11611D7ADEE14F5D91DCFC3B7ADFDB7F","04f7636c-03c1-4eb4-87ca-dfd696c3b32e","935a6d0c-0ba8-4f12-81d2-6af4ae24cda6","","null","<div style=""display: flex; justify-content: center; align-items: center;"">
                <img src=""images/other/blank.jpg"" style=""width: 300px; height: 300px;"" />
              </div>","null",""
"","","","","","html-keyboard-response","107","400678","0.0-73.0","11611D7ADEE14F5D91DCFC3B7ADFDB7F","04f7636c-03c1-4eb4-87ca-dfd696c3b32e","935a6d0c-0ba8-4f12-81d2-6af4ae24cda6","","null","<div style=""display: flex; justify-content: center; align-items: center;"">
                <img src=""images/causal/causal_series_17/causal_series_17_a.jpg"" style=""width: 300px; height: 300px;"" />
              </div>","null",""
"","","","","","html-button-response","108","402662","0.0-74.0","11611D7ADEE14F5D91DCFC3B7ADFDB7F","04f7636c-03c1-4eb4-87ca-dfd696c3b32e","935a6d0c-0ba8-4f12-81d2-6af4ae24cda6","","1983","
    <div style=""display: flex; justify-content: center; align-items: center;"">
      <img src=""images/red_deck_2.png"" style=""width: 300px; height: 300px; margin-right: 10px;"" />
      <img src=""images/blue_deck_1.png"" style=""width: 300px; height: 300px;"" />
    </div>","0","0"
"","","","","","html-keyboard-response","109","405664","0.0-75.0-0.0-0.0","11611D7ADEE14F5D91DCFC3B7ADFDB7F","04f7636c-03c1-4eb4-87ca-dfd696c3b32e","935a6d0c-0ba8-4f12-81d2-6af4ae24cda6","","null","<div style=""display: flex; justify-content: center; align-items: center;"">
                <img src=""images/causal/causal_series_17/causal_series_17_b.jpg"" style=""width: 300px; height: 300px;"" />
              </div>","null",""
"","","","","","html-keyboard-response","110","408666","0.0-75.0-0.0-1.0","11611D7ADEE14F5D91DCFC3B7ADFDB7F","04f7636c-03c1-4eb4-87ca-dfd696c3b32e","935a6d0c-0ba8-4f12-81d2-6af4ae24cda6","","null","<div style=""display: flex; justify-content: center; align-items: center;"">
                <img src=""images/causal/causal_series_17/causal_series_17_c.jpg"" style=""width: 300px; height: 300px;"" />
              </div>","null",""
"","","","","","html-keyboard-response","111","411668","0.0-75.0-0.0-2.0","11611D7ADEE14F5D91DCFC3B7ADFDB7F","04f7636c-03c1-4eb4-87ca-dfd696c3b32e","935a6d0c-0ba8-4f12-81d2-6af4ae24cda6","","null","<div style=""display: flex; justify-content: center; align-items: center;"">
                <img src=""images/causal/causal_series_17/causal_series_17_d.jpg"" style=""width: 300px; height: 300px;"" />
              </div>","null",""
"","","","","","html-keyboard-response","112","414670","0.0-76.0","11611D7ADEE14F5D91DCFC3B7ADFDB7F","04f7636c-03c1-4eb4-87ca-dfd696c3b32e","935a6d0c-0ba8-4f12-81d2-6af4ae24cda6","","null","<div style=""display: flex; justify-content: center; align-items: center;"">
                <img src=""images/other/blank.jpg"" style=""width: 300px; height: 300px;"" />
              </div>","null",""
"","","","","","survey-text","113","445446","0.0-77.0","11611D7ADEE14F5D91DCFC3B7ADFDB7F","04f7636c-03c1-4eb4-87ca-dfd696c3b32e","935a6d0c-0ba8-4f12-81d2-6af4ae24cda6","","30722","","{""Q0"":""Deck 1 tells a related story to the previous card whereas deck 2 tells an unrelated story""}",""
"","","","","","survey-text","114","451620","0.0-78.0","11611D7ADEE14F5D91DCFC3B7ADFDB7F","04f7636c-03c1-4eb4-87ca-dfd696c3b32e","935a6d0c-0ba8-4f12-81d2-6af4ae24cda6","","6163","","{""Q0"":""deck 1""}",""
"","","","","","html-button-response","115","475524","0.0-79.0","11611D7ADEE14F5D91DCFC3B7ADFDB7F","04f7636c-03c1-4eb4-87ca-dfd696c3b32e","935a6d0c-0ba8-4f12-81d2-6af4ae24cda6","","23900","Which color deck does the fourth image continue the story from the series?","1",""
"","","","","","html-button-response","116","479212","0.0-80.0","11611D7ADEE14F5D91DCFC3B7ADFDB7F","04f7636c-03c1-4eb4-87ca-dfd696c3b32e","935a6d0c-0ba8-4f12-81d2-6af4ae24cda6","","3683","Which color deck does the fourth image not follow the story from the series?","0",""
"","","","","","survey-text","117","485552","0.0-81.0","11611D7ADEE14F5D91DCFC3B7ADFDB7F","04f7636c-03c1-4eb4-87ca-dfd696c3b32e","935a6d0c-0ba8-4f12-81d2-6af4ae24cda6","","6282","","{""Q0"":""FEMALE"",""Q1"":""27""}",""
"","","","","","instructions","118","489843","0.0-82.0","11611D7ADEE14F5D91DCFC3B7ADFDB7F","04f7636c-03c1-4eb4-87ca-dfd696c3b32e","935a6d0c-0ba8-4f12-81d2-6af4ae24cda6","[{""page_index"":0,""viewing_time"":4290}]","4290","","",""
