"success","timeout","failed_images","failed_audio","failed_video","trial_type","trial_index","time_elapsed","internal_node_id","subject_id","study_id","session_id","view_history","rt","stimulus","response","series","repetition","phase","choice","question_order"
"true","false","[]","[]","[]","preload","0","2197","0.0-0.0","9E4FE65D161741A19F1485051D58DDD0","0199d676-7c57-77c3-845d-6bd30039ad3f","0199d675-8795-765b-adc2-c813de8cd3d1","","","","","","","","",""
"","","","","","instructions","1","6445","0.0-1.0","9E4FE65D161741A19F1485051D58DDD0","0199d676-7c57-77c3-845d-6bd30039ad3f","0199d675-8795-765b-adc2-c813de8cd3d1","[{""page_index"":0,""viewing_time"":4247}]","4248","","","","","","",""
"","","","","","instructions","2","14491","0.0-2.0","9E4FE65D161741A19F1485051D58DDD0","0199d676-7c57-77c3-845d-6bd30039ad3f","0199d675-8795-765b-adc2-c813de8cd3d1","[{""page_index"":0,""viewing_time"":8044}]","8045","","","","","","",""
"true","","","","","fullscreen","3","17836","0.0-3.0","9E4FE65D161741A19F1485051D58DDD0","0199d676-7c57-77c3-845d-6bd30039ad3f","0199d675-8795-765b-adc2-c813de8cd3d1","","2339","","","","","","",""
"","","","","","instructions","4","39379","0.0-4.0","9E4FE65D161741A19F1485051D58DDD0","0199d676-7c57-77c3-845d-6bd30039ad3f","0199d675-8795-765b-adc2-c813de8cd3d1","[{""page_index"":0,""viewing_time"":21540}]","21541","","","","","","",""
"","","","","","html-keyboard-response","5","45388","0.0-5.0","9E4FE65D161741A19F1485051D58DDD0","0199d676-7c57-77c3-845d-6bd30039ad3f","0199d675-8795-765b-adc2-c813de8cd3d1","","null","<div style=""display: flex; justify-content: center; align-items: center;"">
                     <img src=""images/causal/causal_series_7/causal_series_7_a.png"" style=""width: 300px; height: 300px;"" />
                   </div>","null","7","2","A","",""
"","","","","","html-button-response","6","48677","0.0-6.0","9E4FE65D161741A19F1485051D58DDD0","0199d676-7c57-77c3-845d-6bd30039ad3f","0199d675-8795-765b-adc2-c813de8cd3d1","","3286","
        <div style=""display: flex; justify-content: center; align-items: center;"">
          <img src=""images/red_deck_2.png"" style=""width: 300px; height: 300px; margin-right: 10px;"" />
          <img src=""images/blue_deck_1.png"" style=""width: 300px; height: 300px;"" />
        </div>","0","7","2","choice","0",""
"","","","","","html-keyboard-response","7","54679","0.0-7.0-0.0-0.0","9E4FE65D161741A19F1485051D58DDD0","0199d676-7c57-77c3-845d-6bd30039ad3f","0199d675-8795-765b-adc2-c813de8cd3d1","","null","<div style=""display: flex; justify-content: center; align-items: center;"">
                     <img src=""images/causal/causal_series_7/causal_series_7_b.png"" style=""width: 300px; height: 300px;"" />
                   </div>","null","7","2","B","",""
"","","","","","html-keyboard-response","8","60692","0.0-7.0-0.0-1.0","9E4FE65D161741A19F1485051D58DDD0","0199d676-7c57-77c3-845d-6bd30039ad3f","0199d675-8795-765b-adc2-c813de8cd3d1","","null","<div style=""display: flex; justify-content: center; align-items: center;"">
                     <img src=""images/causal/causal_series_7/causal_series_7_c.png"" style=""width: 300px; height: 300px;"" />
                   </div>","null","7","2","C","",""
"","","","","","html-keyboard-response","9","66705","0.0-7.0-0.0-2.0","9E4FE65D161741A19F1485051D58DDD0","0199d676-7c57-77c3-845d-6bd30039ad3f","0199d675-8795-765b-adc2-c813de8cd3d1","","null","<div style=""display: flex; justify-content: center; align-items: center;"">
                     <img src=""images/causal/causal_series_7/causal_series_7_d.png"" style=""width: 300px; height: 300px;"" />
                   </div>","null","7","2","D","",""
"","","","","","survey-likert","10","73056","0.0-8.0","9E4FE65D161741A19F1485051D58DDD0","0199d676-7c57-77c3-845d-6bd30039ad3f","0199d675-8795-765b-adc2-c813de8cd3d1","","6348","","{""Q0"":3}","7","2","surprise_rating","","[0]"
"","","","","","survey-likert","11","77575","0.0-9.0","9E4FE65D161741A19F1485051D58DDD0","0199d676-7c57-77c3-845d-6bd30039ad3f","0199d675-8795-765b-adc2-c813de8cd3d1","","4518","","{""Q0"":4}","7","2","enjoyment_rating","","[0]"
"","","","","","html-keyboard-response","12","83588","0.0-10.0","9E4FE65D161741A19F1485051D58DDD0","0199d676-7c57-77c3-845d-6bd30039ad3f","0199d675-8795-765b-adc2-c813de8cd3d1","","null","<div style=""display: flex; justify-content: center; align-items: center;"">
                     <img src=""images/other/blank.png"" style=""width: 300px; height: 300px;"" />
                   </div>","null","0","0","blank","",""
"","","","","","html-keyboard-response","13","89589","0.0-11.0","9E4FE65D161741A19F1485051D58DDD0","0199d676-7c57-77c3-845d-6bd30039ad3f","0199d675-8795-765b-adc2-c813de8cd3d1","","null","<div style=""display: flex; justify-content: center; align-items: center;"">
                     <img src=""images/causal/causal_series_8/causal_series_8_a.png"" style=""width: 300px; height: 300px;"" />
                   </div>","null","8","1","A","",""
"","","","","","html-button-response","14","93568","0.0-12.0","9E4FE65D161741A19F1485051D58DDD0","0199d676-7c57-77c3-845d-6bd30039ad3f","0199d675-8795-765b-adc2-c813de8cd3d1","","3977","
        <div style=""display: flex; justify-content: center; align-items: center;"">
          <img src=""images/red_deck_2.png"" style=""width: 300px; height: 300px; margin-right: 10px;"" />
          <img src=""images/blue_deck_1.png"" style=""width: 300px; height: 300px;"" />
        </div>","1","8","1","choice","1",""
"","","","","","html-keyboard-response","15","99577","0.0-13.0-1.0-0.0","9E4FE65D161741A19F1485051D58DDD0","0199d676-7c57-77c3-845d-6bd30039ad3f","0199d675-8795-765b-adc2-c813de8cd3d1","","null","<div style=""display: flex; justify-content: center; align-items: center;"">
                     <img src=""images/semantic/semantic_series_8/semantic_series_8_b.png"" style=""width: 300px; height: 300px;"" />
                   </div>","null","8","1","B","",""
"","","","","","html-keyboard-response","16","105584","0.0-13.0-1.0-1.0","9E4FE65D161741A19F1485051D58DDD0","0199d676-7c57-77c3-845d-6bd30039ad3f","0199d675-8795-765b-adc2-c813de8cd3d1","","null","<div style=""display: flex; justify-content: center; align-items: center;"">
                     <img src=""images/semantic/semantic_series_8/semantic_series_8_c.png"" style=""width: 300px; height: 300px;"" />
                   </div>","null","8","1","C","",""
"","","","","","html-keyboard-response","17","111593","0.0-13.0-1.0-2.0","9E4FE65D161741A19F1485051D58DDD0","0199d676-7c57-77c3-845d-6bd30039ad3f","0199d675-8795-765b-adc2-c813de8cd3d1","","null","<div style=""display: flex; justify-content: center; align-items: center;"">
                     <img src=""images/semantic/semantic_series_8/semantic_series_8_d.png"" style=""width: 300px; height: 300px;"" />
                   </div>","null","8","1","D","",""
"","","","","","survey-likert","18","116220","0.0-14.0","9E4FE65D161741A19F1485051D58DDD0","0199d676-7c57-77c3-845d-6bd30039ad3f","0199d675-8795-765b-adc2-c813de8cd3d1","","4626","","{""Q0"":4}","8","1","surprise_rating","","[0]"
"","","","","","survey-likert","19","118910","0.0-15.0","9E4FE65D161741A19F1485051D58DDD0","0199d676-7c57-77c3-845d-6bd30039ad3f","0199d675-8795-765b-adc2-c813de8cd3d1","","2687","","{""Q0"":3}","8","1","enjoyment_rating","","[0]"
"","","","","","html-keyboard-response","20","124917","0.0-16.0","9E4FE65D161741A19F1485051D58DDD0","0199d676-7c57-77c3-845d-6bd30039ad3f","0199d675-8795-765b-adc2-c813de8cd3d1","","null","<div style=""display: flex; justify-content: center; align-items: center;"">
                     <img src=""images/other/blank.png"" style=""width: 300px; height: 300px;"" />
                   </div>","null","0","0","blank","",""
"","","","","","html-keyboard-response","21","130925","0.0-17.0","9E4FE65D161741A19F1485051D58DDD0","0199d676-7c57-77c3-845d-6bd30039ad3f","0199d675-8795-765b-adc2-c813de8cd3d1","","null","<div style=""display: flex; justify-content: center; align-items: center;"">
                     <img src=""images/causal/causal_series_5/causal_series_5_a.png"" style=""width: 300px; height: 300px;"" />
                   </div>","null","5","1","A","",""
"","","","","","html-button-response","22","132484","0.0-18.0","9E4FE65D161741A19F1485051D58DDD0","0199d676-7c57-77c3-845d-6bd30039ad3f","0199d675-8795-765b-adc2-c813de8cd3d1","","1557","
        <div style=""display: flex; justify-content: center; align-items: center;"">
          <img src=""images/red_deck_2.png"" style=""width: 300px; height: 300px; margin-right: 10px;"" />
          <img src=""images/blue_deck_1.png"" style=""width: 300px; height: 300px;"" />
        </div>","0","5","1","choice","0",""
"","","","","","html-keyboard-response","23","138491","0.0-19.0-0.0-0.0","9E4FE65D161741A19F1485051D58DDD0","0199d676-7c57-77c3-845d-6bd30039ad3f","0199d675-8795-765b-adc2-c813de8cd3d1","","null","<div style=""display: flex; justify-content: center; align-items: center;"">
                     <img src=""images/causal/causal_series_5/causal_series_5_b.png"" style=""width: 300px; height: 300px;"" />
                   </div>","null","5","1","B","",""
"","","","","","html-keyboard-response","24","144492","0.0-19.0-0.0-1.0","9E4FE65D161741A19F1485051D58DDD0","0199d676-7c57-77c3-845d-6bd30039ad3f","0199d675-8795-765b-adc2-c813de8cd3d1","","null","<div style=""display: flex; justify-content: center; align-items: center;"">
                     <img src=""images/causal/causal_series_5/causal_series_5_c.png"" style=""width: 300px; height: 300px;"" />
                   </div>","null","5","1","C","",""
"","","","","","html-keyboard-response","25","150494","0.0-19.0-0.0-2.0","9E4FE65D161741A19F1485051D58DDD0","0199d676-7c57-77c3-845d-6bd30039ad3f","0199d675-8795-765b-adc2-c813de8cd3d1","","null","<div style=""display: flex; justify-content: center; align-items: center;"">
                     <img src=""images/causal/causal_series_5/causal_series_5_d.png"" style=""width: 300px; height: 300px;"" />
                   </div>","null","5","1","D","",""
"","","","","","survey-likert","26","155039","0.0-20.0","9E4FE65D161741A19F1485051D58DDD0","0199d676-7c57-77c3-845d-6bd30039ad3f","0199d675-8795-765b-adc2-c813de8cd3d1","","4544","","{""Q0"":4}","5","1","surprise_rating","","[0]"
"","","","","","survey-likert","27","157770","0.0-21.0","9E4FE65D161741A19F1485051D58DDD0","0199d676-7c57-77c3-845d-6bd30039ad3f","0199d675-8795-765b-adc2-c813de8cd3d1","","2729","","{""Q0"":4}","5","1","enjoyment_rating","","[0]"
"","","","","","html-keyboard-response","28","163773","0.0-22.0","9E4FE65D161741A19F1485051D58DDD0","0199d676-7c57-77c3-845d-6bd30039ad3f","0199d675-8795-765b-adc2-c813de8cd3d1","","null","<div style=""display: flex; justify-content: center; align-items: center;"">
                     <img src=""images/other/blank.png"" style=""width: 300px; height: 300px;"" />
                   </div>","null","0","0","blank","",""
"","","","","","html-keyboard-response","29","169775","0.0-23.0","9E4FE65D161741A19F1485051D58DDD0","0199d676-7c57-77c3-845d-6bd30039ad3f","0199d675-8795-765b-adc2-c813de8cd3d1","","null","<div style=""display: flex; justify-content: center; align-items: center;"">
                     <img src=""images/causal/causal_series_6/causal_series_6_a.png"" style=""width: 300px; height: 300px;"" />
                   </div>","null","6","1","A","",""
"","","","","","html-button-response","30","172107","0.0-24.0","9E4FE65D161741A19F1485051D58DDD0","0199d676-7c57-77c3-845d-6bd30039ad3f","0199d675-8795-765b-adc2-c813de8cd3d1","","2329","
        <div style=""display: flex; justify-content: center; align-items: center;"">
          <img src=""images/red_deck_2.png"" style=""width: 300px; height: 300px; margin-right: 10px;"" />
          <img src=""images/blue_deck_1.png"" style=""width: 300px; height: 300px;"" />
        </div>","0","6","1","choice","0",""
"","","","","","html-keyboard-response","31","178119","0.0-25.0-0.0-0.0","9E4FE65D161741A19F1485051D58DDD0","0199d676-7c57-77c3-845d-6bd30039ad3f","0199d675-8795-765b-adc2-c813de8cd3d1","","null","<div style=""display: flex; justify-content: center; align-items: center;"">
                     <img src=""images/causal/causal_series_6/causal_series_6_b.png"" style=""width: 300px; height: 300px;"" />
                   </div>","null","6","1","B","",""
"","","","","","html-keyboard-response","32","184126","0.0-25.0-0.0-1.0","9E4FE65D161741A19F1485051D58DDD0","0199d676-7c57-77c3-845d-6bd30039ad3f","0199d675-8795-765b-adc2-c813de8cd3d1","","null","<div style=""display: flex; justify-content: center; align-items: center;"">
                     <img src=""images/causal/causal_series_6/causal_series_6_c.png"" style=""width: 300px; height: 300px;"" />
                   </div>","null","6","1","C","",""
"","","","","","html-keyboard-response","33","190136","0.0-25.0-0.0-2.0","9E4FE65D161741A19F1485051D58DDD0","0199d676-7c57-77c3-845d-6bd30039ad3f","0199d675-8795-765b-adc2-c813de8cd3d1","","null","<div style=""display: flex; justify-content: center; align-items: center;"">
                     <img src=""images/causal/causal_series_6/causal_series_6_d.png"" style=""width: 300px; height: 300px;"" />
                   </div>","null","6","1","D","",""
"","","","","","survey-likert","34","197685","0.0-26.0","9E4FE65D161741A19F1485051D58DDD0","0199d676-7c57-77c3-845d-6bd30039ad3f","0199d675-8795-765b-adc2-c813de8cd3d1","","7547","","{""Q0"":2}","6","1","surprise_rating","","[0]"
"","","","","","survey-likert","35","200339","0.0-27.0","9E4FE65D161741A19F1485051D58DDD0","0199d676-7c57-77c3-845d-6bd30039ad3f","0199d675-8795-765b-adc2-c813de8cd3d1","","2651","","{""Q0"":2}","6","1","enjoyment_rating","","[0]"
"","","","","","html-keyboard-response","36","206343","0.0-28.0","9E4FE65D161741A19F1485051D58DDD0","0199d676-7c57-77c3-845d-6bd30039ad3f","0199d675-8795-765b-adc2-c813de8cd3d1","","null","<div style=""display: flex; justify-content: center; align-items: center;"">
                     <img src=""images/other/blank.png"" style=""width: 300px; height: 300px;"" />
                   </div>","null","0","0","blank","",""
"","","","","","html-keyboard-response","37","212344","0.0-29.0","9E4FE65D161741A19F1485051D58DDD0","0199d676-7c57-77c3-845d-6bd30039ad3f","0199d675-8795-765b-adc2-c813de8cd3d1","","null","<div style=""display: flex; justify-content: center; align-items: center;"">
                     <img src=""images/causal/causal_series_9/causal_series_9_a.png"" style=""width: 300px; height: 300px;"" />
                   </div>","null","9","1","A","",""
"","","","","","html-button-response","38","215594","0.0-30.0","9E4FE65D161741A19F1485051D58DDD0","0199d676-7c57-77c3-845d-6bd30039ad3f","0199d675-8795-765b-adc2-c813de8cd3d1","","3248","
        <div style=""display: flex; justify-content: center; align-items: center;"">
          <img src=""images/red_deck_2.png"" style=""width: 300px; height: 300px; margin-right: 10px;"" />
          <img src=""images/blue_deck_1.png"" style=""width: 300px; height: 300px;"" />
        </div>","0","9","1","choice","0",""
"","","","","","html-keyboard-response","39","221596","0.0-31.0-0.0-0.0","9E4FE65D161741A19F1485051D58DDD0","0199d676-7c57-77c3-845d-6bd30039ad3f","0199d675-8795-765b-adc2-c813de8cd3d1","","null","<div style=""display: flex; justify-content: center; align-items: center;"">
                     <img src=""images/causal/causal_series_9/causal_series_9_b.png"" style=""width: 300px; height: 300px;"" />
                   </div>","null","9","1","B","",""
"","","","","","html-keyboard-response","40","227613","0.0-31.0-0.0-1.0","9E4FE65D161741A19F1485051D58DDD0","0199d676-7c57-77c3-845d-6bd30039ad3f","0199d675-8795-765b-adc2-c813de8cd3d1","","null","<div style=""display: flex; justify-content: center; align-items: center;"">
                     <img src=""images/causal/causal_series_9/causal_series_9_c.png"" style=""width: 300px; height: 300px;"" />
                   </div>","null","9","1","C","",""
"","","","","","html-keyboard-response","41","233621","0.0-31.0-0.0-2.0","9E4FE65D161741A19F1485051D58DDD0","0199d676-7c57-77c3-845d-6bd30039ad3f","0199d675-8795-765b-adc2-c813de8cd3d1","","null","<div style=""display: flex; justify-content: center; align-items: center;"">
                     <img src=""images/causal/causal_series_9/causal_series_9_d.png"" style=""width: 300px; height: 300px;"" />
                   </div>","null","9","1","D","",""
"","","","","","survey-likert","42","237470","0.0-32.0","9E4FE65D161741A19F1485051D58DDD0","0199d676-7c57-77c3-845d-6bd30039ad3f","0199d675-8795-765b-adc2-c813de8cd3d1","","3847","","{""Q0"":4}","9","1","surprise_rating","","[0]"
"","","","","","survey-likert","43","239910","0.0-33.0","9E4FE65D161741A19F1485051D58DDD0","0199d676-7c57-77c3-845d-6bd30039ad3f","0199d675-8795-765b-adc2-c813de8cd3d1","","2438","","{""Q0"":4}","9","1","enjoyment_rating","","[0]"
"","","","","","html-keyboard-response","44","245920","0.0-34.0","9E4FE65D161741A19F1485051D58DDD0","0199d676-7c57-77c3-845d-6bd30039ad3f","0199d675-8795-765b-adc2-c813de8cd3d1","","null","<div style=""display: flex; justify-content: center; align-items: center;"">
                     <img src=""images/other/blank.png"" style=""width: 300px; height: 300px;"" />
                   </div>","null","0","0","blank","",""
"","","","","","html-keyboard-response","45","251931","0.0-35.0","9E4FE65D161741A19F1485051D58DDD0","0199d676-7c57-77c3-845d-6bd30039ad3f","0199d675-8795-765b-adc2-c813de8cd3d1","","null","<div style=""display: flex; justify-content: center; align-items: center;"">
                     <img src=""images/causal/causal_series_7/causal_series_7_a.png"" style=""width: 300px; height: 300px;"" />
                   </div>","null","7","1","A","",""
"","","","","","html-button-response","46","253391","0.0-36.0","9E4FE65D161741A19F1485051D58DDD0","0199d676-7c57-77c3-845d-6bd30039ad3f","0199d675-8795-765b-adc2-c813de8cd3d1","","1458","
        <div style=""display: flex; justify-content: center; align-items: center;"">
          <img src=""images/red_deck_2.png"" style=""width: 300px; height: 300px; margin-right: 10px;"" />
          <img src=""images/blue_deck_1.png"" style=""width: 300px; height: 300px;"" />
        </div>","1","7","1","choice","1",""
"","","","","","html-keyboard-response","47","259394","0.0-37.0-1.0-0.0","9E4FE65D161741A19F1485051D58DDD0","0199d676-7c57-77c3-845d-6bd30039ad3f","0199d675-8795-765b-adc2-c813de8cd3d1","","null","<div style=""display: flex; justify-content: center; align-items: center;"">
                     <img src=""images/semantic/semantic_series_7/semantic_series_7_b.png"" style=""width: 300px; height: 300px;"" />
                   </div>","null","7","1","B","",""
"","","","","","html-keyboard-response","48","265396","0.0-37.0-1.0-1.0","9E4FE65D161741A19F1485051D58DDD0","0199d676-7c57-77c3-845d-6bd30039ad3f","0199d675-8795-765b-adc2-c813de8cd3d1","","null","<div style=""display: flex; justify-content: center; align-items: center;"">
                     <img src=""images/semantic/semantic_series_7/semantic_series_7_c.png"" style=""width: 300px; height: 300px;"" />
                   </div>","null","7","1","C","",""
"","","","","","html-keyboard-response","49","271400","0.0-37.0-1.0-2.0","9E4FE65D161741A19F1485051D58DDD0","0199d676-7c57-77c3-845d-6bd30039ad3f","0199d675-8795-765b-adc2-c813de8cd3d1","","null","<div style=""display: flex; justify-content: center; align-items: center;"">
                     <img src=""images/semantic/semantic_series_7/semantic_series_7_d.png"" style=""width: 300px; height: 300px;"" />
                   </div>","null","7","1","D","",""
"","","","","","survey-likert","50","280289","0.0-38.0","9E4FE65D161741A19F1485051D58DDD0","0199d676-7c57-77c3-845d-6bd30039ad3f","0199d675-8795-765b-adc2-c813de8cd3d1","","8888","","{""Q0"":4}","7","1","surprise_rating","","[0]"
"","","","","","survey-likert","51","283098","0.0-39.0","9E4FE65D161741A19F1485051D58DDD0","0199d676-7c57-77c3-845d-6bd30039ad3f","0199d675-8795-765b-adc2-c813de8cd3d1","","2808","","{""Q0"":1}","7","1","enjoyment_rating","","[0]"
"","","","","","html-keyboard-response","52","289104","0.0-40.0","9E4FE65D161741A19F1485051D58DDD0","0199d676-7c57-77c3-845d-6bd30039ad3f","0199d675-8795-765b-adc2-c813de8cd3d1","","null","<div style=""display: flex; justify-content: center; align-items: center;"">
                     <img src=""images/other/blank.png"" style=""width: 300px; height: 300px;"" />
                   </div>","null","0","0","blank","",""
"","","","","","html-keyboard-response","53","295106","0.0-41.0","9E4FE65D161741A19F1485051D58DDD0","0199d676-7c57-77c3-845d-6bd30039ad3f","0199d675-8795-765b-adc2-c813de8cd3d1","","null","<div style=""display: flex; justify-content: center; align-items: center;"">
                     <img src=""images/causal/causal_series_3/causal_series_3_a.png"" style=""width: 300px; height: 300px;"" />
                   </div>","null","3","1","A","",""
"","","","","","html-button-response","54","296542","0.0-42.0","9E4FE65D161741A19F1485051D58DDD0","0199d676-7c57-77c3-845d-6bd30039ad3f","0199d675-8795-765b-adc2-c813de8cd3d1","","1433","
        <div style=""display: flex; justify-content: center; align-items: center;"">
          <img src=""images/red_deck_2.png"" style=""width: 300px; height: 300px; margin-right: 10px;"" />
          <img src=""images/blue_deck_1.png"" style=""width: 300px; height: 300px;"" />
        </div>","0","3","1","choice","0",""
"","","","","","html-keyboard-response","55","302544","0.0-43.0-0.0-0.0","9E4FE65D161741A19F1485051D58DDD0","0199d676-7c57-77c3-845d-6bd30039ad3f","0199d675-8795-765b-adc2-c813de8cd3d1","","null","<div style=""display: flex; justify-content: center; align-items: center;"">
                     <img src=""images/causal/causal_series_3/causal_series_3_b.png"" style=""width: 300px; height: 300px;"" />
                   </div>","null","3","1","B","",""
"","","","","","html-keyboard-response","56","308560","0.0-43.0-0.0-1.0","9E4FE65D161741A19F1485051D58DDD0","0199d676-7c57-77c3-845d-6bd30039ad3f","0199d675-8795-765b-adc2-c813de8cd3d1","","null","<div style=""display: flex; justify-content: center; align-items: center;"">
                     <img src=""images/causal/causal_series_3/causal_series_3_c.png"" style=""width: 300px; height: 300px;"" />
                   </div>","null","3","1","C","",""
"","","","","","html-keyboard-response","57","314562","0.0-43.0-0.0-2.0","9E4FE65D161741A19F1485051D58DDD0","0199d676-7c57-77c3-845d-6bd30039ad3f","0199d675-8795-765b-adc2-c813de8cd3d1","","null","<div style=""display: flex; justify-content: center; align-items: center;"">
                     <img src=""images/causal/causal_series_3/causal_series_3_d.png"" style=""width: 300px; height: 300px;"" />
                   </div>","null","3","1","D","",""
"","","","","","survey-likert","58","319236","0.0-44.0","9E4FE65D161741A19F1485051D58DDD0","0199d676-7c57-77c3-845d-6bd30039ad3f","0199d675-8795-765b-adc2-c813de8cd3d1","","4673","","{""Q0"":3}","3","1","surprise_rating","","[0]"
"","","","","","survey-likert","59","323207","0.0-45.0","9E4FE65D161741A19F1485051D58DDD0","0199d676-7c57-77c3-845d-6bd30039ad3f","0199d675-8795-765b-adc2-c813de8cd3d1","","3968","","{""Q0"":4}","3","1","enjoyment_rating","","[0]"
"","","","","","html-keyboard-response","60","329214","0.0-46.0","9E4FE65D161741A19F1485051D58DDD0","0199d676-7c57-77c3-845d-6bd30039ad3f","0199d675-8795-765b-adc2-c813de8cd3d1","","null","<div style=""display: flex; justify-content: center; align-items: center;"">
                     <img src=""images/other/blank.png"" style=""width: 300px; height: 300px;"" />
                   </div>","null","0","0","blank","",""
"","","","","","html-keyboard-response","61","335217","0.0-47.0","9E4FE65D161741A19F1485051D58DDD0","0199d676-7c57-77c3-845d-6bd30039ad3f","0199d675-8795-765b-adc2-c813de8cd3d1","","null","<div style=""display: flex; justify-content: center; align-items: center;"">
                     <img src=""images/causal/causal_series_8/causal_series_8_a.png"" style=""width: 300px; height: 300px;"" />
                   </div>","null","8","2","A","",""
"","","","","","html-button-response","62","338961","0.0-48.0","9E4FE65D161741A19F1485051D58DDD0","0199d676-7c57-77c3-845d-6bd30039ad3f","0199d675-8795-765b-adc2-c813de8cd3d1","","3741","
        <div style=""display: flex; justify-content: center; align-items: center;"">
          <img src=""images/red_deck_2.png"" style=""width: 300px; height: 300px; margin-right: 10px;"" />
          <img src=""images/blue_deck_1.png"" style=""width: 300px; height: 300px;"" />
        </div>","0","8","2","choice","0",""
"","","","","","html-keyboard-response","63","344968","0.0-49.0-0.0-0.0","9E4FE65D161741A19F1485051D58DDD0","0199d676-7c57-77c3-845d-6bd30039ad3f","0199d675-8795-765b-adc2-c813de8cd3d1","","null","<div style=""display: flex; justify-content: center; align-items: center;"">
                     <img src=""images/causal/causal_series_8/causal_series_8_b.png"" style=""width: 300px; height: 300px;"" />
                   </div>","null","8","2","B","",""
"","","","","","html-keyboard-response","64","350976","0.0-49.0-0.0-1.0","9E4FE65D161741A19F1485051D58DDD0","0199d676-7c57-77c3-845d-6bd30039ad3f","0199d675-8795-765b-adc2-c813de8cd3d1","","null","<div style=""display: flex; justify-content: center; align-items: center;"">
                     <img src=""images/causal/causal_series_8/causal_series_8_c.png"" style=""width: 300px; height: 300px;"" />
                   </div>","null","8","2","C","",""
"","","","","","html-keyboard-response","65","356979","0.0-49.0-0.0-2.0","9E4FE65D161741A19F1485051D58DDD0","0199d676-7c57-77c3-845d-6bd30039ad3f","0199d675-8795-765b-adc2-c813de8cd3d1","","null","<div style=""display: flex; justify-content: center; align-items: center;"">
                     <img src=""images/causal/causal_series_8/causal_series_8_d.png"" style=""width: 300px; height: 300px;"" />
                   </div>","null","8","2","D","",""
"","","","","","survey-likert","66","364203","0.0-50.0","9E4FE65D161741A19F1485051D58DDD0","0199d676-7c57-77c3-845d-6bd30039ad3f","0199d675-8795-765b-adc2-c813de8cd3d1","","7223","","{""Q0"":4}","8","2","surprise_rating","","[0]"
"","","","","","survey-likert","67","366660","0.0-51.0","9E4FE65D161741A19F1485051D58DDD0","0199d676-7c57-77c3-845d-6bd30039ad3f","0199d675-8795-765b-adc2-c813de8cd3d1","","2455","","{""Q0"":3}","8","2","enjoyment_rating","","[0]"
"","","","","","html-keyboard-response","68","372674","0.0-52.0","9E4FE65D161741A19F1485051D58DDD0","0199d676-7c57-77c3-845d-6bd30039ad3f","0199d675-8795-765b-adc2-c813de8cd3d1","","null","<div style=""display: flex; justify-content: center; align-items: center;"">
                     <img src=""images/other/blank.png"" style=""width: 300px; height: 300px;"" />
                   </div>","null","0","0","blank","",""
"","","","","","html-keyboard-response","69","378689","0.0-53.0","9E4FE65D161741A19F1485051D58DDD0","0199d676-7c57-77c3-845d-6bd30039ad3f","0199d675-8795-765b-adc2-c813de8cd3d1","","null","<div style=""display: flex; justify-content: center; align-items: center;"">
                     <img src=""images/causal/causal_series_10/causal_series_10_a.png"" style=""width: 300px; height: 300px;"" />
                   </div>","null","10","2","A","",""
"","","","","","html-button-response","70","381826","0.0-54.0","9E4FE65D161741A19F1485051D58DDD0","0199d676-7c57-77c3-845d-6bd30039ad3f","0199d675-8795-765b-adc2-c813de8cd3d1","","3135","
        <div style=""display: flex; justify-content: center; align-items: center;"">
          <img src=""images/red_deck_2.png"" style=""width: 300px; height: 300px; margin-right: 10px;"" />
          <img src=""images/blue_deck_1.png"" style=""width: 300px; height: 300px;"" />
        </div>","0","10","2","choice","0",""
"","","","","","html-keyboard-response","71","387828","0.0-55.0-0.0-0.0","9E4FE65D161741A19F1485051D58DDD0","0199d676-7c57-77c3-845d-6bd30039ad3f","0199d675-8795-765b-adc2-c813de8cd3d1","","null","<div style=""display: flex; justify-content: center; align-items: center;"">
                     <img src=""images/causal/causal_series_10/causal_series_10_b.png"" style=""width: 300px; height: 300px;"" />
                   </div>","null","10","2","B","",""
"","","","","","html-keyboard-response","72","393836","0.0-55.0-0.0-1.0","9E4FE65D161741A19F1485051D58DDD0","0199d676-7c57-77c3-845d-6bd30039ad3f","0199d675-8795-765b-adc2-c813de8cd3d1","","null","<div style=""display: flex; justify-content: center; align-items: center;"">
                     <img src=""images/causal/causal_series_10/causal_series_10_c.png"" style=""width: 300px; height: 300px;"" />
                   </div>","null","10","2","C","",""
"","","","","","html-keyboard-response","73","399848","0.0-55.0-0.0-2.0","9E4FE65D161741A19F1485051D58DDD0","0199d676-7c57-77c3-845d-6bd30039ad3f","0199d675-8795-765b-adc2-c813de8cd3d1","","null","<div style=""display: flex; justify-content: center; align-items: center;"">
                     <img src=""images/causal/causal_series_10/causal_series_10_d.png"" style=""width: 300px; height: 300px;"" />
                   </div>","null","10","2","D","",""
"","","","","","survey-likert","74","405411","0.0-56.0","9E4FE65D161741A19F1485051D58DDD0","0199d676-7c57-77c3-845d-6bd30039ad3f","0199d675-8795-765b-adc2-c813de8cd3d1","","5561","","{""Q0"":4}","10","2","surprise_rating","","[0]"
"","","","","","survey-likert","75","407473","0.0-57.0","9E4FE65D161741A19F1485051D58DDD0","0199d676-7c57-77c3-845d-6bd30039ad3f","0199d675-8795-765b-adc2-c813de8cd3d1","","2060","","{""Q0"":3}","10","2","enjoyment_rating","","[0]"
"","","","","","html-keyboard-response","76","413476","0.0-58.0","9E4FE65D161741A19F1485051D58DDD0","0199d676-7c57-77c3-845d-6bd30039ad3f","0199d675-8795-765b-adc2-c813de8cd3d1","","null","<div style=""display: flex; justify-content: center; align-items: center;"">
                     <img src=""images/other/blank.png"" style=""width: 300px; height: 300px;"" />
                   </div>","null","0","0","blank","",""
"","","","","","html-keyboard-response","77","419477","0.0-59.0","9E4FE65D161741A19F1485051D58DDD0","0199d676-7c57-77c3-845d-6bd30039ad3f","0199d675-8795-765b-adc2-c813de8cd3d1","","null","<div style=""display: flex; justify-content: center; align-items: center;"">
                     <img src=""images/causal/causal_series_3/causal_series_3_a.png"" style=""width: 300px; height: 300px;"" />
                   </div>","null","3","2","A","",""
"","","","","","html-button-response","78","421633","0.0-60.0","9E4FE65D161741A19F1485051D58DDD0","0199d676-7c57-77c3-845d-6bd30039ad3f","0199d675-8795-765b-adc2-c813de8cd3d1","","2153","
        <div style=""display: flex; justify-content: center; align-items: center;"">
          <img src=""images/red_deck_2.png"" style=""width: 300px; height: 300px; margin-right: 10px;"" />
          <img src=""images/blue_deck_1.png"" style=""width: 300px; height: 300px;"" />
        </div>","1","3","2","choice","1",""
"","","","","","html-keyboard-response","79","427635","0.0-61.0-1.0-0.0","9E4FE65D161741A19F1485051D58DDD0","0199d676-7c57-77c3-845d-6bd30039ad3f","0199d675-8795-765b-adc2-c813de8cd3d1","","null","<div style=""display: flex; justify-content: center; align-items: center;"">
                     <img src=""images/semantic/semantic_series_3/semantic_series_3_b.png"" style=""width: 300px; height: 300px;"" />
                   </div>","null","3","2","B","",""
"","","","","","html-keyboard-response","80","433637","0.0-61.0-1.0-1.0","9E4FE65D161741A19F1485051D58DDD0","0199d676-7c57-77c3-845d-6bd30039ad3f","0199d675-8795-765b-adc2-c813de8cd3d1","","null","<div style=""display: flex; justify-content: center; align-items: center;"">
                     <img src=""images/semantic/semantic_series_3/semantic_series_3_c.png"" style=""width: 300px; height: 300px;"" />
                   </div>","null","3","2","C","",""
"","","","","","html-keyboard-response","81","439639","0.0-61.0-1.0-2.0","9E4FE65D161741A19F1485051D58DDD0","0199d676-7c57-77c3-845d-6bd30039ad3f","0199d675-8795-765b-adc2-c813de8cd3d1","","null","<div style=""display: flex; justify-content: center; align-items: center;"">
                     <img src=""images/semantic/semantic_series_3/semantic_series_3_d.png"" style=""width: 300px; height: 300px;"" />
                   </div>","null","3","2","D","",""
"","","","","","survey-likert","82","443519","0.0-62.0","9E4FE65D161741A19F1485051D58DDD0","0199d676-7c57-77c3-845d-6bd30039ad3f","0199d675-8795-765b-adc2-c813de8cd3d1","","3879","","{""Q0"":4}","3","2","surprise_rating","","[0]"
"","","","","","survey-likert","83","446039","0.0-63.0","9E4FE65D161741A19F1485051D58DDD0","0199d676-7c57-77c3-845d-6bd30039ad3f","0199d675-8795-765b-adc2-c813de8cd3d1","","2518","","{""Q0"":4}","3","2","enjoyment_rating","","[0]"
"","","","","","html-keyboard-response","84","452042","0.0-64.0","9E4FE65D161741A19F1485051D58DDD0","0199d676-7c57-77c3-845d-6bd30039ad3f","0199d675-8795-765b-adc2-c813de8cd3d1","","null","<div style=""display: flex; justify-content: center; align-items: center;"">
                     <img src=""images/other/blank.png"" style=""width: 300px; height: 300px;"" />
                   </div>","null","0","0","blank","",""
"","","","","","html-keyboard-response","85","458057","0.0-65.0","9E4FE65D161741A19F1485051D58DDD0","0199d676-7c57-77c3-845d-6bd30039ad3f","0199d675-8795-765b-adc2-c813de8cd3d1","","null","<div style=""display: flex; justify-content: center; align-items: center;"">
                     <img src=""images/causal/causal_series_6/causal_series_6_a.png"" style=""width: 300px; height: 300px;"" />
                   </div>","null","6","2","A","",""
"","","","","","html-button-response","86","462647","0.0-66.0","9E4FE65D161741A19F1485051D58DDD0","0199d676-7c57-77c3-845d-6bd30039ad3f","0199d675-8795-765b-adc2-c813de8cd3d1","","4587","
        <div style=""display: flex; justify-content: center; align-items: center;"">
          <img src=""images/red_deck_2.png"" style=""width: 300px; height: 300px; margin-right: 10px;"" />
          <img src=""images/blue_deck_1.png"" style=""width: 300px; height: 300px;"" />
        </div>","1","6","2","choice","1",""
"","","","","","html-keyboard-response","87","468649","0.0-67.0-1.0-0.0","9E4FE65D161741A19F1485051D58DDD0","0199d676-7c57-77c3-845d-6bd30039ad3f","0199d675-8795-765b-adc2-c813de8cd3d1","","null","<div style=""display: flex; justify-content: center; align-items: center;"">
                     <img src=""images/semantic/semantic_series_6/semantic_series_6_b.png"" style=""width: 300px; height: 300px;"" />
                   </div>","null","6","2","B","",""
"","","","","","html-keyboard-response","88","474660","0.0-67.0-1.0-1.0","9E4FE65D161741A19F1485051D58DDD0","0199d676-7c57-77c3-845d-6bd30039ad3f","0199d675-8795-765b-adc2-c813de8cd3d1","","null","<div style=""display: flex; justify-content: center; align-items: center;"">
                     <img src=""images/semantic/semantic_series_6/semantic_series_6_c.png"" style=""width: 300px; height: 300px;"" />
                   </div>","null","6","2","C","",""
"","","","","","html-keyboard-response","89","480668","0.0-67.0-1.0-2.0","9E4FE65D161741A19F1485051D58DDD0","0199d676-7c57-77c3-845d-6bd30039ad3f","0199d675-8795-765b-adc2-c813de8cd3d1","","null","<div style=""display: flex; justify-content: center; align-items: center;"">
                     <img src=""images/semantic/semantic_series_6/semantic_series_6_d.png"" style=""width: 300px; height: 300px;"" />
                   </div>","null","6","2","D","",""
"","","","","","survey-likert","90","484421","0.0-68.0","9E4FE65D161741A19F1485051D58DDD0","0199d676-7c57-77c3-845d-6bd30039ad3f","0199d675-8795-765b-adc2-c813de8cd3d1","","3752","","{""Q0"":1}","6","2","surprise_rating","","[0]"
"","","","","","survey-likert","91","488152","0.0-69.0","9E4FE65D161741A19F1485051D58DDD0","0199d676-7c57-77c3-845d-6bd30039ad3f","0199d675-8795-765b-adc2-c813de8cd3d1","","3729","","{""Q0"":2}","6","2","enjoyment_rating","","[0]"
"","","","","","html-keyboard-response","92","494167","0.0-70.0","9E4FE65D161741A19F1485051D58DDD0","0199d676-7c57-77c3-845d-6bd30039ad3f","0199d675-8795-765b-adc2-c813de8cd3d1","","null","<div style=""display: flex; justify-content: center; align-items: center;"">
                     <img src=""images/other/blank.png"" style=""width: 300px; height: 300px;"" />
                   </div>","null","0","0","blank","",""
"","","","","","html-keyboard-response","93","500182","0.0-71.0","9E4FE65D161741A19F1485051D58DDD0","0199d676-7c57-77c3-845d-6bd30039ad3f","0199d675-8795-765b-adc2-c813de8cd3d1","","null","<div style=""display: flex; justify-content: center; align-items: center;"">
                     <img src=""images/causal/causal_series_1/causal_series_1_a.png"" style=""width: 300px; height: 300px;"" />
                   </div>","null","1","1","A","",""
"","","","","","html-button-response","94","501645","0.0-72.0","9E4FE65D161741A19F1485051D58DDD0","0199d676-7c57-77c3-845d-6bd30039ad3f","0199d675-8795-765b-adc2-c813de8cd3d1","","1461","
        <div style=""display: flex; justify-content: center; align-items: center;"">
          <img src=""images/red_deck_2.png"" style=""width: 300px; height: 300px; margin-right: 10px;"" />
          <img src=""images/blue_deck_1.png"" style=""width: 300px; height: 300px;"" />
        </div>","0","1","1","choice","0",""
"","","","","","html-keyboard-response","95","507663","0.0-73.0-0.0-0.0","9E4FE65D161741A19F1485051D58DDD0","0199d676-7c57-77c3-845d-6bd30039ad3f","0199d675-8795-765b-adc2-c813de8cd3d1","","null","<div style=""display: flex; justify-content: center; align-items: center;"">
                     <img src=""images/causal/causal_series_1/causal_series_1_b.png"" style=""width: 300px; height: 300px;"" />
                   </div>","null","1","1","B","",""
"","","","","","html-keyboard-response","96","513666","0.0-73.0-0.0-1.0","9E4FE65D161741A19F1485051D58DDD0","0199d676-7c57-77c3-845d-6bd30039ad3f","0199d675-8795-765b-adc2-c813de8cd3d1","","null","<div style=""display: flex; justify-content: center; align-items: center;"">
                     <img src=""images/causal/causal_series_1/causal_series_1_c.png"" style=""width: 300px; height: 300px;"" />
                   </div>","null","1","1","C","",""
"","","","","","html-keyboard-response","97","519682","0.0-73.0-0.0-2.0","9E4FE65D161741A19F1485051D58DDD0","0199d676-7c57-77c3-845d-6bd30039ad3f","0199d675-8795-765b-adc2-c813de8cd3d1","","null","<div style=""display: flex; justify-content: center; align-items: center;"">
                     <img src=""images/causal/causal_series_1/causal_series_1_d.png"" style=""width: 300px; height: 300px;"" />
                   </div>","null","1","1","D","",""
"","","","","","survey-likert","98","523219","0.0-74.0","9E4FE65D161741A19F1485051D58DDD0","0199d676-7c57-77c3-845d-6bd30039ad3f","0199d675-8795-765b-adc2-c813de8cd3d1","","3535","","{""Q0"":4}","1","1","surprise_rating","","[0]"
"","","","","","survey-likert","99","525858","0.0-75.0","9E4FE65D161741A19F1485051D58DDD0","0199d676-7c57-77c3-845d-6bd30039ad3f","0199d675-8795-765b-adc2-c813de8cd3d1","","2636","","{""Q0"":3}","1","1","enjoyment_rating","","[0]"
"","","","","","html-keyboard-response","100","531862","0.0-76.0","9E4FE65D161741A19F1485051D58DDD0","0199d676-7c57-77c3-845d-6bd30039ad3f","0199d675-8795-765b-adc2-c813de8cd3d1","","null","<div style=""display: flex; justify-content: center; align-items: center;"">
                     <img src=""images/other/blank.png"" style=""width: 300px; height: 300px;"" />
                   </div>","null","0","0","blank","",""
"","","","","","html-keyboard-response","101","537873","0.0-77.0","9E4FE65D161741A19F1485051D58DDD0","0199d676-7c57-77c3-845d-6bd30039ad3f","0199d675-8795-765b-adc2-c813de8cd3d1","","null","<div style=""display: flex; justify-content: center; align-items: center;"">
                     <img src=""images/causal/causal_series_4/causal_series_4_a.png"" style=""width: 300px; height: 300px;"" />
                   </div>","null","4","2","A","",""
"","","","","","html-button-response","102","539119","0.0-78.0","9E4FE65D161741A19F1485051D58DDD0","0199d676-7c57-77c3-845d-6bd30039ad3f","0199d675-8795-765b-adc2-c813de8cd3d1","","1244","
        <div style=""display: flex; justify-content: center; align-items: center;"">
          <img src=""images/red_deck_2.png"" style=""width: 300px; height: 300px; margin-right: 10px;"" />
          <img src=""images/blue_deck_1.png"" style=""width: 300px; height: 300px;"" />
        </div>","0","4","2","choice","0",""
"","","","","","html-keyboard-response","103","545134","0.0-79.0-0.0-0.0","9E4FE65D161741A19F1485051D58DDD0","0199d676-7c57-77c3-845d-6bd30039ad3f","0199d675-8795-765b-adc2-c813de8cd3d1","","null","<div style=""display: flex; justify-content: center; align-items: center;"">
                     <img src=""images/causal/causal_series_4/causal_series_4_b.png"" style=""width: 300px; height: 300px;"" />
                   </div>","null","4","2","B","",""
"","","","","","html-keyboard-response","104","551138","0.0-79.0-0.0-1.0","9E4FE65D161741A19F1485051D58DDD0","0199d676-7c57-77c3-845d-6bd30039ad3f","0199d675-8795-765b-adc2-c813de8cd3d1","","null","<div style=""display: flex; justify-content: center; align-items: center;"">
                     <img src=""images/causal/causal_series_4/causal_series_4_c.png"" style=""width: 300px; height: 300px;"" />
                   </div>","null","4","2","C","",""
"","","","","","html-keyboard-response","105","557140","0.0-79.0-0.0-2.0","9E4FE65D161741A19F1485051D58DDD0","0199d676-7c57-77c3-845d-6bd30039ad3f","0199d675-8795-765b-adc2-c813de8cd3d1","","null","<div style=""display: flex; justify-content: center; align-items: center;"">
                     <img src=""images/causal/causal_series_4/causal_series_4_d.png"" style=""width: 300px; height: 300px;"" />
                   </div>","null","4","2","D","",""
"","","","","","survey-likert","106","561552","0.0-80.0","9E4FE65D161741A19F1485051D58DDD0","0199d676-7c57-77c3-845d-6bd30039ad3f","0199d675-8795-765b-adc2-c813de8cd3d1","","4411","","{""Q0"":4}","4","2","surprise_rating","","[0]"
"","","","","","survey-likert","107","565849","0.0-81.0","9E4FE65D161741A19F1485051D58DDD0","0199d676-7c57-77c3-845d-6bd30039ad3f","0199d675-8795-765b-adc2-c813de8cd3d1","","4294","","{""Q0"":2}","4","2","enjoyment_rating","","[0]"
"","","","","","html-keyboard-response","108","571851","0.0-82.0","9E4FE65D161741A19F1485051D58DDD0","0199d676-7c57-77c3-845d-6bd30039ad3f","0199d675-8795-765b-adc2-c813de8cd3d1","","null","<div style=""display: flex; justify-content: center; align-items: center;"">
                     <img src=""images/other/blank.png"" style=""width: 300px; height: 300px;"" />
                   </div>","null","0","0","blank","",""
"","","","","","html-keyboard-response","109","577858","0.0-83.0","9E4FE65D161741A19F1485051D58DDD0","0199d676-7c57-77c3-845d-6bd30039ad3f","0199d675-8795-765b-adc2-c813de8cd3d1","","null","<div style=""display: flex; justify-content: center; align-items: center;"">
                     <img src=""images/causal/causal_series_9/causal_series_9_a.png"" style=""width: 300px; height: 300px;"" />
                   </div>","null","9","2","A","",""
"","","","","","html-button-response","110","578962","0.0-84.0","9E4FE65D161741A19F1485051D58DDD0","0199d676-7c57-77c3-845d-6bd30039ad3f","0199d675-8795-765b-adc2-c813de8cd3d1","","1102","
        <div style=""display: flex; justify-content: center; align-items: center;"">
          <img src=""images/red_deck_2.png"" style=""width: 300px; height: 300px; margin-right: 10px;"" />
          <img src=""images/blue_deck_1.png"" style=""width: 300px; height: 300px;"" />
        </div>","0","9","2","choice","0",""
"","","","","","html-keyboard-response","111","584964","0.0-85.0-0.0-0.0","9E4FE65D161741A19F1485051D58DDD0","0199d676-7c57-77c3-845d-6bd30039ad3f","0199d675-8795-765b-adc2-c813de8cd3d1","","null","<div style=""display: flex; justify-content: center; align-items: center;"">
                     <img src=""images/causal/causal_series_9/causal_series_9_b.png"" style=""width: 300px; height: 300px;"" />
                   </div>","null","9","2","B","",""
"","","","","","html-keyboard-response","112","590966","0.0-85.0-0.0-1.0","9E4FE65D161741A19F1485051D58DDD0","0199d676-7c57-77c3-845d-6bd30039ad3f","0199d675-8795-765b-adc2-c813de8cd3d1","","null","<div style=""display: flex; justify-content: center; align-items: center;"">
                     <img src=""images/causal/causal_series_9/causal_series_9_c.png"" style=""width: 300px; height: 300px;"" />
                   </div>","null","9","2","C","",""
"","","","","","html-keyboard-response","113","596967","0.0-85.0-0.0-2.0","9E4FE65D161741A19F1485051D58DDD0","0199d676-7c57-77c3-845d-6bd30039ad3f","0199d675-8795-765b-adc2-c813de8cd3d1","","null","<div style=""display: flex; justify-content: center; align-items: center;"">
                     <img src=""images/causal/causal_series_9/causal_series_9_d.png"" style=""width: 300px; height: 300px;"" />
                   </div>","null","9","2","D","",""
"","","","","","survey-likert","114","605901","0.0-86.0","9E4FE65D161741A19F1485051D58DDD0","0199d676-7c57-77c3-845d-6bd30039ad3f","0199d675-8795-765b-adc2-c813de8cd3d1","","8932","","{""Q0"":2}","9","2","surprise_rating","","[0]"
"","","","","","survey-likert","115","608139","0.0-87.0","9E4FE65D161741A19F1485051D58DDD0","0199d676-7c57-77c3-845d-6bd30039ad3f","0199d675-8795-765b-adc2-c813de8cd3d1","","2235","","{""Q0"":4}","9","2","enjoyment_rating","","[0]"
"","","","","","html-keyboard-response","116","614142","0.0-88.0","9E4FE65D161741A19F1485051D58DDD0","0199d676-7c57-77c3-845d-6bd30039ad3f","0199d675-8795-765b-adc2-c813de8cd3d1","","null","<div style=""display: flex; justify-content: center; align-items: center;"">
                     <img src=""images/other/blank.png"" style=""width: 300px; height: 300px;"" />
                   </div>","null","0","0","blank","",""
"","","","","","html-keyboard-response","117","620144","0.0-89.0","9E4FE65D161741A19F1485051D58DDD0","0199d676-7c57-77c3-845d-6bd30039ad3f","0199d675-8795-765b-adc2-c813de8cd3d1","","null","<div style=""display: flex; justify-content: center; align-items: center;"">
                     <img src=""images/causal/causal_series_5/causal_series_5_a.png"" style=""width: 300px; height: 300px;"" />
                   </div>","null","5","2","A","",""
"","","","","","html-button-response","118","621406","0.0-90.0","9E4FE65D161741A19F1485051D58DDD0","0199d676-7c57-77c3-845d-6bd30039ad3f","0199d675-8795-765b-adc2-c813de8cd3d1","","1260","
        <div style=""display: flex; justify-content: center; align-items: center;"">
          <img src=""images/red_deck_2.png"" style=""width: 300px; height: 300px; margin-right: 10px;"" />
          <img src=""images/blue_deck_1.png"" style=""width: 300px; height: 300px;"" />
        </div>","1","5","2","choice","1",""
"","","","","","html-keyboard-response","119","627420","0.0-91.0-1.0-0.0","9E4FE65D161741A19F1485051D58DDD0","0199d676-7c57-77c3-845d-6bd30039ad3f","0199d675-8795-765b-adc2-c813de8cd3d1","","null","<div style=""display: flex; justify-content: center; align-items: center;"">
                     <img src=""images/semantic/semantic_series_5/semantic_series_5_b.png"" style=""width: 300px; height: 300px;"" />
                   </div>","null","5","2","B","",""
"","","","","","html-keyboard-response","120","633433","0.0-91.0-1.0-1.0","9E4FE65D161741A19F1485051D58DDD0","0199d676-7c57-77c3-845d-6bd30039ad3f","0199d675-8795-765b-adc2-c813de8cd3d1","","null","<div style=""display: flex; justify-content: center; align-items: center;"">
                     <img src=""images/semantic/semantic_series_5/semantic_series_5_c.png"" style=""width: 300px; height: 300px;"" />
                   </div>","null","5","2","C","",""
"","","","","","html-keyboard-response","121","639434","0.0-91.0-1.0-2.0","9E4FE65D161741A19F1485051D58DDD0","0199d676-7c57-77c3-845d-6bd30039ad3f","0199d675-8795-765b-adc2-c813de8cd3d1","","null","<div style=""display: flex; justify-content: center; align-items: center;"">
                     <img src=""images/semantic/semantic_series_5/semantic_series_5_d.png"" style=""width: 300px; height: 300px;"" />
                   </div>","null","5","2","D","",""
"","","","","","survey-likert","122","645599","0.0-92.0","9E4FE65D161741A19F1485051D58DDD0","0199d676-7c57-77c3-845d-6bd30039ad3f","0199d675-8795-765b-adc2-c813de8cd3d1","","6164","","{""Q0"":4}","5","2","surprise_rating","","[0]"
"","","","","","survey-likert","123","649594","0.0-93.0","9E4FE65D161741A19F1485051D58DDD0","0199d676-7c57-77c3-845d-6bd30039ad3f","0199d675-8795-765b-adc2-c813de8cd3d1","","3993","","{""Q0"":2}","5","2","enjoyment_rating","","[0]"
"","","","","","html-keyboard-response","124","655599","0.0-94.0","9E4FE65D161741A19F1485051D58DDD0","0199d676-7c57-77c3-845d-6bd30039ad3f","0199d675-8795-765b-adc2-c813de8cd3d1","","null","<div style=""display: flex; justify-content: center; align-items: center;"">
                     <img src=""images/other/blank.png"" style=""width: 300px; height: 300px;"" />
                   </div>","null","0","0","blank","",""
"","","","","","html-keyboard-response","125","661611","0.0-95.0","9E4FE65D161741A19F1485051D58DDD0","0199d676-7c57-77c3-845d-6bd30039ad3f","0199d675-8795-765b-adc2-c813de8cd3d1","","null","<div style=""display: flex; justify-content: center; align-items: center;"">
                     <img src=""images/causal/causal_series_4/causal_series_4_a.png"" style=""width: 300px; height: 300px;"" />
                   </div>","null","4","1","A","",""
"","","","","","html-button-response","126","663085","0.0-96.0","9E4FE65D161741A19F1485051D58DDD0","0199d676-7c57-77c3-845d-6bd30039ad3f","0199d675-8795-765b-adc2-c813de8cd3d1","","1471","
        <div style=""display: flex; justify-content: center; align-items: center;"">
          <img src=""images/red_deck_2.png"" style=""width: 300px; height: 300px; margin-right: 10px;"" />
          <img src=""images/blue_deck_1.png"" style=""width: 300px; height: 300px;"" />
        </div>","1","4","1","choice","1",""
"","","","","","html-keyboard-response","127","669099","0.0-97.0-1.0-0.0","9E4FE65D161741A19F1485051D58DDD0","0199d676-7c57-77c3-845d-6bd30039ad3f","0199d675-8795-765b-adc2-c813de8cd3d1","","null","<div style=""display: flex; justify-content: center; align-items: center;"">
                     <img src=""images/semantic/semantic_series_4/semantic_series_4_b.png"" style=""width: 300px; height: 300px;"" />
                   </div>","null","4","1","B","",""
"","","","","","html-keyboard-response","128","675100","0.0-97.0-1.0-1.0","9E4FE65D161741A19F1485051D58DDD0","0199d676-7c57-77c3-845d-6bd30039ad3f","0199d675-8795-765b-adc2-c813de8cd3d1","","null","<div style=""display: flex; justify-content: center; align-items: center;"">
                     <img src=""images/semantic/semantic_series_4/semantic_series_4_c.png"" style=""width: 300px; height: 300px;"" />
                   </div>","null","4","1","C","",""
"","","","","","html-keyboard-response","129","681117","0.0-97.0-1.0-2.0","9E4FE65D161741A19F1485051D58DDD0","0199d676-7c57-77c3-845d-6bd30039ad3f","0199d675-8795-765b-adc2-c813de8cd3d1","","null","<div style=""display: flex; justify-content: center; align-items: center;"">
                     <img src=""images/semantic/semantic_series_4/semantic_series_4_d.png"" style=""width: 300px; height: 300px;"" />
                   </div>","null","4","1","D","",""
"","","","","","survey-likert","130","686741","0.0-98.0","9E4FE65D161741A19F1485051D58DDD0","0199d676-7c57-77c3-845d-6bd30039ad3f","0199d675-8795-765b-adc2-c813de8cd3d1","","5622","","{""Q0"":3}","4","1","surprise_rating","","[0]"
"","","","","","survey-likert","131","688760","0.0-99.0","9E4FE65D161741A19F1485051D58DDD0","0199d676-7c57-77c3-845d-6bd30039ad3f","0199d675-8795-765b-adc2-c813de8cd3d1","","2017","","{""Q0"":3}","4","1","enjoyment_rating","","[0]"
"","","","","","html-keyboard-response","132","694768","0.0-100.0","9E4FE65D161741A19F1485051D58DDD0","0199d676-7c57-77c3-845d-6bd30039ad3f","0199d675-8795-765b-adc2-c813de8cd3d1","","null","<div style=""display: flex; justify-content: center; align-items: center;"">
                     <img src=""images/other/blank.png"" style=""width: 300px; height: 300px;"" />
                   </div>","null","0","0","blank","",""
"","","","","","html-keyboard-response","133","700779","0.0-101.0","9E4FE65D161741A19F1485051D58DDD0","0199d676-7c57-77c3-845d-6bd30039ad3f","0199d675-8795-765b-adc2-c813de8cd3d1","","null","<div style=""display: flex; justify-content: center; align-items: center;"">
                     <img src=""images/causal/causal_series_1/causal_series_1_a.png"" style=""width: 300px; height: 300px;"" />
                   </div>","null","1","2","A","",""
"","","","","","html-button-response","134","706149","0.0-102.0","9E4FE65D161741A19F1485051D58DDD0","0199d676-7c57-77c3-845d-6bd30039ad3f","0199d675-8795-765b-adc2-c813de8cd3d1","","5368","
        <div style=""display: flex; justify-content: center; align-items: center;"">
          <img src=""images/red_deck_2.png"" style=""width: 300px; height: 300px; margin-right: 10px;"" />
          <img src=""images/blue_deck_1.png"" style=""width: 300px; height: 300px;"" />
        </div>","1","1","2","choice","1",""
"","","","","","html-keyboard-response","135","712151","0.0-103.0-1.0-0.0","9E4FE65D161741A19F1485051D58DDD0","0199d676-7c57-77c3-845d-6bd30039ad3f","0199d675-8795-765b-adc2-c813de8cd3d1","","null","<div style=""display: flex; justify-content: center; align-items: center;"">
                     <img src=""images/semantic/semantic_series_1/semantic_series_1_b.png"" style=""width: 300px; height: 300px;"" />
                   </div>","null","1","2","B","",""
"","","","","","html-keyboard-response","136","718167","0.0-103.0-1.0-1.0","9E4FE65D161741A19F1485051D58DDD0","0199d676-7c57-77c3-845d-6bd30039ad3f","0199d675-8795-765b-adc2-c813de8cd3d1","","null","<div style=""display: flex; justify-content: center; align-items: center;"">
                     <img src=""images/semantic/semantic_series_1/semantic_series_1_c.png"" style=""width: 300px; height: 300px;"" />
                   </div>","null","1","2","C","",""
"","","","","","html-keyboard-response","137","724168","0.0-103.0-1.0-2.0","9E4FE65D161741A19F1485051D58DDD0","0199d676-7c57-77c3-845d-6bd30039ad3f","0199d675-8795-765b-adc2-c813de8cd3d1","","null","<div style=""display: flex; justify-content: center; align-items: center;"">
                     <img src=""images/semantic/semantic_series_1/semantic_series_1_d.png"" style=""width: 300px; height: 300px;"" />
                   </div>","null","1","2","D","",""
"","","","","","survey-likert","138","730724","0.0-104.0","9E4FE65D161741A19F1485051D58DDD0","0199d676-7c57-77c3-845d-6bd30039ad3f","0199d675-8795-765b-adc2-c813de8cd3d1","","6554","","{""Q0"":3}","1","2","surprise_rating","","[0]"
"","","","","","survey-likert","139","733720","0.0-105.0","9E4FE65D161741A19F1485051D58DDD0","0199d676-7c57-77c3-845d-6bd30039ad3f","0199d675-8795-765b-adc2-c813de8cd3d1","","2994","","{""Q0"":2}","1","2","enjoyment_rating","","[0]"
"","","","","","html-keyboard-response","140","739724","0.0-106.0","9E4FE65D161741A19F1485051D58DDD0","0199d676-7c57-77c3-845d-6bd30039ad3f","0199d675-8795-765b-adc2-c813de8cd3d1","","null","<div style=""display: flex; justify-content: center; align-items: center;"">
                     <img src=""images/other/blank.png"" style=""width: 300px; height: 300px;"" />
                   </div>","null","0","0","blank","",""
"","","","","","html-keyboard-response","141","745725","0.0-107.0","9E4FE65D161741A19F1485051D58DDD0","0199d676-7c57-77c3-845d-6bd30039ad3f","0199d675-8795-765b-adc2-c813de8cd3d1","","null","<div style=""display: flex; justify-content: center; align-items: center;"">
                     <img src=""images/causal/causal_series_10/causal_series_10_a.png"" style=""width: 300px; height: 300px;"" />
                   </div>","null","10","1","A","",""
"","","","","","html-button-response","142","751945","0.0-108.0","9E4FE65D161741A19F1485051D58DDD0","0199d676-7c57-77c3-845d-6bd30039ad3f","0199d675-8795-765b-adc2-c813de8cd3d1","","6218","
        <div style=""display: flex; justify-content: center; align-items: center;"">
          <img src=""images/red_deck_2.png"" style=""width: 300px; height: 300px; margin-right: 10px;"" />
          <img src=""images/blue_deck_1.png"" style=""width: 300px; height: 300px;"" />
        </div>","1","10","1","choice","1",""
"","","","","","html-keyboard-response","143","757950","0.0-109.0-1.0-0.0","9E4FE65D161741A19F1485051D58DDD0","0199d676-7c57-77c3-845d-6bd30039ad3f","0199d675-8795-765b-adc2-c813de8cd3d1","","null","<div style=""display: flex; justify-content: center; align-items: center;"">
                     <img src=""images/semantic/semantic_series_10/semantic_series_10_b.png"" style=""width: 300px; height: 300px;"" />
                   </div>","null","10","1","B","",""
"","","","","","html-keyboard-response","144","763955","0.0-109.0-1.0-1.0","9E4FE65D161741A19F1485051D58DDD0","0199d676-7c57-77c3-845d-6bd30039ad3f","0199d675-8795-765b-adc2-c813de8cd3d1","","null","<div style=""display: flex; justify-content: center; align-items: center;"">
                     <img src=""images/semantic/semantic_series_10/semantic_series_10_c.png"" style=""width: 300px; height: 300px;"" />
                   </div>","null","10","1","C","",""
"","","","","","html-keyboard-response","145","769965","0.0-109.0-1.0-2.0","9E4FE65D161741A19F1485051D58DDD0","0199d676-7c57-77c3-845d-6bd30039ad3f","0199d675-8795-765b-adc2-c813de8cd3d1","","null","<div style=""display: flex; justify-content: center; align-items: center;"">
                     <img src=""images/semantic/semantic_series_10/semantic_series_10_d.png"" style=""width: 300px; height: 300px;"" />
                   </div>","null","10","1","D","",""
"","","","","","survey-likert","146","772314","0.0-110.0","9E4FE65D161741A19F1485051D58DDD0","0199d676-7c57-77c3-845d-6bd30039ad3f","0199d675-8795-765b-adc2-c813de8cd3d1","","2347","","{""Q0"":2}","10","1","surprise_rating","","[0]"
"","","","","","survey-likert","147","774654","0.0-111.0","9E4FE65D161741A19F1485051D58DDD0","0199d676-7c57-77c3-845d-6bd30039ad3f","0199d675-8795-765b-adc2-c813de8cd3d1","","2338","","{""Q0"":3}","10","1","enjoyment_rating","","[0]"
"","","","","","html-keyboard-response","148","780666","0.0-112.0","9E4FE65D161741A19F1485051D58DDD0","0199d676-7c57-77c3-845d-6bd30039ad3f","0199d675-8795-765b-adc2-c813de8cd3d1","","null","<div style=""display: flex; justify-content: center; align-items: center;"">
                     <img src=""images/other/blank.png"" style=""width: 300px; height: 300px;"" />
                   </div>","null","0","0","blank","",""
"","","","","","html-keyboard-response","149","786672","0.0-113.0","9E4FE65D161741A19F1485051D58DDD0","0199d676-7c57-77c3-845d-6bd30039ad3f","0199d675-8795-765b-adc2-c813de8cd3d1","","null","<div style=""display: flex; justify-content: center; align-items: center;"">
                     <img src=""images/causal/causal_series_2/causal_series_2_a.png"" style=""width: 300px; height: 300px;"" />
                   </div>","null","2","1","A","",""
"","","","","","html-button-response","150","789978","0.0-114.0","9E4FE65D161741A19F1485051D58DDD0","0199d676-7c57-77c3-845d-6bd30039ad3f","0199d675-8795-765b-adc2-c813de8cd3d1","","3304","
        <div style=""display: flex; justify-content: center; align-items: center;"">
          <img src=""images/red_deck_2.png"" style=""width: 300px; height: 300px; margin-right: 10px;"" />
          <img src=""images/blue_deck_1.png"" style=""width: 300px; height: 300px;"" />
        </div>","0","2","1","choice","0",""
"","","","","","html-keyboard-response","151","795981","0.0-115.0-0.0-0.0","9E4FE65D161741A19F1485051D58DDD0","0199d676-7c57-77c3-845d-6bd30039ad3f","0199d675-8795-765b-adc2-c813de8cd3d1","","null","<div style=""display: flex; justify-content: center; align-items: center;"">
                     <img src=""images/causal/causal_series_2/causal_series_2_b.png"" style=""width: 300px; height: 300px;"" />
                   </div>","null","2","1","B","",""
"","","","","","html-keyboard-response","152","801983","0.0-115.0-0.0-1.0","9E4FE65D161741A19F1485051D58DDD0","0199d676-7c57-77c3-845d-6bd30039ad3f","0199d675-8795-765b-adc2-c813de8cd3d1","","null","<div style=""display: flex; justify-content: center; align-items: center;"">
                     <img src=""images/causal/causal_series_2/causal_series_2_c.png"" style=""width: 300px; height: 300px;"" />
                   </div>","null","2","1","C","",""
"","","","","","html-keyboard-response","153","807989","0.0-115.0-0.0-2.0","9E4FE65D161741A19F1485051D58DDD0","0199d676-7c57-77c3-845d-6bd30039ad3f","0199d675-8795-765b-adc2-c813de8cd3d1","","null","<div style=""display: flex; justify-content: center; align-items: center;"">
                     <img src=""images/causal/causal_series_2/causal_series_2_d.png"" style=""width: 300px; height: 300px;"" />
                   </div>","null","2","1","D","",""
"","","","","","survey-likert","154","810436","0.0-116.0","9E4FE65D161741A19F1485051D58DDD0","0199d676-7c57-77c3-845d-6bd30039ad3f","0199d675-8795-765b-adc2-c813de8cd3d1","","2446","","{""Q0"":4}","2","1","surprise_rating","","[0]"
"","","","","","survey-likert","155","812645","0.0-117.0","9E4FE65D161741A19F1485051D58DDD0","0199d676-7c57-77c3-845d-6bd30039ad3f","0199d675-8795-765b-adc2-c813de8cd3d1","","2207","","{""Q0"":3}","2","1","enjoyment_rating","","[0]"
"","","","","","html-keyboard-response","156","818647","0.0-118.0","9E4FE65D161741A19F1485051D58DDD0","0199d676-7c57-77c3-845d-6bd30039ad3f","0199d675-8795-765b-adc2-c813de8cd3d1","","null","<div style=""display: flex; justify-content: center; align-items: center;"">
                     <img src=""images/other/blank.png"" style=""width: 300px; height: 300px;"" />
                   </div>","null","0","0","blank","",""
"","","","","","html-keyboard-response","157","824658","0.0-119.0","9E4FE65D161741A19F1485051D58DDD0","0199d676-7c57-77c3-845d-6bd30039ad3f","0199d675-8795-765b-adc2-c813de8cd3d1","","null","<div style=""display: flex; justify-content: center; align-items: center;"">
                     <img src=""images/causal/causal_series_2/causal_series_2_a.png"" style=""width: 300px; height: 300px;"" />
                   </div>","null","2","2","A","",""
"","","","","","html-button-response","158","826069","0.0-120.0","9E4FE65D161741A19F1485051D58DDD0","0199d676-7c57-77c3-845d-6bd30039ad3f","0199d675-8795-765b-adc2-c813de8cd3d1","","1409","
        <div style=""display: flex; justify-content: center; align-items: center;"">
          <img src=""images/red_deck_2.png"" style=""width: 300px; height: 300px; margin-right: 10px;"" />
          <img src=""images/blue_deck_1.png"" style=""width: 300px; height: 300px;"" />
        </div>","0","2","2","choice","0",""
"","","","","","html-keyboard-response","159","832080","0.0-121.0-0.0-0.0","9E4FE65D161741A19F1485051D58DDD0","0199d676-7c57-77c3-845d-6bd30039ad3f","0199d675-8795-765b-adc2-c813de8cd3d1","","null","<div style=""display: flex; justify-content: center; align-items: center;"">
                     <img src=""images/causal/causal_series_2/causal_series_2_b.png"" style=""width: 300px; height: 300px;"" />
                   </div>","null","2","2","B","",""
"","","","","","html-keyboard-response","160","838082","0.0-121.0-0.0-1.0","9E4FE65D161741A19F1485051D58DDD0","0199d676-7c57-77c3-845d-6bd30039ad3f","0199d675-8795-765b-adc2-c813de8cd3d1","","null","<div style=""display: flex; justify-content: center; align-items: center;"">
                     <img src=""images/causal/causal_series_2/causal_series_2_c.png"" style=""width: 300px; height: 300px;"" />
                   </div>","null","2","2","C","",""
"","","","","","html-keyboard-response","161","844097","0.0-121.0-0.0-2.0","9E4FE65D161741A19F1485051D58DDD0","0199d676-7c57-77c3-845d-6bd30039ad3f","0199d675-8795-765b-adc2-c813de8cd3d1","","null","<div style=""display: flex; justify-content: center; align-items: center;"">
                     <img src=""images/causal/causal_series_2/causal_series_2_d.png"" style=""width: 300px; height: 300px;"" />
                   </div>","null","2","2","D","",""
"","","","","","survey-likert","162","846400","0.0-122.0","9E4FE65D161741A19F1485051D58DDD0","0199d676-7c57-77c3-845d-6bd30039ad3f","0199d675-8795-765b-adc2-c813de8cd3d1","","2301","","{""Q0"":4}","2","2","surprise_rating","","[0]"
"","","","","","survey-likert","163","848934","0.0-123.0","9E4FE65D161741A19F1485051D58DDD0","0199d676-7c57-77c3-845d-6bd30039ad3f","0199d675-8795-765b-adc2-c813de8cd3d1","","2532","","{""Q0"":2}","2","2","enjoyment_rating","","[0]"
"","","","","","html-keyboard-response","164","854937","0.0-124.0","9E4FE65D161741A19F1485051D58DDD0","0199d676-7c57-77c3-845d-6bd30039ad3f","0199d675-8795-765b-adc2-c813de8cd3d1","","null","<div style=""display: flex; justify-content: center; align-items: center;"">
                     <img src=""images/other/blank.png"" style=""width: 300px; height: 300px;"" />
                   </div>","null","0","0","blank","",""
"","","","","","survey-text","165","888933","0.0-125.0","9E4FE65D161741A19F1485051D58DDD0","0199d676-7c57-77c3-845d-6bd30039ad3f","0199d675-8795-765b-adc2-c813de8cd3d1","","33990","","{""Q0"":""The blue deck formed a coherent story, the red deck formed an unrelated story""}","","","","",""
"","","","","","html-button-response","166","899209","0.0-126.0","9E4FE65D161741A19F1485051D58DDD0","0199d676-7c57-77c3-845d-6bd30039ad3f","0199d675-8795-765b-adc2-c813de8cd3d1","","10274","Which color deck do the following sentences continue the story from?","0","","","","",""
"","","","","","html-button-response","167","901590","0.0-127.0","9E4FE65D161741A19F1485051D58DDD0","0199d676-7c57-77c3-845d-6bd30039ad3f","0199d675-8795-765b-adc2-c813de8cd3d1","","2379","Which color deck do the following sentences NOT follow the story from?","1","","","","",""
"","","","","","html-button-response","168","905070","0.0-128.0","9E4FE65D161741A19F1485051D58DDD0","0199d676-7c57-77c3-845d-6bd30039ad3f","0199d675-8795-765b-adc2-c813de8cd3d1","","3478","Which type of deck did you prefer overall?","1","","","","",""
"","","","","","survey-text","169","912706","0.0-129.0","9E4FE65D161741A19F1485051D58DDD0","0199d676-7c57-77c3-845d-6bd30039ad3f","0199d675-8795-765b-adc2-c813de8cd3d1","","7625","","{""Q0"":""FEMALE"",""Q1"":""33""}","","","","",""
"","","","","","instructions","170","917400","0.0-130.0","9E4FE65D161741A19F1485051D58DDD0","0199d676-7c57-77c3-845d-6bd30039ad3f","0199d675-8795-765b-adc2-c813de8cd3d1","[{""page_index"":0,""viewing_time"":4691}]","4692","","","","","","",""
