"success","timeout","failed_images","failed_audio","failed_video","trial_type","trial_index","time_elapsed","internal_node_id","subject_id","study_id","session_id","view_history","rt","stimulus","response","series","repetition","phase","choice","question_order"
"true","false","[]","[]","[]","preload","0","2865","0.0-0.0","416EBD8D331F46B39221A4C38A815F35","0199d676-5f8c-7b4c-90ed-540add822f91","0199d675-8795-765b-adc2-c813de8cd3d1","","","","","","","","",""
"","","","","","instructions","1","81493","0.0-1.0","416EBD8D331F46B39221A4C38A815F35","0199d676-5f8c-7b4c-90ed-540add822f91","0199d675-8795-765b-adc2-c813de8cd3d1","[{""page_index"":0,""viewing_time"":78624}]","78624","","","","","","",""
"","","","","","instructions","2","89317","0.0-2.0","416EBD8D331F46B39221A4C38A815F35","0199d676-5f8c-7b4c-90ed-540add822f91","0199d675-8795-765b-adc2-c813de8cd3d1","[{""page_index"":0,""viewing_time"":7824}]","7824","","","","","","",""
"true","","","","","fullscreen","3","129146","0.0-3.0","416EBD8D331F46B39221A4C38A815F35","0199d676-5f8c-7b4c-90ed-540add822f91","0199d675-8795-765b-adc2-c813de8cd3d1","","38808","","","","","","",""
"","","","","","instructions","4","168484","0.0-4.0","416EBD8D331F46B39221A4C38A815F35","0199d676-5f8c-7b4c-90ed-540add822f91","0199d675-8795-765b-adc2-c813de8cd3d1","[{""page_index"":0,""viewing_time"":39338}]","39338","","","","","","",""
"","","","","","html-keyboard-response","5","174496","0.0-5.0","416EBD8D331F46B39221A4C38A815F35","0199d676-5f8c-7b4c-90ed-540add822f91","0199d675-8795-765b-adc2-c813de8cd3d1","","null","<div style=""display: flex; justify-content: center; align-items: center;"">
                     <img src=""images/causal/causal_series_3/causal_series_3_a.png"" style=""width: 300px; height: 300px;"" />
                   </div>","null","3","2","A","",""
"","","","","","html-button-response","6","178312","0.0-6.0","416EBD8D331F46B39221A4C38A815F35","0199d676-5f8c-7b4c-90ed-540add822f91","0199d675-8795-765b-adc2-c813de8cd3d1","","3815","
        <div style=""display: flex; justify-content: center; align-items: center;"">
          <img src=""images/red_deck_2.png"" style=""width: 300px; height: 300px; margin-right: 10px;"" />
          <img src=""images/blue_deck_1.png"" style=""width: 300px; height: 300px;"" />
        </div>","0","3","2","choice","0",""
"","","","","","html-keyboard-response","7","184320","0.0-7.0-0.0-0.0","416EBD8D331F46B39221A4C38A815F35","0199d676-5f8c-7b4c-90ed-540add822f91","0199d675-8795-765b-adc2-c813de8cd3d1","","null","<div style=""display: flex; justify-content: center; align-items: center;"">
                     <img src=""images/causal/causal_series_3/causal_series_3_b.png"" style=""width: 300px; height: 300px;"" />
                   </div>","null","3","2","B","",""
"","","","","","html-keyboard-response","8","190333","0.0-7.0-0.0-1.0","416EBD8D331F46B39221A4C38A815F35","0199d676-5f8c-7b4c-90ed-540add822f91","0199d675-8795-765b-adc2-c813de8cd3d1","","null","<div style=""display: flex; justify-content: center; align-items: center;"">
                     <img src=""images/causal/causal_series_3/causal_series_3_c.png"" style=""width: 300px; height: 300px;"" />
                   </div>","null","3","2","C","",""
"","","","","","html-keyboard-response","9","196342","0.0-7.0-0.0-2.0","416EBD8D331F46B39221A4C38A815F35","0199d676-5f8c-7b4c-90ed-540add822f91","0199d675-8795-765b-adc2-c813de8cd3d1","","null","<div style=""display: flex; justify-content: center; align-items: center;"">
                     <img src=""images/causal/causal_series_3/causal_series_3_d.png"" style=""width: 300px; height: 300px;"" />
                   </div>","null","3","2","D","",""
"","","","","","survey-likert","10","200082","0.0-8.0","416EBD8D331F46B39221A4C38A815F35","0199d676-5f8c-7b4c-90ed-540add822f91","0199d675-8795-765b-adc2-c813de8cd3d1","","3738","","{""Q0"":0}","3","2","surprise_rating","","[0]"
"","","","","","survey-likert","11","203603","0.0-9.0","416EBD8D331F46B39221A4C38A815F35","0199d676-5f8c-7b4c-90ed-540add822f91","0199d675-8795-765b-adc2-c813de8cd3d1","","3520","","{""Q0"":2}","3","2","enjoyment_rating","","[0]"
"","","","","","html-keyboard-response","12","209604","0.0-10.0","416EBD8D331F46B39221A4C38A815F35","0199d676-5f8c-7b4c-90ed-540add822f91","0199d675-8795-765b-adc2-c813de8cd3d1","","null","<div style=""display: flex; justify-content: center; align-items: center;"">
                     <img src=""images/other/blank.png"" style=""width: 300px; height: 300px;"" />
                   </div>","null","0","0","blank","",""
"","","","","","html-keyboard-response","13","215615","0.0-11.0","416EBD8D331F46B39221A4C38A815F35","0199d676-5f8c-7b4c-90ed-540add822f91","0199d675-8795-765b-adc2-c813de8cd3d1","","null","<div style=""display: flex; justify-content: center; align-items: center;"">
                     <img src=""images/causal/causal_series_9/causal_series_9_a.png"" style=""width: 300px; height: 300px;"" />
                   </div>","null","9","2","A","",""
"","","","","","html-button-response","14","217332","0.0-12.0","416EBD8D331F46B39221A4C38A815F35","0199d676-5f8c-7b4c-90ed-540add822f91","0199d675-8795-765b-adc2-c813de8cd3d1","","1716","
        <div style=""display: flex; justify-content: center; align-items: center;"">
          <img src=""images/red_deck_2.png"" style=""width: 300px; height: 300px; margin-right: 10px;"" />
          <img src=""images/blue_deck_1.png"" style=""width: 300px; height: 300px;"" />
        </div>","1","9","2","choice","1",""
"","","","","","html-keyboard-response","15","223340","0.0-13.0-1.0-0.0","416EBD8D331F46B39221A4C38A815F35","0199d676-5f8c-7b4c-90ed-540add822f91","0199d675-8795-765b-adc2-c813de8cd3d1","","null","<div style=""display: flex; justify-content: center; align-items: center;"">
                     <img src=""images/semantic/semantic_series_9/semantic_series_9_b.png"" style=""width: 300px; height: 300px;"" />
                   </div>","null","9","2","B","",""
"","","","","","html-keyboard-response","16","229356","0.0-13.0-1.0-1.0","416EBD8D331F46B39221A4C38A815F35","0199d676-5f8c-7b4c-90ed-540add822f91","0199d675-8795-765b-adc2-c813de8cd3d1","","null","<div style=""display: flex; justify-content: center; align-items: center;"">
                     <img src=""images/semantic/semantic_series_9/semantic_series_9_c.png"" style=""width: 300px; height: 300px;"" />
                   </div>","null","9","2","C","",""
"","","","","","html-keyboard-response","17","235367","0.0-13.0-1.0-2.0","416EBD8D331F46B39221A4C38A815F35","0199d676-5f8c-7b4c-90ed-540add822f91","0199d675-8795-765b-adc2-c813de8cd3d1","","null","<div style=""display: flex; justify-content: center; align-items: center;"">
                     <img src=""images/semantic/semantic_series_9/semantic_series_9_d.png"" style=""width: 300px; height: 300px;"" />
                   </div>","null","9","2","D","",""
"","","","","","survey-likert","18","269466","0.0-14.0","416EBD8D331F46B39221A4C38A815F35","0199d676-5f8c-7b4c-90ed-540add822f91","0199d675-8795-765b-adc2-c813de8cd3d1","","34095","","{""Q0"":1}","9","2","surprise_rating","","[0]"
"","","","","","survey-likert","19","273962","0.0-15.0","416EBD8D331F46B39221A4C38A815F35","0199d676-5f8c-7b4c-90ed-540add822f91","0199d675-8795-765b-adc2-c813de8cd3d1","","4495","","{""Q0"":2}","9","2","enjoyment_rating","","[0]"
"","","","","","html-keyboard-response","20","279964","0.0-16.0","416EBD8D331F46B39221A4C38A815F35","0199d676-5f8c-7b4c-90ed-540add822f91","0199d675-8795-765b-adc2-c813de8cd3d1","","null","<div style=""display: flex; justify-content: center; align-items: center;"">
                     <img src=""images/other/blank.png"" style=""width: 300px; height: 300px;"" />
                   </div>","null","0","0","blank","",""
"","","","","","html-keyboard-response","21","285970","0.0-17.0","416EBD8D331F46B39221A4C38A815F35","0199d676-5f8c-7b4c-90ed-540add822f91","0199d675-8795-765b-adc2-c813de8cd3d1","","null","<div style=""display: flex; justify-content: center; align-items: center;"">
                     <img src=""images/causal/causal_series_9/causal_series_9_a.png"" style=""width: 300px; height: 300px;"" />
                   </div>","null","9","1","A","",""
"","","","","","html-button-response","22","356546","0.0-18.0","416EBD8D331F46B39221A4C38A815F35","0199d676-5f8c-7b4c-90ed-540add822f91","0199d675-8795-765b-adc2-c813de8cd3d1","","70572","
        <div style=""display: flex; justify-content: center; align-items: center;"">
          <img src=""images/red_deck_2.png"" style=""width: 300px; height: 300px; margin-right: 10px;"" />
          <img src=""images/blue_deck_1.png"" style=""width: 300px; height: 300px;"" />
        </div>","0","9","1","choice","0",""
"","","","","","html-keyboard-response","23","362551","0.0-19.0-0.0-0.0","416EBD8D331F46B39221A4C38A815F35","0199d676-5f8c-7b4c-90ed-540add822f91","0199d675-8795-765b-adc2-c813de8cd3d1","","null","<div style=""display: flex; justify-content: center; align-items: center;"">
                     <img src=""images/causal/causal_series_9/causal_series_9_b.png"" style=""width: 300px; height: 300px;"" />
                   </div>","null","9","1","B","",""
"","","","","","html-keyboard-response","24","368566","0.0-19.0-0.0-1.0","416EBD8D331F46B39221A4C38A815F35","0199d676-5f8c-7b4c-90ed-540add822f91","0199d675-8795-765b-adc2-c813de8cd3d1","","null","<div style=""display: flex; justify-content: center; align-items: center;"">
                     <img src=""images/causal/causal_series_9/causal_series_9_c.png"" style=""width: 300px; height: 300px;"" />
                   </div>","null","9","1","C","",""
"","","","","","html-keyboard-response","25","374577","0.0-19.0-0.0-2.0","416EBD8D331F46B39221A4C38A815F35","0199d676-5f8c-7b4c-90ed-540add822f91","0199d675-8795-765b-adc2-c813de8cd3d1","","null","<div style=""display: flex; justify-content: center; align-items: center;"">
                     <img src=""images/causal/causal_series_9/causal_series_9_d.png"" style=""width: 300px; height: 300px;"" />
                   </div>","null","9","1","D","",""
"","","","","","survey-likert","26","378574","0.0-20.0","416EBD8D331F46B39221A4C38A815F35","0199d676-5f8c-7b4c-90ed-540add822f91","0199d675-8795-765b-adc2-c813de8cd3d1","","3996","","{""Q0"":1}","9","1","surprise_rating","","[0]"
"","","","","","survey-likert","27","380869","0.0-21.0","416EBD8D331F46B39221A4C38A815F35","0199d676-5f8c-7b4c-90ed-540add822f91","0199d675-8795-765b-adc2-c813de8cd3d1","","2294","","{""Q0"":2}","9","1","enjoyment_rating","","[0]"
"","","","","","html-keyboard-response","28","386876","0.0-22.0","416EBD8D331F46B39221A4C38A815F35","0199d676-5f8c-7b4c-90ed-540add822f91","0199d675-8795-765b-adc2-c813de8cd3d1","","null","<div style=""display: flex; justify-content: center; align-items: center;"">
                     <img src=""images/other/blank.png"" style=""width: 300px; height: 300px;"" />
                   </div>","null","0","0","blank","",""
"","","","","","html-keyboard-response","29","392888","0.0-23.0","416EBD8D331F46B39221A4C38A815F35","0199d676-5f8c-7b4c-90ed-540add822f91","0199d675-8795-765b-adc2-c813de8cd3d1","","null","<div style=""display: flex; justify-content: center; align-items: center;"">
                     <img src=""images/causal/causal_series_8/causal_series_8_a.png"" style=""width: 300px; height: 300px;"" />
                   </div>","null","8","2","A","",""
"","","","","","html-button-response","30","395187","0.0-24.0","416EBD8D331F46B39221A4C38A815F35","0199d676-5f8c-7b4c-90ed-540add822f91","0199d675-8795-765b-adc2-c813de8cd3d1","","2298","
        <div style=""display: flex; justify-content: center; align-items: center;"">
          <img src=""images/red_deck_2.png"" style=""width: 300px; height: 300px; margin-right: 10px;"" />
          <img src=""images/blue_deck_1.png"" style=""width: 300px; height: 300px;"" />
        </div>","1","8","2","choice","1",""
"","","","","","html-keyboard-response","31","401197","0.0-25.0-1.0-0.0","416EBD8D331F46B39221A4C38A815F35","0199d676-5f8c-7b4c-90ed-540add822f91","0199d675-8795-765b-adc2-c813de8cd3d1","","null","<div style=""display: flex; justify-content: center; align-items: center;"">
                     <img src=""images/semantic/semantic_series_8/semantic_series_8_b.png"" style=""width: 300px; height: 300px;"" />
                   </div>","null","8","2","B","",""
"","","","","","html-keyboard-response","32","407201","0.0-25.0-1.0-1.0","416EBD8D331F46B39221A4C38A815F35","0199d676-5f8c-7b4c-90ed-540add822f91","0199d675-8795-765b-adc2-c813de8cd3d1","","null","<div style=""display: flex; justify-content: center; align-items: center;"">
                     <img src=""images/semantic/semantic_series_8/semantic_series_8_c.png"" style=""width: 300px; height: 300px;"" />
                   </div>","null","8","2","C","",""
"","","","","","html-keyboard-response","33","413217","0.0-25.0-1.0-2.0","416EBD8D331F46B39221A4C38A815F35","0199d676-5f8c-7b4c-90ed-540add822f91","0199d675-8795-765b-adc2-c813de8cd3d1","","null","<div style=""display: flex; justify-content: center; align-items: center;"">
                     <img src=""images/semantic/semantic_series_8/semantic_series_8_d.png"" style=""width: 300px; height: 300px;"" />
                   </div>","null","8","2","D","",""
"","","","","","survey-likert","34","415866","0.0-26.0","416EBD8D331F46B39221A4C38A815F35","0199d676-5f8c-7b4c-90ed-540add822f91","0199d675-8795-765b-adc2-c813de8cd3d1","","2649","","{""Q0"":2}","8","2","surprise_rating","","[0]"
"","","","","","survey-likert","35","453611","0.0-27.0","416EBD8D331F46B39221A4C38A815F35","0199d676-5f8c-7b4c-90ed-540add822f91","0199d675-8795-765b-adc2-c813de8cd3d1","","37741","","{""Q0"":2}","8","2","enjoyment_rating","","[0]"
"","","","","","html-keyboard-response","36","459626","0.0-28.0","416EBD8D331F46B39221A4C38A815F35","0199d676-5f8c-7b4c-90ed-540add822f91","0199d675-8795-765b-adc2-c813de8cd3d1","","null","<div style=""display: flex; justify-content: center; align-items: center;"">
                     <img src=""images/other/blank.png"" style=""width: 300px; height: 300px;"" />
                   </div>","null","0","0","blank","",""
"","","","","","html-keyboard-response","37","465627","0.0-29.0","416EBD8D331F46B39221A4C38A815F35","0199d676-5f8c-7b4c-90ed-540add822f91","0199d675-8795-765b-adc2-c813de8cd3d1","","null","<div style=""display: flex; justify-content: center; align-items: center;"">
                     <img src=""images/causal/causal_series_4/causal_series_4_a.png"" style=""width: 300px; height: 300px;"" />
                   </div>","null","4","2","A","",""
"","","","","","html-button-response","38","467047","0.0-30.0","416EBD8D331F46B39221A4C38A815F35","0199d676-5f8c-7b4c-90ed-540add822f91","0199d675-8795-765b-adc2-c813de8cd3d1","","1419","
        <div style=""display: flex; justify-content: center; align-items: center;"">
          <img src=""images/red_deck_2.png"" style=""width: 300px; height: 300px; margin-right: 10px;"" />
          <img src=""images/blue_deck_1.png"" style=""width: 300px; height: 300px;"" />
        </div>","1","4","2","choice","1",""
"","","","","","html-keyboard-response","39","473053","0.0-31.0-1.0-0.0","416EBD8D331F46B39221A4C38A815F35","0199d676-5f8c-7b4c-90ed-540add822f91","0199d675-8795-765b-adc2-c813de8cd3d1","","null","<div style=""display: flex; justify-content: center; align-items: center;"">
                     <img src=""images/semantic/semantic_series_4/semantic_series_4_b.png"" style=""width: 300px; height: 300px;"" />
                   </div>","null","4","2","B","",""
"","","","","","html-keyboard-response","40","479059","0.0-31.0-1.0-1.0","416EBD8D331F46B39221A4C38A815F35","0199d676-5f8c-7b4c-90ed-540add822f91","0199d675-8795-765b-adc2-c813de8cd3d1","","null","<div style=""display: flex; justify-content: center; align-items: center;"">
                     <img src=""images/semantic/semantic_series_4/semantic_series_4_c.png"" style=""width: 300px; height: 300px;"" />
                   </div>","null","4","2","C","",""
"","","","","","html-keyboard-response","41","485072","0.0-31.0-1.0-2.0","416EBD8D331F46B39221A4C38A815F35","0199d676-5f8c-7b4c-90ed-540add822f91","0199d675-8795-765b-adc2-c813de8cd3d1","","null","<div style=""display: flex; justify-content: center; align-items: center;"">
                     <img src=""images/semantic/semantic_series_4/semantic_series_4_d.png"" style=""width: 300px; height: 300px;"" />
                   </div>","null","4","2","D","",""
"","","","","","survey-likert","42","488768","0.0-32.0","416EBD8D331F46B39221A4C38A815F35","0199d676-5f8c-7b4c-90ed-540add822f91","0199d675-8795-765b-adc2-c813de8cd3d1","","3696","","{""Q0"":3}","4","2","surprise_rating","","[0]"
"","","","","","survey-likert","43","490325","0.0-33.0","416EBD8D331F46B39221A4C38A815F35","0199d676-5f8c-7b4c-90ed-540add822f91","0199d675-8795-765b-adc2-c813de8cd3d1","","1556","","{""Q0"":3}","4","2","enjoyment_rating","","[0]"
"","","","","","html-keyboard-response","44","496342","0.0-34.0","416EBD8D331F46B39221A4C38A815F35","0199d676-5f8c-7b4c-90ed-540add822f91","0199d675-8795-765b-adc2-c813de8cd3d1","","null","<div style=""display: flex; justify-content: center; align-items: center;"">
                     <img src=""images/other/blank.png"" style=""width: 300px; height: 300px;"" />
                   </div>","null","0","0","blank","",""
"","","","","","html-keyboard-response","45","502357","0.0-35.0","416EBD8D331F46B39221A4C38A815F35","0199d676-5f8c-7b4c-90ed-540add822f91","0199d675-8795-765b-adc2-c813de8cd3d1","","null","<div style=""display: flex; justify-content: center; align-items: center;"">
                     <img src=""images/causal/causal_series_6/causal_series_6_a.png"" style=""width: 300px; height: 300px;"" />
                   </div>","null","6","2","A","",""
"","","","","","html-button-response","46","503488","0.0-36.0","416EBD8D331F46B39221A4C38A815F35","0199d676-5f8c-7b4c-90ed-540add822f91","0199d675-8795-765b-adc2-c813de8cd3d1","","1131","
        <div style=""display: flex; justify-content: center; align-items: center;"">
          <img src=""images/red_deck_2.png"" style=""width: 300px; height: 300px; margin-right: 10px;"" />
          <img src=""images/blue_deck_1.png"" style=""width: 300px; height: 300px;"" />
        </div>","0","6","2","choice","0",""
"","","","","","html-keyboard-response","47","509495","0.0-37.0-0.0-0.0","416EBD8D331F46B39221A4C38A815F35","0199d676-5f8c-7b4c-90ed-540add822f91","0199d675-8795-765b-adc2-c813de8cd3d1","","null","<div style=""display: flex; justify-content: center; align-items: center;"">
                     <img src=""images/causal/causal_series_6/causal_series_6_b.png"" style=""width: 300px; height: 300px;"" />
                   </div>","null","6","2","B","",""
"","","","","","html-keyboard-response","48","515498","0.0-37.0-0.0-1.0","416EBD8D331F46B39221A4C38A815F35","0199d676-5f8c-7b4c-90ed-540add822f91","0199d675-8795-765b-adc2-c813de8cd3d1","","null","<div style=""display: flex; justify-content: center; align-items: center;"">
                     <img src=""images/causal/causal_series_6/causal_series_6_c.png"" style=""width: 300px; height: 300px;"" />
                   </div>","null","6","2","C","",""
"","","","","","html-keyboard-response","49","521500","0.0-37.0-0.0-2.0","416EBD8D331F46B39221A4C38A815F35","0199d676-5f8c-7b4c-90ed-540add822f91","0199d675-8795-765b-adc2-c813de8cd3d1","","null","<div style=""display: flex; justify-content: center; align-items: center;"">
                     <img src=""images/causal/causal_series_6/causal_series_6_d.png"" style=""width: 300px; height: 300px;"" />
                   </div>","null","6","2","D","",""
"","","","","","survey-likert","50","526025","0.0-38.0","416EBD8D331F46B39221A4C38A815F35","0199d676-5f8c-7b4c-90ed-540add822f91","0199d675-8795-765b-adc2-c813de8cd3d1","","4524","","{""Q0"":1}","6","2","surprise_rating","","[0]"
"","","","","","survey-likert","51","528832","0.0-39.0","416EBD8D331F46B39221A4C38A815F35","0199d676-5f8c-7b4c-90ed-540add822f91","0199d675-8795-765b-adc2-c813de8cd3d1","","2807","","{""Q0"":3}","6","2","enjoyment_rating","","[0]"
"","","","","","html-keyboard-response","52","534833","0.0-40.0","416EBD8D331F46B39221A4C38A815F35","0199d676-5f8c-7b4c-90ed-540add822f91","0199d675-8795-765b-adc2-c813de8cd3d1","","null","<div style=""display: flex; justify-content: center; align-items: center;"">
                     <img src=""images/other/blank.png"" style=""width: 300px; height: 300px;"" />
                   </div>","null","0","0","blank","",""
"","","","","","html-keyboard-response","53","540836","0.0-41.0","416EBD8D331F46B39221A4C38A815F35","0199d676-5f8c-7b4c-90ed-540add822f91","0199d675-8795-765b-adc2-c813de8cd3d1","","null","<div style=""display: flex; justify-content: center; align-items: center;"">
                     <img src=""images/causal/causal_series_8/causal_series_8_a.png"" style=""width: 300px; height: 300px;"" />
                   </div>","null","8","1","A","",""
"","","","","","html-button-response","54","551275","0.0-42.0","416EBD8D331F46B39221A4C38A815F35","0199d676-5f8c-7b4c-90ed-540add822f91","0199d675-8795-765b-adc2-c813de8cd3d1","","10436","
        <div style=""display: flex; justify-content: center; align-items: center;"">
          <img src=""images/red_deck_2.png"" style=""width: 300px; height: 300px; margin-right: 10px;"" />
          <img src=""images/blue_deck_1.png"" style=""width: 300px; height: 300px;"" />
        </div>","1","8","1","choice","1",""
"","","","","","html-keyboard-response","55","557283","0.0-43.0-1.0-0.0","416EBD8D331F46B39221A4C38A815F35","0199d676-5f8c-7b4c-90ed-540add822f91","0199d675-8795-765b-adc2-c813de8cd3d1","","null","<div style=""display: flex; justify-content: center; align-items: center;"">
                     <img src=""images/semantic/semantic_series_8/semantic_series_8_b.png"" style=""width: 300px; height: 300px;"" />
                   </div>","null","8","1","B","",""
"","","","","","html-keyboard-response","56","563293","0.0-43.0-1.0-1.0","416EBD8D331F46B39221A4C38A815F35","0199d676-5f8c-7b4c-90ed-540add822f91","0199d675-8795-765b-adc2-c813de8cd3d1","","null","<div style=""display: flex; justify-content: center; align-items: center;"">
                     <img src=""images/semantic/semantic_series_8/semantic_series_8_c.png"" style=""width: 300px; height: 300px;"" />
                   </div>","null","8","1","C","",""
"","","","","","html-keyboard-response","57","569297","0.0-43.0-1.0-2.0","416EBD8D331F46B39221A4C38A815F35","0199d676-5f8c-7b4c-90ed-540add822f91","0199d675-8795-765b-adc2-c813de8cd3d1","","null","<div style=""display: flex; justify-content: center; align-items: center;"">
                     <img src=""images/semantic/semantic_series_8/semantic_series_8_d.png"" style=""width: 300px; height: 300px;"" />
                   </div>","null","8","1","D","",""
"","","","","","survey-likert","58","571688","0.0-44.0","416EBD8D331F46B39221A4C38A815F35","0199d676-5f8c-7b4c-90ed-540add822f91","0199d675-8795-765b-adc2-c813de8cd3d1","","2391","","{""Q0"":3}","8","1","surprise_rating","","[0]"
"","","","","","survey-likert","59","577154","0.0-45.0","416EBD8D331F46B39221A4C38A815F35","0199d676-5f8c-7b4c-90ed-540add822f91","0199d675-8795-765b-adc2-c813de8cd3d1","","5464","","{""Q0"":3}","8","1","enjoyment_rating","","[0]"
"","","","","","html-keyboard-response","60","583160","0.0-46.0","416EBD8D331F46B39221A4C38A815F35","0199d676-5f8c-7b4c-90ed-540add822f91","0199d675-8795-765b-adc2-c813de8cd3d1","","null","<div style=""display: flex; justify-content: center; align-items: center;"">
                     <img src=""images/other/blank.png"" style=""width: 300px; height: 300px;"" />
                   </div>","null","0","0","blank","",""
"","","","","","html-keyboard-response","61","589170","0.0-47.0","416EBD8D331F46B39221A4C38A815F35","0199d676-5f8c-7b4c-90ed-540add822f91","0199d675-8795-765b-adc2-c813de8cd3d1","","null","<div style=""display: flex; justify-content: center; align-items: center;"">
                     <img src=""images/causal/causal_series_5/causal_series_5_a.png"" style=""width: 300px; height: 300px;"" />
                   </div>","null","5","2","A","",""
"","","","","","html-button-response","62","590882","0.0-48.0","416EBD8D331F46B39221A4C38A815F35","0199d676-5f8c-7b4c-90ed-540add822f91","0199d675-8795-765b-adc2-c813de8cd3d1","","1711","
        <div style=""display: flex; justify-content: center; align-items: center;"">
          <img src=""images/red_deck_2.png"" style=""width: 300px; height: 300px; margin-right: 10px;"" />
          <img src=""images/blue_deck_1.png"" style=""width: 300px; height: 300px;"" />
        </div>","0","5","2","choice","0",""
"","","","","","html-keyboard-response","63","596883","0.0-49.0-0.0-0.0","416EBD8D331F46B39221A4C38A815F35","0199d676-5f8c-7b4c-90ed-540add822f91","0199d675-8795-765b-adc2-c813de8cd3d1","","null","<div style=""display: flex; justify-content: center; align-items: center;"">
                     <img src=""images/causal/causal_series_5/causal_series_5_b.png"" style=""width: 300px; height: 300px;"" />
                   </div>","null","5","2","B","",""
"","","","","","html-keyboard-response","64","602891","0.0-49.0-0.0-1.0","416EBD8D331F46B39221A4C38A815F35","0199d676-5f8c-7b4c-90ed-540add822f91","0199d675-8795-765b-adc2-c813de8cd3d1","","null","<div style=""display: flex; justify-content: center; align-items: center;"">
                     <img src=""images/causal/causal_series_5/causal_series_5_c.png"" style=""width: 300px; height: 300px;"" />
                   </div>","null","5","2","C","",""
"","","","","","html-keyboard-response","65","608906","0.0-49.0-0.0-2.0","416EBD8D331F46B39221A4C38A815F35","0199d676-5f8c-7b4c-90ed-540add822f91","0199d675-8795-765b-adc2-c813de8cd3d1","","null","<div style=""display: flex; justify-content: center; align-items: center;"">
                     <img src=""images/causal/causal_series_5/causal_series_5_d.png"" style=""width: 300px; height: 300px;"" />
                   </div>","null","5","2","D","",""
"","","","","","survey-likert","66","616827","0.0-50.0","416EBD8D331F46B39221A4C38A815F35","0199d676-5f8c-7b4c-90ed-540add822f91","0199d675-8795-765b-adc2-c813de8cd3d1","","7920","","{""Q0"":3}","5","2","surprise_rating","","[0]"
"","","","","","survey-likert","67","619340","0.0-51.0","416EBD8D331F46B39221A4C38A815F35","0199d676-5f8c-7b4c-90ed-540add822f91","0199d675-8795-765b-adc2-c813de8cd3d1","","2513","","{""Q0"":3}","5","2","enjoyment_rating","","[0]"
"","","","","","html-keyboard-response","68","625350","0.0-52.0","416EBD8D331F46B39221A4C38A815F35","0199d676-5f8c-7b4c-90ed-540add822f91","0199d675-8795-765b-adc2-c813de8cd3d1","","null","<div style=""display: flex; justify-content: center; align-items: center;"">
                     <img src=""images/other/blank.png"" style=""width: 300px; height: 300px;"" />
                   </div>","null","0","0","blank","",""
"","","","","","html-keyboard-response","69","631367","0.0-53.0","416EBD8D331F46B39221A4C38A815F35","0199d676-5f8c-7b4c-90ed-540add822f91","0199d675-8795-765b-adc2-c813de8cd3d1","","null","<div style=""display: flex; justify-content: center; align-items: center;"">
                     <img src=""images/causal/causal_series_6/causal_series_6_a.png"" style=""width: 300px; height: 300px;"" />
                   </div>","null","6","1","A","",""
"","","","","","html-button-response","70","632503","0.0-54.0","416EBD8D331F46B39221A4C38A815F35","0199d676-5f8c-7b4c-90ed-540add822f91","0199d675-8795-765b-adc2-c813de8cd3d1","","1136","
        <div style=""display: flex; justify-content: center; align-items: center;"">
          <img src=""images/red_deck_2.png"" style=""width: 300px; height: 300px; margin-right: 10px;"" />
          <img src=""images/blue_deck_1.png"" style=""width: 300px; height: 300px;"" />
        </div>","1","6","1","choice","1",""
"","","","","","html-keyboard-response","71","638505","0.0-55.0-1.0-0.0","416EBD8D331F46B39221A4C38A815F35","0199d676-5f8c-7b4c-90ed-540add822f91","0199d675-8795-765b-adc2-c813de8cd3d1","","null","<div style=""display: flex; justify-content: center; align-items: center;"">
                     <img src=""images/semantic/semantic_series_6/semantic_series_6_b.png"" style=""width: 300px; height: 300px;"" />
                   </div>","null","6","1","B","",""
"","","","","","html-keyboard-response","72","644516","0.0-55.0-1.0-1.0","416EBD8D331F46B39221A4C38A815F35","0199d676-5f8c-7b4c-90ed-540add822f91","0199d675-8795-765b-adc2-c813de8cd3d1","","null","<div style=""display: flex; justify-content: center; align-items: center;"">
                     <img src=""images/semantic/semantic_series_6/semantic_series_6_c.png"" style=""width: 300px; height: 300px;"" />
                   </div>","null","6","1","C","",""
"","","","","","html-keyboard-response","73","650517","0.0-55.0-1.0-2.0","416EBD8D331F46B39221A4C38A815F35","0199d676-5f8c-7b4c-90ed-540add822f91","0199d675-8795-765b-adc2-c813de8cd3d1","","null","<div style=""display: flex; justify-content: center; align-items: center;"">
                     <img src=""images/semantic/semantic_series_6/semantic_series_6_d.png"" style=""width: 300px; height: 300px;"" />
                   </div>","null","6","1","D","",""
"","","","","","survey-likert","74","653247","0.0-56.0","416EBD8D331F46B39221A4C38A815F35","0199d676-5f8c-7b4c-90ed-540add822f91","0199d675-8795-765b-adc2-c813de8cd3d1","","2729","","{""Q0"":1}","6","1","surprise_rating","","[0]"
"","","","","","survey-likert","75","655117","0.0-57.0","416EBD8D331F46B39221A4C38A815F35","0199d676-5f8c-7b4c-90ed-540add822f91","0199d675-8795-765b-adc2-c813de8cd3d1","","1869","","{""Q0"":2}","6","1","enjoyment_rating","","[0]"
"","","","","","html-keyboard-response","76","661121","0.0-58.0","416EBD8D331F46B39221A4C38A815F35","0199d676-5f8c-7b4c-90ed-540add822f91","0199d675-8795-765b-adc2-c813de8cd3d1","","null","<div style=""display: flex; justify-content: center; align-items: center;"">
                     <img src=""images/other/blank.png"" style=""width: 300px; height: 300px;"" />
                   </div>","null","0","0","blank","",""
"","","","","","html-keyboard-response","77","667130","0.0-59.0","416EBD8D331F46B39221A4C38A815F35","0199d676-5f8c-7b4c-90ed-540add822f91","0199d675-8795-765b-adc2-c813de8cd3d1","","null","<div style=""display: flex; justify-content: center; align-items: center;"">
                     <img src=""images/causal/causal_series_4/causal_series_4_a.png"" style=""width: 300px; height: 300px;"" />
                   </div>","null","4","1","A","",""
"","","","","","html-button-response","78","670473","0.0-60.0","416EBD8D331F46B39221A4C38A815F35","0199d676-5f8c-7b4c-90ed-540add822f91","0199d675-8795-765b-adc2-c813de8cd3d1","","3342","
        <div style=""display: flex; justify-content: center; align-items: center;"">
          <img src=""images/red_deck_2.png"" style=""width: 300px; height: 300px; margin-right: 10px;"" />
          <img src=""images/blue_deck_1.png"" style=""width: 300px; height: 300px;"" />
        </div>","1","4","1","choice","1",""
"","","","","","html-keyboard-response","79","676485","0.0-61.0-1.0-0.0","416EBD8D331F46B39221A4C38A815F35","0199d676-5f8c-7b4c-90ed-540add822f91","0199d675-8795-765b-adc2-c813de8cd3d1","","null","<div style=""display: flex; justify-content: center; align-items: center;"">
                     <img src=""images/semantic/semantic_series_4/semantic_series_4_b.png"" style=""width: 300px; height: 300px;"" />
                   </div>","null","4","1","B","",""
"","","","","","html-keyboard-response","80","682488","0.0-61.0-1.0-1.0","416EBD8D331F46B39221A4C38A815F35","0199d676-5f8c-7b4c-90ed-540add822f91","0199d675-8795-765b-adc2-c813de8cd3d1","","null","<div style=""display: flex; justify-content: center; align-items: center;"">
                     <img src=""images/semantic/semantic_series_4/semantic_series_4_c.png"" style=""width: 300px; height: 300px;"" />
                   </div>","null","4","1","C","",""
"","","","","","html-keyboard-response","81","688492","0.0-61.0-1.0-2.0","416EBD8D331F46B39221A4C38A815F35","0199d676-5f8c-7b4c-90ed-540add822f91","0199d675-8795-765b-adc2-c813de8cd3d1","","null","<div style=""display: flex; justify-content: center; align-items: center;"">
                     <img src=""images/semantic/semantic_series_4/semantic_series_4_d.png"" style=""width: 300px; height: 300px;"" />
                   </div>","null","4","1","D","",""
"","","","","","survey-likert","82","692135","0.0-62.0","416EBD8D331F46B39221A4C38A815F35","0199d676-5f8c-7b4c-90ed-540add822f91","0199d675-8795-765b-adc2-c813de8cd3d1","","3642","","{""Q0"":2}","4","1","surprise_rating","","[0]"
"","","","","","survey-likert","83","693816","0.0-63.0","416EBD8D331F46B39221A4C38A815F35","0199d676-5f8c-7b4c-90ed-540add822f91","0199d675-8795-765b-adc2-c813de8cd3d1","","1680","","{""Q0"":3}","4","1","enjoyment_rating","","[0]"
"","","","","","html-keyboard-response","84","699821","0.0-64.0","416EBD8D331F46B39221A4C38A815F35","0199d676-5f8c-7b4c-90ed-540add822f91","0199d675-8795-765b-adc2-c813de8cd3d1","","null","<div style=""display: flex; justify-content: center; align-items: center;"">
                     <img src=""images/other/blank.png"" style=""width: 300px; height: 300px;"" />
                   </div>","null","0","0","blank","",""
"","","","","","html-keyboard-response","85","705823","0.0-65.0","416EBD8D331F46B39221A4C38A815F35","0199d676-5f8c-7b4c-90ed-540add822f91","0199d675-8795-765b-adc2-c813de8cd3d1","","null","<div style=""display: flex; justify-content: center; align-items: center;"">
                     <img src=""images/causal/causal_series_10/causal_series_10_a.png"" style=""width: 300px; height: 300px;"" />
                   </div>","null","10","1","A","",""
"","","","","","html-button-response","86","722931","0.0-66.0","416EBD8D331F46B39221A4C38A815F35","0199d676-5f8c-7b4c-90ed-540add822f91","0199d675-8795-765b-adc2-c813de8cd3d1","","17107","
        <div style=""display: flex; justify-content: center; align-items: center;"">
          <img src=""images/red_deck_2.png"" style=""width: 300px; height: 300px; margin-right: 10px;"" />
          <img src=""images/blue_deck_1.png"" style=""width: 300px; height: 300px;"" />
        </div>","0","10","1","choice","0",""
"","","","","","html-keyboard-response","87","728942","0.0-67.0-0.0-0.0","416EBD8D331F46B39221A4C38A815F35","0199d676-5f8c-7b4c-90ed-540add822f91","0199d675-8795-765b-adc2-c813de8cd3d1","","null","<div style=""display: flex; justify-content: center; align-items: center;"">
                     <img src=""images/causal/causal_series_10/causal_series_10_b.png"" style=""width: 300px; height: 300px;"" />
                   </div>","null","10","1","B","",""
"","","","","","html-keyboard-response","88","734944","0.0-67.0-0.0-1.0","416EBD8D331F46B39221A4C38A815F35","0199d676-5f8c-7b4c-90ed-540add822f91","0199d675-8795-765b-adc2-c813de8cd3d1","","null","<div style=""display: flex; justify-content: center; align-items: center;"">
                     <img src=""images/causal/causal_series_10/causal_series_10_c.png"" style=""width: 300px; height: 300px;"" />
                   </div>","null","10","1","C","",""
"","","","","","html-keyboard-response","89","740953","0.0-67.0-0.0-2.0","416EBD8D331F46B39221A4C38A815F35","0199d676-5f8c-7b4c-90ed-540add822f91","0199d675-8795-765b-adc2-c813de8cd3d1","","null","<div style=""display: flex; justify-content: center; align-items: center;"">
                     <img src=""images/causal/causal_series_10/causal_series_10_d.png"" style=""width: 300px; height: 300px;"" />
                   </div>","null","10","1","D","",""
"","","","","","survey-likert","90","747217","0.0-68.0","416EBD8D331F46B39221A4C38A815F35","0199d676-5f8c-7b4c-90ed-540add822f91","0199d675-8795-765b-adc2-c813de8cd3d1","","6263","","{""Q0"":3}","10","1","surprise_rating","","[0]"
"","","","","","survey-likert","91","748654","0.0-69.0","416EBD8D331F46B39221A4C38A815F35","0199d676-5f8c-7b4c-90ed-540add822f91","0199d675-8795-765b-adc2-c813de8cd3d1","","1437","","{""Q0"":3}","10","1","enjoyment_rating","","[0]"
"","","","","","html-keyboard-response","92","754662","0.0-70.0","416EBD8D331F46B39221A4C38A815F35","0199d676-5f8c-7b4c-90ed-540add822f91","0199d675-8795-765b-adc2-c813de8cd3d1","","null","<div style=""display: flex; justify-content: center; align-items: center;"">
                     <img src=""images/other/blank.png"" style=""width: 300px; height: 300px;"" />
                   </div>","null","0","0","blank","",""
"","","","","","html-keyboard-response","93","760663","0.0-71.0","416EBD8D331F46B39221A4C38A815F35","0199d676-5f8c-7b4c-90ed-540add822f91","0199d675-8795-765b-adc2-c813de8cd3d1","","null","<div style=""display: flex; justify-content: center; align-items: center;"">
                     <img src=""images/causal/causal_series_7/causal_series_7_a.png"" style=""width: 300px; height: 300px;"" />
                   </div>","null","7","2","A","",""
"","","","","","html-button-response","94","765481","0.0-72.0","416EBD8D331F46B39221A4C38A815F35","0199d676-5f8c-7b4c-90ed-540add822f91","0199d675-8795-765b-adc2-c813de8cd3d1","","4817","
        <div style=""display: flex; justify-content: center; align-items: center;"">
          <img src=""images/red_deck_2.png"" style=""width: 300px; height: 300px; margin-right: 10px;"" />
          <img src=""images/blue_deck_1.png"" style=""width: 300px; height: 300px;"" />
        </div>","1","7","2","choice","1",""
"","","","","","html-keyboard-response","95","771485","0.0-73.0-1.0-0.0","416EBD8D331F46B39221A4C38A815F35","0199d676-5f8c-7b4c-90ed-540add822f91","0199d675-8795-765b-adc2-c813de8cd3d1","","null","<div style=""display: flex; justify-content: center; align-items: center;"">
                     <img src=""images/semantic/semantic_series_7/semantic_series_7_b.png"" style=""width: 300px; height: 300px;"" />
                   </div>","null","7","2","B","",""
"","","","","","html-keyboard-response","96","777492","0.0-73.0-1.0-1.0","416EBD8D331F46B39221A4C38A815F35","0199d676-5f8c-7b4c-90ed-540add822f91","0199d675-8795-765b-adc2-c813de8cd3d1","","null","<div style=""display: flex; justify-content: center; align-items: center;"">
                     <img src=""images/semantic/semantic_series_7/semantic_series_7_c.png"" style=""width: 300px; height: 300px;"" />
                   </div>","null","7","2","C","",""
"","","","","","html-keyboard-response","97","783507","0.0-73.0-1.0-2.0","416EBD8D331F46B39221A4C38A815F35","0199d676-5f8c-7b4c-90ed-540add822f91","0199d675-8795-765b-adc2-c813de8cd3d1","","null","<div style=""display: flex; justify-content: center; align-items: center;"">
                     <img src=""images/semantic/semantic_series_7/semantic_series_7_d.png"" style=""width: 300px; height: 300px;"" />
                   </div>","null","7","2","D","",""
"","","","","","survey-likert","98","786102","0.0-74.0","416EBD8D331F46B39221A4C38A815F35","0199d676-5f8c-7b4c-90ed-540add822f91","0199d675-8795-765b-adc2-c813de8cd3d1","","2591","","{""Q0"":3}","7","2","surprise_rating","","[0]"
"","","","","","survey-likert","99","787657","0.0-75.0","416EBD8D331F46B39221A4C38A815F35","0199d676-5f8c-7b4c-90ed-540add822f91","0199d675-8795-765b-adc2-c813de8cd3d1","","1554","","{""Q0"":2}","7","2","enjoyment_rating","","[0]"
"","","","","","html-keyboard-response","100","793666","0.0-76.0","416EBD8D331F46B39221A4C38A815F35","0199d676-5f8c-7b4c-90ed-540add822f91","0199d675-8795-765b-adc2-c813de8cd3d1","","null","<div style=""display: flex; justify-content: center; align-items: center;"">
                     <img src=""images/other/blank.png"" style=""width: 300px; height: 300px;"" />
                   </div>","null","0","0","blank","",""
"","","","","","html-keyboard-response","101","799678","0.0-77.0","416EBD8D331F46B39221A4C38A815F35","0199d676-5f8c-7b4c-90ed-540add822f91","0199d675-8795-765b-adc2-c813de8cd3d1","","null","<div style=""display: flex; justify-content: center; align-items: center;"">
                     <img src=""images/causal/causal_series_10/causal_series_10_a.png"" style=""width: 300px; height: 300px;"" />
                   </div>","null","10","2","A","",""
"","","","","","html-button-response","102","803159","0.0-78.0","416EBD8D331F46B39221A4C38A815F35","0199d676-5f8c-7b4c-90ed-540add822f91","0199d675-8795-765b-adc2-c813de8cd3d1","","3480","
        <div style=""display: flex; justify-content: center; align-items: center;"">
          <img src=""images/red_deck_2.png"" style=""width: 300px; height: 300px; margin-right: 10px;"" />
          <img src=""images/blue_deck_1.png"" style=""width: 300px; height: 300px;"" />
        </div>","0","10","2","choice","0",""
"","","","","","html-keyboard-response","103","809162","0.0-79.0-0.0-0.0","416EBD8D331F46B39221A4C38A815F35","0199d676-5f8c-7b4c-90ed-540add822f91","0199d675-8795-765b-adc2-c813de8cd3d1","","null","<div style=""display: flex; justify-content: center; align-items: center;"">
                     <img src=""images/causal/causal_series_10/causal_series_10_b.png"" style=""width: 300px; height: 300px;"" />
                   </div>","null","10","2","B","",""
"","","","","","html-keyboard-response","104","815168","0.0-79.0-0.0-1.0","416EBD8D331F46B39221A4C38A815F35","0199d676-5f8c-7b4c-90ed-540add822f91","0199d675-8795-765b-adc2-c813de8cd3d1","","null","<div style=""display: flex; justify-content: center; align-items: center;"">
                     <img src=""images/causal/causal_series_10/causal_series_10_c.png"" style=""width: 300px; height: 300px;"" />
                   </div>","null","10","2","C","",""
"","","","","","html-keyboard-response","105","821176","0.0-79.0-0.0-2.0","416EBD8D331F46B39221A4C38A815F35","0199d676-5f8c-7b4c-90ed-540add822f91","0199d675-8795-765b-adc2-c813de8cd3d1","","null","<div style=""display: flex; justify-content: center; align-items: center;"">
                     <img src=""images/causal/causal_series_10/causal_series_10_d.png"" style=""width: 300px; height: 300px;"" />
                   </div>","null","10","2","D","",""
"","","","","","survey-likert","106","827554","0.0-80.0","416EBD8D331F46B39221A4C38A815F35","0199d676-5f8c-7b4c-90ed-540add822f91","0199d675-8795-765b-adc2-c813de8cd3d1","","6377","","{""Q0"":2}","10","2","surprise_rating","","[0]"
"","","","","","survey-likert","107","828833","0.0-81.0","416EBD8D331F46B39221A4C38A815F35","0199d676-5f8c-7b4c-90ed-540add822f91","0199d675-8795-765b-adc2-c813de8cd3d1","","1278","","{""Q0"":3}","10","2","enjoyment_rating","","[0]"
"","","","","","html-keyboard-response","108","834838","0.0-82.0","416EBD8D331F46B39221A4C38A815F35","0199d676-5f8c-7b4c-90ed-540add822f91","0199d675-8795-765b-adc2-c813de8cd3d1","","null","<div style=""display: flex; justify-content: center; align-items: center;"">
                     <img src=""images/other/blank.png"" style=""width: 300px; height: 300px;"" />
                   </div>","null","0","0","blank","",""
"","","","","","html-keyboard-response","109","840849","0.0-83.0","416EBD8D331F46B39221A4C38A815F35","0199d676-5f8c-7b4c-90ed-540add822f91","0199d675-8795-765b-adc2-c813de8cd3d1","","null","<div style=""display: flex; justify-content: center; align-items: center;"">
                     <img src=""images/causal/causal_series_2/causal_series_2_a.png"" style=""width: 300px; height: 300px;"" />
                   </div>","null","2","1","A","",""
"","","","","","html-button-response","110","849674","0.0-84.0","416EBD8D331F46B39221A4C38A815F35","0199d676-5f8c-7b4c-90ed-540add822f91","0199d675-8795-765b-adc2-c813de8cd3d1","","8821","
        <div style=""display: flex; justify-content: center; align-items: center;"">
          <img src=""images/red_deck_2.png"" style=""width: 300px; height: 300px; margin-right: 10px;"" />
          <img src=""images/blue_deck_1.png"" style=""width: 300px; height: 300px;"" />
        </div>","1","2","1","choice","1",""
"","","","","","html-keyboard-response","111","855680","0.0-85.0-1.0-0.0","416EBD8D331F46B39221A4C38A815F35","0199d676-5f8c-7b4c-90ed-540add822f91","0199d675-8795-765b-adc2-c813de8cd3d1","","null","<div style=""display: flex; justify-content: center; align-items: center;"">
                     <img src=""images/semantic/semantic_series_2/semantic_series_2_b.png"" style=""width: 300px; height: 300px;"" />
                   </div>","null","2","1","B","",""
"","","","","","html-keyboard-response","112","861683","0.0-85.0-1.0-1.0","416EBD8D331F46B39221A4C38A815F35","0199d676-5f8c-7b4c-90ed-540add822f91","0199d675-8795-765b-adc2-c813de8cd3d1","","null","<div style=""display: flex; justify-content: center; align-items: center;"">
                     <img src=""images/semantic/semantic_series_2/semantic_series_2_c.png"" style=""width: 300px; height: 300px;"" />
                   </div>","null","2","1","C","",""
"","","","","","html-keyboard-response","113","867688","0.0-85.0-1.0-2.0","416EBD8D331F46B39221A4C38A815F35","0199d676-5f8c-7b4c-90ed-540add822f91","0199d675-8795-765b-adc2-c813de8cd3d1","","null","<div style=""display: flex; justify-content: center; align-items: center;"">
                     <img src=""images/semantic/semantic_series_2/semantic_series_2_d.png"" style=""width: 300px; height: 300px;"" />
                   </div>","null","2","1","D","",""
"","","","","","survey-likert","114","1067384","0.0-86.0","416EBD8D331F46B39221A4C38A815F35","0199d676-5f8c-7b4c-90ed-540add822f91","0199d675-8795-765b-adc2-c813de8cd3d1","","199688","","{""Q0"":3}","2","1","surprise_rating","","[0]"
"","","","","","survey-likert","115","1068718","0.0-87.0","416EBD8D331F46B39221A4C38A815F35","0199d676-5f8c-7b4c-90ed-540add822f91","0199d675-8795-765b-adc2-c813de8cd3d1","","1333","","{""Q0"":2}","2","1","enjoyment_rating","","[0]"
"","","","","","html-keyboard-response","116","1074732","0.0-88.0","416EBD8D331F46B39221A4C38A815F35","0199d676-5f8c-7b4c-90ed-540add822f91","0199d675-8795-765b-adc2-c813de8cd3d1","","null","<div style=""display: flex; justify-content: center; align-items: center;"">
                     <img src=""images/other/blank.png"" style=""width: 300px; height: 300px;"" />
                   </div>","null","0","0","blank","",""
"","","","","","html-keyboard-response","117","1080735","0.0-89.0","416EBD8D331F46B39221A4C38A815F35","0199d676-5f8c-7b4c-90ed-540add822f91","0199d675-8795-765b-adc2-c813de8cd3d1","","null","<div style=""display: flex; justify-content: center; align-items: center;"">
                     <img src=""images/causal/causal_series_3/causal_series_3_a.png"" style=""width: 300px; height: 300px;"" />
                   </div>","null","3","1","A","",""
"","","","","","html-button-response","118","1086022","0.0-90.0","416EBD8D331F46B39221A4C38A815F35","0199d676-5f8c-7b4c-90ed-540add822f91","0199d675-8795-765b-adc2-c813de8cd3d1","","5286","
        <div style=""display: flex; justify-content: center; align-items: center;"">
          <img src=""images/red_deck_2.png"" style=""width: 300px; height: 300px; margin-right: 10px;"" />
          <img src=""images/blue_deck_1.png"" style=""width: 300px; height: 300px;"" />
        </div>","0","3","1","choice","0",""
"","","","","","html-keyboard-response","119","1092038","0.0-91.0-0.0-0.0","416EBD8D331F46B39221A4C38A815F35","0199d676-5f8c-7b4c-90ed-540add822f91","0199d675-8795-765b-adc2-c813de8cd3d1","","null","<div style=""display: flex; justify-content: center; align-items: center;"">
                     <img src=""images/causal/causal_series_3/causal_series_3_b.png"" style=""width: 300px; height: 300px;"" />
                   </div>","null","3","1","B","",""
"","","","","","html-keyboard-response","120","1098048","0.0-91.0-0.0-1.0","416EBD8D331F46B39221A4C38A815F35","0199d676-5f8c-7b4c-90ed-540add822f91","0199d675-8795-765b-adc2-c813de8cd3d1","","null","<div style=""display: flex; justify-content: center; align-items: center;"">
                     <img src=""images/causal/causal_series_3/causal_series_3_c.png"" style=""width: 300px; height: 300px;"" />
                   </div>","null","3","1","C","",""
"","","","","","html-keyboard-response","121","1104061","0.0-91.0-0.0-2.0","416EBD8D331F46B39221A4C38A815F35","0199d676-5f8c-7b4c-90ed-540add822f91","0199d675-8795-765b-adc2-c813de8cd3d1","","null","<div style=""display: flex; justify-content: center; align-items: center;"">
                     <img src=""images/causal/causal_series_3/causal_series_3_d.png"" style=""width: 300px; height: 300px;"" />
                   </div>","null","3","1","D","",""
"","","","","","survey-likert","122","1122077","0.0-92.0","416EBD8D331F46B39221A4C38A815F35","0199d676-5f8c-7b4c-90ed-540add822f91","0199d675-8795-765b-adc2-c813de8cd3d1","","18015","","{""Q0"":3}","3","1","surprise_rating","","[0]"
"","","","","","survey-likert","123","1123372","0.0-93.0","416EBD8D331F46B39221A4C38A815F35","0199d676-5f8c-7b4c-90ed-540add822f91","0199d675-8795-765b-adc2-c813de8cd3d1","","1295","","{""Q0"":3}","3","1","enjoyment_rating","","[0]"
"","","","","","html-keyboard-response","124","1129381","0.0-94.0","416EBD8D331F46B39221A4C38A815F35","0199d676-5f8c-7b4c-90ed-540add822f91","0199d675-8795-765b-adc2-c813de8cd3d1","","null","<div style=""display: flex; justify-content: center; align-items: center;"">
                     <img src=""images/other/blank.png"" style=""width: 300px; height: 300px;"" />
                   </div>","null","0","0","blank","",""
"","","","","","html-keyboard-response","125","1135386","0.0-95.0","416EBD8D331F46B39221A4C38A815F35","0199d676-5f8c-7b4c-90ed-540add822f91","0199d675-8795-765b-adc2-c813de8cd3d1","","null","<div style=""display: flex; justify-content: center; align-items: center;"">
                     <img src=""images/causal/causal_series_5/causal_series_5_a.png"" style=""width: 300px; height: 300px;"" />
                   </div>","null","5","1","A","",""
"","","","","","html-button-response","126","1136550","0.0-96.0","416EBD8D331F46B39221A4C38A815F35","0199d676-5f8c-7b4c-90ed-540add822f91","0199d675-8795-765b-adc2-c813de8cd3d1","","1164","
        <div style=""display: flex; justify-content: center; align-items: center;"">
          <img src=""images/red_deck_2.png"" style=""width: 300px; height: 300px; margin-right: 10px;"" />
          <img src=""images/blue_deck_1.png"" style=""width: 300px; height: 300px;"" />
        </div>","1","5","1","choice","1",""
"","","","","","html-keyboard-response","127","1142551","0.0-97.0-1.0-0.0","416EBD8D331F46B39221A4C38A815F35","0199d676-5f8c-7b4c-90ed-540add822f91","0199d675-8795-765b-adc2-c813de8cd3d1","","null","<div style=""display: flex; justify-content: center; align-items: center;"">
                     <img src=""images/semantic/semantic_series_5/semantic_series_5_b.png"" style=""width: 300px; height: 300px;"" />
                   </div>","null","5","1","B","",""
"","","","","","html-keyboard-response","128","1148559","0.0-97.0-1.0-1.0","416EBD8D331F46B39221A4C38A815F35","0199d676-5f8c-7b4c-90ed-540add822f91","0199d675-8795-765b-adc2-c813de8cd3d1","","null","<div style=""display: flex; justify-content: center; align-items: center;"">
                     <img src=""images/semantic/semantic_series_5/semantic_series_5_c.png"" style=""width: 300px; height: 300px;"" />
                   </div>","null","5","1","C","",""
"","","","","","html-keyboard-response","129","1154569","0.0-97.0-1.0-2.0","416EBD8D331F46B39221A4C38A815F35","0199d676-5f8c-7b4c-90ed-540add822f91","0199d675-8795-765b-adc2-c813de8cd3d1","","null","<div style=""display: flex; justify-content: center; align-items: center;"">
                     <img src=""images/semantic/semantic_series_5/semantic_series_5_d.png"" style=""width: 300px; height: 300px;"" />
                   </div>","null","5","1","D","",""
"","","","","","survey-likert","130","1163212","0.0-98.0","416EBD8D331F46B39221A4C38A815F35","0199d676-5f8c-7b4c-90ed-540add822f91","0199d675-8795-765b-adc2-c813de8cd3d1","","8642","","{""Q0"":3}","5","1","surprise_rating","","[0]"
"","","","","","survey-likert","131","1164366","0.0-99.0","416EBD8D331F46B39221A4C38A815F35","0199d676-5f8c-7b4c-90ed-540add822f91","0199d675-8795-765b-adc2-c813de8cd3d1","","1153","","{""Q0"":3}","5","1","enjoyment_rating","","[0]"
"","","","","","html-keyboard-response","132","1170372","0.0-100.0","416EBD8D331F46B39221A4C38A815F35","0199d676-5f8c-7b4c-90ed-540add822f91","0199d675-8795-765b-adc2-c813de8cd3d1","","null","<div style=""display: flex; justify-content: center; align-items: center;"">
                     <img src=""images/other/blank.png"" style=""width: 300px; height: 300px;"" />
                   </div>","null","0","0","blank","",""
"","","","","","html-keyboard-response","133","1176373","0.0-101.0","416EBD8D331F46B39221A4C38A815F35","0199d676-5f8c-7b4c-90ed-540add822f91","0199d675-8795-765b-adc2-c813de8cd3d1","","null","<div style=""display: flex; justify-content: center; align-items: center;"">
                     <img src=""images/causal/causal_series_1/causal_series_1_a.png"" style=""width: 300px; height: 300px;"" />
                   </div>","null","1","2","A","",""
"","","","","","html-button-response","134","1177570","0.0-102.0","416EBD8D331F46B39221A4C38A815F35","0199d676-5f8c-7b4c-90ed-540add822f91","0199d675-8795-765b-adc2-c813de8cd3d1","","1195","
        <div style=""display: flex; justify-content: center; align-items: center;"">
          <img src=""images/red_deck_2.png"" style=""width: 300px; height: 300px; margin-right: 10px;"" />
          <img src=""images/blue_deck_1.png"" style=""width: 300px; height: 300px;"" />
        </div>","0","1","2","choice","0",""
"","","","","","html-keyboard-response","135","1183572","0.0-103.0-0.0-0.0","416EBD8D331F46B39221A4C38A815F35","0199d676-5f8c-7b4c-90ed-540add822f91","0199d675-8795-765b-adc2-c813de8cd3d1","","null","<div style=""display: flex; justify-content: center; align-items: center;"">
                     <img src=""images/causal/causal_series_1/causal_series_1_b.png"" style=""width: 300px; height: 300px;"" />
                   </div>","null","1","2","B","",""
"","","","","","html-keyboard-response","136","1189577","0.0-103.0-0.0-1.0","416EBD8D331F46B39221A4C38A815F35","0199d676-5f8c-7b4c-90ed-540add822f91","0199d675-8795-765b-adc2-c813de8cd3d1","","null","<div style=""display: flex; justify-content: center; align-items: center;"">
                     <img src=""images/causal/causal_series_1/causal_series_1_c.png"" style=""width: 300px; height: 300px;"" />
                   </div>","null","1","2","C","",""
"","","","","","html-keyboard-response","137","1195591","0.0-103.0-0.0-2.0","416EBD8D331F46B39221A4C38A815F35","0199d676-5f8c-7b4c-90ed-540add822f91","0199d675-8795-765b-adc2-c813de8cd3d1","","null","<div style=""display: flex; justify-content: center; align-items: center;"">
                     <img src=""images/causal/causal_series_1/causal_series_1_d.png"" style=""width: 300px; height: 300px;"" />
                   </div>","null","1","2","D","",""
"","","","","","survey-likert","138","1220168","0.0-104.0","416EBD8D331F46B39221A4C38A815F35","0199d676-5f8c-7b4c-90ed-540add822f91","0199d675-8795-765b-adc2-c813de8cd3d1","","24574","","{""Q0"":3}","1","2","surprise_rating","","[0]"
"","","","","","survey-likert","139","1221449","0.0-105.0","416EBD8D331F46B39221A4C38A815F35","0199d676-5f8c-7b4c-90ed-540add822f91","0199d675-8795-765b-adc2-c813de8cd3d1","","1281","","{""Q0"":3}","1","2","enjoyment_rating","","[0]"
"","","","","","html-keyboard-response","140","1228028","0.0-106.0","416EBD8D331F46B39221A4C38A815F35","0199d676-5f8c-7b4c-90ed-540add822f91","0199d675-8795-765b-adc2-c813de8cd3d1","","null","<div style=""display: flex; justify-content: center; align-items: center;"">
                     <img src=""images/other/blank.png"" style=""width: 300px; height: 300px;"" />
                   </div>","null","0","0","blank","",""
"","","","","","html-keyboard-response","141","1234029","0.0-107.0","416EBD8D331F46B39221A4C38A815F35","0199d676-5f8c-7b4c-90ed-540add822f91","0199d675-8795-765b-adc2-c813de8cd3d1","","null","<div style=""display: flex; justify-content: center; align-items: center;"">
                     <img src=""images/causal/causal_series_2/causal_series_2_a.png"" style=""width: 300px; height: 300px;"" />
                   </div>","null","2","2","A","",""
"","","","","","html-button-response","142","1235301","0.0-108.0","416EBD8D331F46B39221A4C38A815F35","0199d676-5f8c-7b4c-90ed-540add822f91","0199d675-8795-765b-adc2-c813de8cd3d1","","1271","
        <div style=""display: flex; justify-content: center; align-items: center;"">
          <img src=""images/red_deck_2.png"" style=""width: 300px; height: 300px; margin-right: 10px;"" />
          <img src=""images/blue_deck_1.png"" style=""width: 300px; height: 300px;"" />
        </div>","0","2","2","choice","0",""
"","","","","","html-keyboard-response","143","1241309","0.0-109.0-0.0-0.0","416EBD8D331F46B39221A4C38A815F35","0199d676-5f8c-7b4c-90ed-540add822f91","0199d675-8795-765b-adc2-c813de8cd3d1","","null","<div style=""display: flex; justify-content: center; align-items: center;"">
                     <img src=""images/causal/causal_series_2/causal_series_2_b.png"" style=""width: 300px; height: 300px;"" />
                   </div>","null","2","2","B","",""
"","","","","","html-keyboard-response","144","1247322","0.0-109.0-0.0-1.0","416EBD8D331F46B39221A4C38A815F35","0199d676-5f8c-7b4c-90ed-540add822f91","0199d675-8795-765b-adc2-c813de8cd3d1","","null","<div style=""display: flex; justify-content: center; align-items: center;"">
                     <img src=""images/causal/causal_series_2/causal_series_2_c.png"" style=""width: 300px; height: 300px;"" />
                   </div>","null","2","2","C","",""
"","","","","","html-keyboard-response","145","1253324","0.0-109.0-0.0-2.0","416EBD8D331F46B39221A4C38A815F35","0199d676-5f8c-7b4c-90ed-540add822f91","0199d675-8795-765b-adc2-c813de8cd3d1","","null","<div style=""display: flex; justify-content: center; align-items: center;"">
                     <img src=""images/causal/causal_series_2/causal_series_2_d.png"" style=""width: 300px; height: 300px;"" />
                   </div>","null","2","2","D","",""
"","","","","","survey-likert","146","1260273","0.0-110.0","416EBD8D331F46B39221A4C38A815F35","0199d676-5f8c-7b4c-90ed-540add822f91","0199d675-8795-765b-adc2-c813de8cd3d1","","6948","","{""Q0"":3}","2","2","surprise_rating","","[0]"
"","","","","","survey-likert","147","1264485","0.0-111.0","416EBD8D331F46B39221A4C38A815F35","0199d676-5f8c-7b4c-90ed-540add822f91","0199d675-8795-765b-adc2-c813de8cd3d1","","4212","","{""Q0"":3}","2","2","enjoyment_rating","","[0]"
"","","","","","html-keyboard-response","148","1270498","0.0-112.0","416EBD8D331F46B39221A4C38A815F35","0199d676-5f8c-7b4c-90ed-540add822f91","0199d675-8795-765b-adc2-c813de8cd3d1","","null","<div style=""display: flex; justify-content: center; align-items: center;"">
                     <img src=""images/other/blank.png"" style=""width: 300px; height: 300px;"" />
                   </div>","null","0","0","blank","",""
"","","","","","html-keyboard-response","149","1276510","0.0-113.0","416EBD8D331F46B39221A4C38A815F35","0199d676-5f8c-7b4c-90ed-540add822f91","0199d675-8795-765b-adc2-c813de8cd3d1","","null","<div style=""display: flex; justify-content: center; align-items: center;"">
                     <img src=""images/causal/causal_series_1/causal_series_1_a.png"" style=""width: 300px; height: 300px;"" />
                   </div>","null","1","1","A","",""
"","","","","","html-button-response","150","1286279","0.0-114.0","416EBD8D331F46B39221A4C38A815F35","0199d676-5f8c-7b4c-90ed-540add822f91","0199d675-8795-765b-adc2-c813de8cd3d1","","9769","
        <div style=""display: flex; justify-content: center; align-items: center;"">
          <img src=""images/red_deck_2.png"" style=""width: 300px; height: 300px; margin-right: 10px;"" />
          <img src=""images/blue_deck_1.png"" style=""width: 300px; height: 300px;"" />
        </div>","0","1","1","choice","0",""
"","","","","","html-keyboard-response","151","1292293","0.0-115.0-0.0-0.0","416EBD8D331F46B39221A4C38A815F35","0199d676-5f8c-7b4c-90ed-540add822f91","0199d675-8795-765b-adc2-c813de8cd3d1","","null","<div style=""display: flex; justify-content: center; align-items: center;"">
                     <img src=""images/causal/causal_series_1/causal_series_1_b.png"" style=""width: 300px; height: 300px;"" />
                   </div>","null","1","1","B","",""
"","","","","","html-keyboard-response","152","1298304","0.0-115.0-0.0-1.0","416EBD8D331F46B39221A4C38A815F35","0199d676-5f8c-7b4c-90ed-540add822f91","0199d675-8795-765b-adc2-c813de8cd3d1","","null","<div style=""display: flex; justify-content: center; align-items: center;"">
                     <img src=""images/causal/causal_series_1/causal_series_1_c.png"" style=""width: 300px; height: 300px;"" />
                   </div>","null","1","1","C","",""
"","","","","","html-keyboard-response","153","1304318","0.0-115.0-0.0-2.0","416EBD8D331F46B39221A4C38A815F35","0199d676-5f8c-7b4c-90ed-540add822f91","0199d675-8795-765b-adc2-c813de8cd3d1","","null","<div style=""display: flex; justify-content: center; align-items: center;"">
                     <img src=""images/causal/causal_series_1/causal_series_1_d.png"" style=""width: 300px; height: 300px;"" />
                   </div>","null","1","1","D","",""
"","","","","","survey-likert","154","1313538","0.0-116.0","416EBD8D331F46B39221A4C38A815F35","0199d676-5f8c-7b4c-90ed-540add822f91","0199d675-8795-765b-adc2-c813de8cd3d1","","9219","","{""Q0"":3}","1","1","surprise_rating","","[0]"
"","","","","","survey-likert","155","1314877","0.0-117.0","416EBD8D331F46B39221A4C38A815F35","0199d676-5f8c-7b4c-90ed-540add822f91","0199d675-8795-765b-adc2-c813de8cd3d1","","1338","","{""Q0"":2}","1","1","enjoyment_rating","","[0]"
"","","","","","html-keyboard-response","156","1321027","0.0-118.0","416EBD8D331F46B39221A4C38A815F35","0199d676-5f8c-7b4c-90ed-540add822f91","0199d675-8795-765b-adc2-c813de8cd3d1","","null","<div style=""display: flex; justify-content: center; align-items: center;"">
                     <img src=""images/other/blank.png"" style=""width: 300px; height: 300px;"" />
                   </div>","null","0","0","blank","",""
"","","","","","html-keyboard-response","157","1328027","0.0-119.0","416EBD8D331F46B39221A4C38A815F35","0199d676-5f8c-7b4c-90ed-540add822f91","0199d675-8795-765b-adc2-c813de8cd3d1","","null","<div style=""display: flex; justify-content: center; align-items: center;"">
                     <img src=""images/causal/causal_series_7/causal_series_7_a.png"" style=""width: 300px; height: 300px;"" />
                   </div>","null","7","1","A","",""
"","","","","","html-button-response","158","1330152","0.0-120.0","416EBD8D331F46B39221A4C38A815F35","0199d676-5f8c-7b4c-90ed-540add822f91","0199d675-8795-765b-adc2-c813de8cd3d1","","2122","
        <div style=""display: flex; justify-content: center; align-items: center;"">
          <img src=""images/red_deck_2.png"" style=""width: 300px; height: 300px; margin-right: 10px;"" />
          <img src=""images/blue_deck_1.png"" style=""width: 300px; height: 300px;"" />
        </div>","0","7","1","choice","0",""
"","","","","","html-keyboard-response","159","1336167","0.0-121.0-0.0-0.0","416EBD8D331F46B39221A4C38A815F35","0199d676-5f8c-7b4c-90ed-540add822f91","0199d675-8795-765b-adc2-c813de8cd3d1","","null","<div style=""display: flex; justify-content: center; align-items: center;"">
                     <img src=""images/causal/causal_series_7/causal_series_7_b.png"" style=""width: 300px; height: 300px;"" />
                   </div>","null","7","1","B","",""
"","","","","","html-keyboard-response","160","1342169","0.0-121.0-0.0-1.0","416EBD8D331F46B39221A4C38A815F35","0199d676-5f8c-7b4c-90ed-540add822f91","0199d675-8795-765b-adc2-c813de8cd3d1","","null","<div style=""display: flex; justify-content: center; align-items: center;"">
                     <img src=""images/causal/causal_series_7/causal_series_7_c.png"" style=""width: 300px; height: 300px;"" />
                   </div>","null","7","1","C","",""
"","","","","","html-keyboard-response","161","1348181","0.0-121.0-0.0-2.0","416EBD8D331F46B39221A4C38A815F35","0199d676-5f8c-7b4c-90ed-540add822f91","0199d675-8795-765b-adc2-c813de8cd3d1","","null","<div style=""display: flex; justify-content: center; align-items: center;"">
                     <img src=""images/causal/causal_series_7/causal_series_7_d.png"" style=""width: 300px; height: 300px;"" />
                   </div>","null","7","1","D","",""
"","","","","","survey-likert","162","1355264","0.0-122.0","416EBD8D331F46B39221A4C38A815F35","0199d676-5f8c-7b4c-90ed-540add822f91","0199d675-8795-765b-adc2-c813de8cd3d1","","7082","","{""Q0"":2}","7","1","surprise_rating","","[0]"
"","","","","","survey-likert","163","1356744","0.0-123.0","416EBD8D331F46B39221A4C38A815F35","0199d676-5f8c-7b4c-90ed-540add822f91","0199d675-8795-765b-adc2-c813de8cd3d1","","1479","","{""Q0"":3}","7","1","enjoyment_rating","","[0]"
"","","","","","html-keyboard-response","164","1362754","0.0-124.0","416EBD8D331F46B39221A4C38A815F35","0199d676-5f8c-7b4c-90ed-540add822f91","0199d675-8795-765b-adc2-c813de8cd3d1","","null","<div style=""display: flex; justify-content: center; align-items: center;"">
                     <img src=""images/other/blank.png"" style=""width: 300px; height: 300px;"" />
                   </div>","null","0","0","blank","",""
"","","","","","survey-text","165","1392538","0.0-125.0","416EBD8D331F46B39221A4C38A815F35","0199d676-5f8c-7b4c-90ed-540add822f91","0199d675-8795-765b-adc2-c813de8cd3d1","","29779","","{""Q0"":""one continues the story and the other is random""}","","","","",""
"","","","","","html-button-response","166","1395299","0.0-126.0","416EBD8D331F46B39221A4C38A815F35","0199d676-5f8c-7b4c-90ed-540add822f91","0199d675-8795-765b-adc2-c813de8cd3d1","","2761","Which color deck do the following sentences continue the story from?","0","","","","",""
"","","","","","html-button-response","167","1396110","0.0-127.0","416EBD8D331F46B39221A4C38A815F35","0199d676-5f8c-7b4c-90ed-540add822f91","0199d675-8795-765b-adc2-c813de8cd3d1","","810","Which color deck do the following sentences NOT follow the story from?","1","","","","",""
"","","","","","html-button-response","168","1398014","0.0-128.0","416EBD8D331F46B39221A4C38A815F35","0199d676-5f8c-7b4c-90ed-540add822f91","0199d675-8795-765b-adc2-c813de8cd3d1","","1904","Which type of deck did you prefer overall?","1","","","","",""
"","","","","","survey-text","169","1402451","0.0-129.0","416EBD8D331F46B39221A4C38A815F35","0199d676-5f8c-7b4c-90ed-540add822f91","0199d675-8795-765b-adc2-c813de8cd3d1","","4434","","{""Q0"":""male"",""Q1"":""34""}","","","","",""
"","","","","","instructions","170","1423941","0.0-130.0","416EBD8D331F46B39221A4C38A815F35","0199d676-5f8c-7b4c-90ed-540add822f91","0199d675-8795-765b-adc2-c813de8cd3d1","[{""page_index"":0,""viewing_time"":21489}]","21490","","","","","","",""
