"success","timeout","failed_images","failed_audio","failed_video","trial_type","trial_index","time_elapsed","internal_node_id","subject_id","study_id","session_id","view_history","rt","stimulus","response","choice"
"true","false","[]","[]","[]","preload","0","5914","0.0-0.0","07075B0841D641F6A74B75F9294BC9A7","e32ad446-3f53-40e8-bf18-850b3c9a4842","683bf07d-1a26-40b1-9cff-5abdc1eed0ee","","","","",""
"","","","","","instructions","1","33401","0.0-1.0","07075B0841D641F6A74B75F9294BC9A7","e32ad446-3f53-40e8-bf18-850b3c9a4842","683bf07d-1a26-40b1-9cff-5abdc1eed0ee","[{""page_index"":0,""viewing_time"":27487}]","27487","","",""
"","","","","","instructions","2","35565","0.0-2.0","07075B0841D641F6A74B75F9294BC9A7","e32ad446-3f53-40e8-bf18-850b3c9a4842","683bf07d-1a26-40b1-9cff-5abdc1eed0ee","[{""page_index"":0,""viewing_time"":2163}]","2163","","",""
"true","","","","","fullscreen","3","38362","0.0-3.0","07075B0841D641F6A74B75F9294BC9A7","e32ad446-3f53-40e8-bf18-850b3c9a4842","683bf07d-1a26-40b1-9cff-5abdc1eed0ee","","1783","","",""
"","","","","","instructions","4","172334","0.0-4.0","07075B0841D641F6A74B75F9294BC9A7","e32ad446-3f53-40e8-bf18-850b3c9a4842","683bf07d-1a26-40b1-9cff-5abdc1eed0ee","[{""page_index"":0,""viewing_time"":133972}]","133972","","",""
"","","","","","html-keyboard-response","5","175337","0.0-5.0","07075B0841D641F6A74B75F9294BC9A7","e32ad446-3f53-40e8-bf18-850b3c9a4842","683bf07d-1a26-40b1-9cff-5abdc1eed0ee","","null","<div style=""display: flex; justify-content: center; align-items: center;"">
                <img src=""images/causal/causal_series_12/causal_series_12_a.jpg"" style=""width: 300px; height: 300px;"" />
              </div>","null",""
"","","","","","html-keyboard-response","6","178353","0.0-6.0","07075B0841D641F6A74B75F9294BC9A7","e32ad446-3f53-40e8-bf18-850b3c9a4842","683bf07d-1a26-40b1-9cff-5abdc1eed0ee","","null","<div style=""display: flex; justify-content: center; align-items: center;"">
                <img src=""images/causal/causal_series_12/causal_series_12_b.jpg"" style=""width: 300px; height: 300px;"" />
              </div>","null",""
"","","","","","html-keyboard-response","7","181364","0.0-7.0","07075B0841D641F6A74B75F9294BC9A7","e32ad446-3f53-40e8-bf18-850b3c9a4842","683bf07d-1a26-40b1-9cff-5abdc1eed0ee","","null","<div style=""display: flex; justify-content: center; align-items: center;"">
                <img src=""images/causal/causal_series_12/causal_series_12_c.jpg"" style=""width: 300px; height: 300px;"" />
              </div>","null",""
"","","","","","html-button-response","8","183624","0.0-8.0","07075B0841D641F6A74B75F9294BC9A7","e32ad446-3f53-40e8-bf18-850b3c9a4842","683bf07d-1a26-40b1-9cff-5abdc1eed0ee","","2259","
    <div style=""display: flex; justify-content: center; align-items: center;"">
      <img src=""images/red_deck_2.png"" style=""width: 300px; height: 300px; margin-right: 10px;"" />
      <img src=""images/blue_deck_1.png"" style=""width: 300px; height: 300px;"" />
    </div>","1","1"
"","","","","","html-keyboard-response","9","186632","0.0-9.0-1.0-0.0","07075B0841D641F6A74B75F9294BC9A7","e32ad446-3f53-40e8-bf18-850b3c9a4842","683bf07d-1a26-40b1-9cff-5abdc1eed0ee","","null","<div style=""display: flex; justify-content: center; align-items: center;"">
                <img src=""images/semantic/semantic_series_11/semantic_series_11_d.jpg"" style=""width: 300px; height: 300px;"" />
              </div>","null",""
"","","","","","html-keyboard-response","10","189639","0.0-10.0","07075B0841D641F6A74B75F9294BC9A7","e32ad446-3f53-40e8-bf18-850b3c9a4842","683bf07d-1a26-40b1-9cff-5abdc1eed0ee","","null","<div style=""display: flex; justify-content: center; align-items: center;"">
                <img src=""images/other/blank.jpg"" style=""width: 300px; height: 300px;"" />
              </div>","null",""
"","","","","","html-keyboard-response","11","192642","0.0-11.0","07075B0841D641F6A74B75F9294BC9A7","e32ad446-3f53-40e8-bf18-850b3c9a4842","683bf07d-1a26-40b1-9cff-5abdc1eed0ee","","null","<div style=""display: flex; justify-content: center; align-items: center;"">
                <img src=""images/causal/causal_series_2/causal_series_2_a.jpg"" style=""width: 300px; height: 300px;"" />
              </div>","null",""
"","","","","","html-keyboard-response","12","195644","0.0-12.0","07075B0841D641F6A74B75F9294BC9A7","e32ad446-3f53-40e8-bf18-850b3c9a4842","683bf07d-1a26-40b1-9cff-5abdc1eed0ee","","null","<div style=""display: flex; justify-content: center; align-items: center;"">
                <img src=""images/causal/causal_series_2/causal_series_2_b.jpg"" style=""width: 300px; height: 300px;"" />
              </div>","null",""
"","","","","","html-keyboard-response","13","198652","0.0-13.0","07075B0841D641F6A74B75F9294BC9A7","e32ad446-3f53-40e8-bf18-850b3c9a4842","683bf07d-1a26-40b1-9cff-5abdc1eed0ee","","null","<div style=""display: flex; justify-content: center; align-items: center;"">
                <img src=""images/causal/causal_series_2/causal_series_2_c.jpg"" style=""width: 300px; height: 300px;"" />
              </div>","null",""
"","","","","","html-button-response","14","200784","0.0-14.0","07075B0841D641F6A74B75F9294BC9A7","e32ad446-3f53-40e8-bf18-850b3c9a4842","683bf07d-1a26-40b1-9cff-5abdc1eed0ee","","2132","
    <div style=""display: flex; justify-content: center; align-items: center;"">
      <img src=""images/red_deck_2.png"" style=""width: 300px; height: 300px; margin-right: 10px;"" />
      <img src=""images/blue_deck_1.png"" style=""width: 300px; height: 300px;"" />
    </div>","0","0"
"","","","","","html-keyboard-response","15","203794","0.0-15.0-0.0-0.0","07075B0841D641F6A74B75F9294BC9A7","e32ad446-3f53-40e8-bf18-850b3c9a4842","683bf07d-1a26-40b1-9cff-5abdc1eed0ee","","null","<div style=""display: flex; justify-content: center; align-items: center;"">
                <img src=""images/causal/causal_series_2/causal_series_2_d.jpg"" style=""width: 300px; height: 300px;"" />
              </div>","null",""
"","","","","","html-keyboard-response","16","206807","0.0-16.0","07075B0841D641F6A74B75F9294BC9A7","e32ad446-3f53-40e8-bf18-850b3c9a4842","683bf07d-1a26-40b1-9cff-5abdc1eed0ee","","null","<div style=""display: flex; justify-content: center; align-items: center;"">
                <img src=""images/other/blank.jpg"" style=""width: 300px; height: 300px;"" />
              </div>","null",""
"","","","","","html-keyboard-response","17","209817","0.0-17.0","07075B0841D641F6A74B75F9294BC9A7","e32ad446-3f53-40e8-bf18-850b3c9a4842","683bf07d-1a26-40b1-9cff-5abdc1eed0ee","","null","<div style=""display: flex; justify-content: center; align-items: center;"">
                <img src=""images/causal/causal_series_10/causal_series_10_a.jpg"" style=""width: 300px; height: 300px;"" />
              </div>","null",""
"","","","","","html-keyboard-response","18","212823","0.0-18.0","07075B0841D641F6A74B75F9294BC9A7","e32ad446-3f53-40e8-bf18-850b3c9a4842","683bf07d-1a26-40b1-9cff-5abdc1eed0ee","","null","<div style=""display: flex; justify-content: center; align-items: center;"">
                <img src=""images/causal/causal_series_10/causal_series_10_b.jpg"" style=""width: 300px; height: 300px;"" />
              </div>","null",""
"","","","","","html-keyboard-response","19","215833","0.0-19.0","07075B0841D641F6A74B75F9294BC9A7","e32ad446-3f53-40e8-bf18-850b3c9a4842","683bf07d-1a26-40b1-9cff-5abdc1eed0ee","","null","<div style=""display: flex; justify-content: center; align-items: center;"">
                <img src=""images/causal/causal_series_10/causal_series_10_c.jpg"" style=""width: 300px; height: 300px;"" />
              </div>","null",""
"","","","","","html-button-response","20","216828","0.0-20.0","07075B0841D641F6A74B75F9294BC9A7","e32ad446-3f53-40e8-bf18-850b3c9a4842","683bf07d-1a26-40b1-9cff-5abdc1eed0ee","","995","
    <div style=""display: flex; justify-content: center; align-items: center;"">
      <img src=""images/red_deck_2.png"" style=""width: 300px; height: 300px; margin-right: 10px;"" />
      <img src=""images/blue_deck_1.png"" style=""width: 300px; height: 300px;"" />
    </div>","1","1"
"","","","","","html-keyboard-response","21","219836","0.0-21.0-1.0-0.0","07075B0841D641F6A74B75F9294BC9A7","e32ad446-3f53-40e8-bf18-850b3c9a4842","683bf07d-1a26-40b1-9cff-5abdc1eed0ee","","null","<div style=""display: flex; justify-content: center; align-items: center;"">
                <img src=""images/semantic/semantic_series_9/semantic_series_9_d.jpg"" style=""width: 300px; height: 300px;"" />
              </div>","null",""
"","","","","","html-keyboard-response","22","222850","0.0-22.0","07075B0841D641F6A74B75F9294BC9A7","e32ad446-3f53-40e8-bf18-850b3c9a4842","683bf07d-1a26-40b1-9cff-5abdc1eed0ee","","null","<div style=""display: flex; justify-content: center; align-items: center;"">
                <img src=""images/other/blank.jpg"" style=""width: 300px; height: 300px;"" />
              </div>","null",""
"","","","","","html-keyboard-response","23","225865","0.0-23.0","07075B0841D641F6A74B75F9294BC9A7","e32ad446-3f53-40e8-bf18-850b3c9a4842","683bf07d-1a26-40b1-9cff-5abdc1eed0ee","","null","<div style=""display: flex; justify-content: center; align-items: center;"">
                <img src=""images/causal/causal_series_4/causal_series_4_a.jpg"" style=""width: 300px; height: 300px;"" />
              </div>","null",""
"","","","","","html-keyboard-response","24","228875","0.0-24.0","07075B0841D641F6A74B75F9294BC9A7","e32ad446-3f53-40e8-bf18-850b3c9a4842","683bf07d-1a26-40b1-9cff-5abdc1eed0ee","","null","<div style=""display: flex; justify-content: center; align-items: center;"">
                <img src=""images/causal/causal_series_4/causal_series_4_b.jpg"" style=""width: 300px; height: 300px;"" />
              </div>","null",""
"","","","","","html-keyboard-response","25","231878","0.0-25.0","07075B0841D641F6A74B75F9294BC9A7","e32ad446-3f53-40e8-bf18-850b3c9a4842","683bf07d-1a26-40b1-9cff-5abdc1eed0ee","","null","<div style=""display: flex; justify-content: center; align-items: center;"">
                <img src=""images/causal/causal_series_4/causal_series_4_c.jpg"" style=""width: 300px; height: 300px;"" />
              </div>","null",""
"","","","","","html-button-response","26","232591","0.0-26.0","07075B0841D641F6A74B75F9294BC9A7","e32ad446-3f53-40e8-bf18-850b3c9a4842","683bf07d-1a26-40b1-9cff-5abdc1eed0ee","","712","
    <div style=""display: flex; justify-content: center; align-items: center;"">
      <img src=""images/red_deck_2.png"" style=""width: 300px; height: 300px; margin-right: 10px;"" />
      <img src=""images/blue_deck_1.png"" style=""width: 300px; height: 300px;"" />
    </div>","0","0"
"","","","","","html-keyboard-response","27","235602","0.0-27.0-0.0-0.0","07075B0841D641F6A74B75F9294BC9A7","e32ad446-3f53-40e8-bf18-850b3c9a4842","683bf07d-1a26-40b1-9cff-5abdc1eed0ee","","null","<div style=""display: flex; justify-content: center; align-items: center;"">
                <img src=""images/causal/causal_series_4/causal_series_4_d.jpg"" style=""width: 300px; height: 300px;"" />
              </div>","null",""
"","","","","","html-keyboard-response","28","238610","0.0-28.0","07075B0841D641F6A74B75F9294BC9A7","e32ad446-3f53-40e8-bf18-850b3c9a4842","683bf07d-1a26-40b1-9cff-5abdc1eed0ee","","null","<div style=""display: flex; justify-content: center; align-items: center;"">
                <img src=""images/other/blank.jpg"" style=""width: 300px; height: 300px;"" />
              </div>","null",""
"","","","","","html-keyboard-response","29","241623","0.0-29.0","07075B0841D641F6A74B75F9294BC9A7","e32ad446-3f53-40e8-bf18-850b3c9a4842","683bf07d-1a26-40b1-9cff-5abdc1eed0ee","","null","<div style=""display: flex; justify-content: center; align-items: center;"">
                <img src=""images/causal/causal_series_5/causal_series_5_a.jpg"" style=""width: 300px; height: 300px;"" />
              </div>","null",""
"","","","","","html-keyboard-response","30","244637","0.0-30.0","07075B0841D641F6A74B75F9294BC9A7","e32ad446-3f53-40e8-bf18-850b3c9a4842","683bf07d-1a26-40b1-9cff-5abdc1eed0ee","","null","<div style=""display: flex; justify-content: center; align-items: center;"">
                <img src=""images/causal/causal_series_5/causal_series_5_b.jpg"" style=""width: 300px; height: 300px;"" />
              </div>","null",""
"","","","","","html-keyboard-response","31","247641","0.0-31.0","07075B0841D641F6A74B75F9294BC9A7","e32ad446-3f53-40e8-bf18-850b3c9a4842","683bf07d-1a26-40b1-9cff-5abdc1eed0ee","","null","<div style=""display: flex; justify-content: center; align-items: center;"">
                <img src=""images/causal/causal_series_5/causal_series_5_c.jpg"" style=""width: 300px; height: 300px;"" />
              </div>","null",""
"","","","","","html-button-response","32","248805","0.0-32.0","07075B0841D641F6A74B75F9294BC9A7","e32ad446-3f53-40e8-bf18-850b3c9a4842","683bf07d-1a26-40b1-9cff-5abdc1eed0ee","","1164","
    <div style=""display: flex; justify-content: center; align-items: center;"">
      <img src=""images/red_deck_2.png"" style=""width: 300px; height: 300px; margin-right: 10px;"" />
      <img src=""images/blue_deck_1.png"" style=""width: 300px; height: 300px;"" />
    </div>","1","1"
"","","","","","html-keyboard-response","33","251810","0.0-33.0-1.0-0.0","07075B0841D641F6A74B75F9294BC9A7","e32ad446-3f53-40e8-bf18-850b3c9a4842","683bf07d-1a26-40b1-9cff-5abdc1eed0ee","","null","<div style=""display: flex; justify-content: center; align-items: center;"">
                <img src=""images/semantic/semantic_series_4/semantic_series_4_d.jpg"" style=""width: 300px; height: 300px;"" />
              </div>","null",""
"","","","","","html-keyboard-response","34","254822","0.0-34.0","07075B0841D641F6A74B75F9294BC9A7","e32ad446-3f53-40e8-bf18-850b3c9a4842","683bf07d-1a26-40b1-9cff-5abdc1eed0ee","","null","<div style=""display: flex; justify-content: center; align-items: center;"">
                <img src=""images/other/blank.jpg"" style=""width: 300px; height: 300px;"" />
              </div>","null",""
"","","","","","html-keyboard-response","35","257829","0.0-35.0","07075B0841D641F6A74B75F9294BC9A7","e32ad446-3f53-40e8-bf18-850b3c9a4842","683bf07d-1a26-40b1-9cff-5abdc1eed0ee","","null","<div style=""display: flex; justify-content: center; align-items: center;"">
                <img src=""images/causal/causal_series_8/causal_series_8_a.jpg"" style=""width: 300px; height: 300px;"" />
              </div>","null",""
"","","","","","html-keyboard-response","36","260831","0.0-36.0","07075B0841D641F6A74B75F9294BC9A7","e32ad446-3f53-40e8-bf18-850b3c9a4842","683bf07d-1a26-40b1-9cff-5abdc1eed0ee","","null","<div style=""display: flex; justify-content: center; align-items: center;"">
                <img src=""images/causal/causal_series_8/causal_series_8_b.jpg"" style=""width: 300px; height: 300px;"" />
              </div>","null",""
"","","","","","html-keyboard-response","37","263834","0.0-37.0","07075B0841D641F6A74B75F9294BC9A7","e32ad446-3f53-40e8-bf18-850b3c9a4842","683bf07d-1a26-40b1-9cff-5abdc1eed0ee","","null","<div style=""display: flex; justify-content: center; align-items: center;"">
                <img src=""images/causal/causal_series_8/causal_series_8_c.jpg"" style=""width: 300px; height: 300px;"" />
              </div>","null",""
"","","","","","html-button-response","38","270404","0.0-38.0","07075B0841D641F6A74B75F9294BC9A7","e32ad446-3f53-40e8-bf18-850b3c9a4842","683bf07d-1a26-40b1-9cff-5abdc1eed0ee","","6570","
    <div style=""display: flex; justify-content: center; align-items: center;"">
      <img src=""images/red_deck_2.png"" style=""width: 300px; height: 300px; margin-right: 10px;"" />
      <img src=""images/blue_deck_1.png"" style=""width: 300px; height: 300px;"" />
    </div>","0","0"
"","","","","","html-keyboard-response","39","273411","0.0-39.0-0.0-0.0","07075B0841D641F6A74B75F9294BC9A7","e32ad446-3f53-40e8-bf18-850b3c9a4842","683bf07d-1a26-40b1-9cff-5abdc1eed0ee","","null","<div style=""display: flex; justify-content: center; align-items: center;"">
                <img src=""images/causal/causal_series_8/causal_series_8_d.jpg"" style=""width: 300px; height: 300px;"" />
              </div>","null",""
"","","","","","html-keyboard-response","40","276426","0.0-40.0","07075B0841D641F6A74B75F9294BC9A7","e32ad446-3f53-40e8-bf18-850b3c9a4842","683bf07d-1a26-40b1-9cff-5abdc1eed0ee","","null","<div style=""display: flex; justify-content: center; align-items: center;"">
                <img src=""images/other/blank.jpg"" style=""width: 300px; height: 300px;"" />
              </div>","null",""
"","","","","","html-keyboard-response","41","279441","0.0-41.0","07075B0841D641F6A74B75F9294BC9A7","e32ad446-3f53-40e8-bf18-850b3c9a4842","683bf07d-1a26-40b1-9cff-5abdc1eed0ee","","null","<div style=""display: flex; justify-content: center; align-items: center;"">
                <img src=""images/causal/causal_series_15/causal_series_15_a.jpg"" style=""width: 300px; height: 300px;"" />
              </div>","null",""
"","","","","","html-keyboard-response","42","282456","0.0-42.0","07075B0841D641F6A74B75F9294BC9A7","e32ad446-3f53-40e8-bf18-850b3c9a4842","683bf07d-1a26-40b1-9cff-5abdc1eed0ee","","null","<div style=""display: flex; justify-content: center; align-items: center;"">
                <img src=""images/causal/causal_series_15/causal_series_15_b.jpg"" style=""width: 300px; height: 300px;"" />
              </div>","null",""
"","","","","","html-keyboard-response","43","285458","0.0-43.0","07075B0841D641F6A74B75F9294BC9A7","e32ad446-3f53-40e8-bf18-850b3c9a4842","683bf07d-1a26-40b1-9cff-5abdc1eed0ee","","null","<div style=""display: flex; justify-content: center; align-items: center;"">
                <img src=""images/causal/causal_series_15/causal_series_15_c.jpg"" style=""width: 300px; height: 300px;"" />
              </div>","null",""
"","","","","","html-button-response","44","287023","0.0-44.0","07075B0841D641F6A74B75F9294BC9A7","e32ad446-3f53-40e8-bf18-850b3c9a4842","683bf07d-1a26-40b1-9cff-5abdc1eed0ee","","1565","
    <div style=""display: flex; justify-content: center; align-items: center;"">
      <img src=""images/red_deck_2.png"" style=""width: 300px; height: 300px; margin-right: 10px;"" />
      <img src=""images/blue_deck_1.png"" style=""width: 300px; height: 300px;"" />
    </div>","1","1"
"","","","","","html-keyboard-response","45","290024","0.0-45.0-1.0-0.0","07075B0841D641F6A74B75F9294BC9A7","e32ad446-3f53-40e8-bf18-850b3c9a4842","683bf07d-1a26-40b1-9cff-5abdc1eed0ee","","null","<div style=""display: flex; justify-content: center; align-items: center;"">
                <img src=""images/semantic/semantic_series_14/semantic_series_14_d.jpg"" style=""width: 300px; height: 300px;"" />
              </div>","null",""
"","","","","","html-keyboard-response","46","293024","0.0-46.0","07075B0841D641F6A74B75F9294BC9A7","e32ad446-3f53-40e8-bf18-850b3c9a4842","683bf07d-1a26-40b1-9cff-5abdc1eed0ee","","null","<div style=""display: flex; justify-content: center; align-items: center;"">
                <img src=""images/other/blank.jpg"" style=""width: 300px; height: 300px;"" />
              </div>","null",""
"","","","","","html-keyboard-response","47","296036","0.0-47.0","07075B0841D641F6A74B75F9294BC9A7","e32ad446-3f53-40e8-bf18-850b3c9a4842","683bf07d-1a26-40b1-9cff-5abdc1eed0ee","","null","<div style=""display: flex; justify-content: center; align-items: center;"">
                <img src=""images/causal/causal_series_16/causal_series_16_a.jpg"" style=""width: 300px; height: 300px;"" />
              </div>","null",""
"","","","","","html-keyboard-response","48","299046","0.0-48.0","07075B0841D641F6A74B75F9294BC9A7","e32ad446-3f53-40e8-bf18-850b3c9a4842","683bf07d-1a26-40b1-9cff-5abdc1eed0ee","","null","<div style=""display: flex; justify-content: center; align-items: center;"">
                <img src=""images/causal/causal_series_16/causal_series_16_b.jpg"" style=""width: 300px; height: 300px;"" />
              </div>","null",""
"","","","","","html-keyboard-response","49","302060","0.0-49.0","07075B0841D641F6A74B75F9294BC9A7","e32ad446-3f53-40e8-bf18-850b3c9a4842","683bf07d-1a26-40b1-9cff-5abdc1eed0ee","","null","<div style=""display: flex; justify-content: center; align-items: center;"">
                <img src=""images/causal/causal_series_16/causal_series_16_c.jpg"" style=""width: 300px; height: 300px;"" />
              </div>","null",""
"","","","","","html-button-response","50","304152","0.0-50.0","07075B0841D641F6A74B75F9294BC9A7","e32ad446-3f53-40e8-bf18-850b3c9a4842","683bf07d-1a26-40b1-9cff-5abdc1eed0ee","","2091","
    <div style=""display: flex; justify-content: center; align-items: center;"">
      <img src=""images/red_deck_2.png"" style=""width: 300px; height: 300px; margin-right: 10px;"" />
      <img src=""images/blue_deck_1.png"" style=""width: 300px; height: 300px;"" />
    </div>","0","0"
"","","","","","html-keyboard-response","51","307165","0.0-51.0-0.0-0.0","07075B0841D641F6A74B75F9294BC9A7","e32ad446-3f53-40e8-bf18-850b3c9a4842","683bf07d-1a26-40b1-9cff-5abdc1eed0ee","","null","<div style=""display: flex; justify-content: center; align-items: center;"">
                <img src=""images/causal/causal_series_16/causal_series_16_d.jpg"" style=""width: 300px; height: 300px;"" />
              </div>","null",""
"","","","","","html-keyboard-response","52","310173","0.0-52.0","07075B0841D641F6A74B75F9294BC9A7","e32ad446-3f53-40e8-bf18-850b3c9a4842","683bf07d-1a26-40b1-9cff-5abdc1eed0ee","","null","<div style=""display: flex; justify-content: center; align-items: center;"">
                <img src=""images/other/blank.jpg"" style=""width: 300px; height: 300px;"" />
              </div>","null",""
"","","","","","html-keyboard-response","53","313177","0.0-53.0","07075B0841D641F6A74B75F9294BC9A7","e32ad446-3f53-40e8-bf18-850b3c9a4842","683bf07d-1a26-40b1-9cff-5abdc1eed0ee","","null","<div style=""display: flex; justify-content: center; align-items: center;"">
                <img src=""images/causal/causal_series_18/causal_series_18_a.jpg"" style=""width: 300px; height: 300px;"" />
              </div>","null",""
"","","","","","html-keyboard-response","54","316180","0.0-54.0","07075B0841D641F6A74B75F9294BC9A7","e32ad446-3f53-40e8-bf18-850b3c9a4842","683bf07d-1a26-40b1-9cff-5abdc1eed0ee","","null","<div style=""display: flex; justify-content: center; align-items: center;"">
                <img src=""images/causal/causal_series_18/causal_series_18_b.jpg"" style=""width: 300px; height: 300px;"" />
              </div>","null",""
"","","","","","html-keyboard-response","55","319193","0.0-55.0","07075B0841D641F6A74B75F9294BC9A7","e32ad446-3f53-40e8-bf18-850b3c9a4842","683bf07d-1a26-40b1-9cff-5abdc1eed0ee","","null","<div style=""display: flex; justify-content: center; align-items: center;"">
                <img src=""images/causal/causal_series_18/causal_series_18_c.jpg"" style=""width: 300px; height: 300px;"" />
              </div>","null",""
"","","","","","html-button-response","56","321558","0.0-56.0","07075B0841D641F6A74B75F9294BC9A7","e32ad446-3f53-40e8-bf18-850b3c9a4842","683bf07d-1a26-40b1-9cff-5abdc1eed0ee","","2365","
    <div style=""display: flex; justify-content: center; align-items: center;"">
      <img src=""images/red_deck_2.png"" style=""width: 300px; height: 300px; margin-right: 10px;"" />
      <img src=""images/blue_deck_1.png"" style=""width: 300px; height: 300px;"" />
    </div>","0","0"
"","","","","","html-keyboard-response","57","324570","0.0-57.0-0.0-0.0","07075B0841D641F6A74B75F9294BC9A7","e32ad446-3f53-40e8-bf18-850b3c9a4842","683bf07d-1a26-40b1-9cff-5abdc1eed0ee","","null","<div style=""display: flex; justify-content: center; align-items: center;"">
                <img src=""images/causal/causal_series_18/causal_series_18_d.jpg"" style=""width: 300px; height: 300px;"" />
              </div>","null",""
"","","","","","html-keyboard-response","58","327571","0.0-58.0","07075B0841D641F6A74B75F9294BC9A7","e32ad446-3f53-40e8-bf18-850b3c9a4842","683bf07d-1a26-40b1-9cff-5abdc1eed0ee","","null","<div style=""display: flex; justify-content: center; align-items: center;"">
                <img src=""images/other/blank.jpg"" style=""width: 300px; height: 300px;"" />
              </div>","null",""
"","","","","","html-keyboard-response","59","330573","0.0-59.0","07075B0841D641F6A74B75F9294BC9A7","e32ad446-3f53-40e8-bf18-850b3c9a4842","683bf07d-1a26-40b1-9cff-5abdc1eed0ee","","null","<div style=""display: flex; justify-content: center; align-items: center;"">
                <img src=""images/causal/causal_series_17/causal_series_17_a.jpg"" style=""width: 300px; height: 300px;"" />
              </div>","null",""
"","","","","","html-keyboard-response","60","333588","0.0-60.0","07075B0841D641F6A74B75F9294BC9A7","e32ad446-3f53-40e8-bf18-850b3c9a4842","683bf07d-1a26-40b1-9cff-5abdc1eed0ee","","null","<div style=""display: flex; justify-content: center; align-items: center;"">
                <img src=""images/causal/causal_series_17/causal_series_17_b.jpg"" style=""width: 300px; height: 300px;"" />
              </div>","null",""
"","","","","","html-keyboard-response","61","336601","0.0-61.0","07075B0841D641F6A74B75F9294BC9A7","e32ad446-3f53-40e8-bf18-850b3c9a4842","683bf07d-1a26-40b1-9cff-5abdc1eed0ee","","null","<div style=""display: flex; justify-content: center; align-items: center;"">
                <img src=""images/causal/causal_series_17/causal_series_17_c.jpg"" style=""width: 300px; height: 300px;"" />
              </div>","null",""
"","","","","","html-button-response","62","356090","0.0-62.0","07075B0841D641F6A74B75F9294BC9A7","e32ad446-3f53-40e8-bf18-850b3c9a4842","683bf07d-1a26-40b1-9cff-5abdc1eed0ee","","19489","
    <div style=""display: flex; justify-content: center; align-items: center;"">
      <img src=""images/red_deck_2.png"" style=""width: 300px; height: 300px; margin-right: 10px;"" />
      <img src=""images/blue_deck_1.png"" style=""width: 300px; height: 300px;"" />
    </div>","1","1"
"","","","","","html-keyboard-response","63","359100","0.0-63.0-1.0-0.0","07075B0841D641F6A74B75F9294BC9A7","e32ad446-3f53-40e8-bf18-850b3c9a4842","683bf07d-1a26-40b1-9cff-5abdc1eed0ee","","null","<div style=""display: flex; justify-content: center; align-items: center;"">
                <img src=""images/semantic/semantic_series_16/semantic_series_16_d.jpg"" style=""width: 300px; height: 300px;"" />
              </div>","null",""
"","","","","","html-keyboard-response","64","362114","0.0-64.0","07075B0841D641F6A74B75F9294BC9A7","e32ad446-3f53-40e8-bf18-850b3c9a4842","683bf07d-1a26-40b1-9cff-5abdc1eed0ee","","null","<div style=""display: flex; justify-content: center; align-items: center;"">
                <img src=""images/other/blank.jpg"" style=""width: 300px; height: 300px;"" />
              </div>","null",""
"","","","","","html-keyboard-response","65","365119","0.0-65.0","07075B0841D641F6A74B75F9294BC9A7","e32ad446-3f53-40e8-bf18-850b3c9a4842","683bf07d-1a26-40b1-9cff-5abdc1eed0ee","","null","<div style=""display: flex; justify-content: center; align-items: center;"">
                <img src=""images/causal/causal_series_1/causal_series_1_a.jpg"" style=""width: 300px; height: 300px;"" />
              </div>","null",""
"","","","","","html-keyboard-response","66","368125","0.0-66.0","07075B0841D641F6A74B75F9294BC9A7","e32ad446-3f53-40e8-bf18-850b3c9a4842","683bf07d-1a26-40b1-9cff-5abdc1eed0ee","","null","<div style=""display: flex; justify-content: center; align-items: center;"">
                <img src=""images/causal/causal_series_1/causal_series_1_b.jpg"" style=""width: 300px; height: 300px;"" />
              </div>","null",""
"","","","","","html-keyboard-response","67","371128","0.0-67.0","07075B0841D641F6A74B75F9294BC9A7","e32ad446-3f53-40e8-bf18-850b3c9a4842","683bf07d-1a26-40b1-9cff-5abdc1eed0ee","","null","<div style=""display: flex; justify-content: center; align-items: center;"">
                <img src=""images/causal/causal_series_1/causal_series_1_c.jpg"" style=""width: 300px; height: 300px;"" />
              </div>","null",""
"","","","","","html-button-response","68","386039","0.0-68.0","07075B0841D641F6A74B75F9294BC9A7","e32ad446-3f53-40e8-bf18-850b3c9a4842","683bf07d-1a26-40b1-9cff-5abdc1eed0ee","","14911","
    <div style=""display: flex; justify-content: center; align-items: center;"">
      <img src=""images/red_deck_2.png"" style=""width: 300px; height: 300px; margin-right: 10px;"" />
      <img src=""images/blue_deck_1.png"" style=""width: 300px; height: 300px;"" />
    </div>","1","1"
"","","","","","html-keyboard-response","69","389050","0.0-69.0-1.0-0.0","07075B0841D641F6A74B75F9294BC9A7","e32ad446-3f53-40e8-bf18-850b3c9a4842","683bf07d-1a26-40b1-9cff-5abdc1eed0ee","","null","<div style=""display: flex; justify-content: center; align-items: center;"">
                <img src=""images/semantic/semantic_series_18/semantic_series_18_d.jpg"" style=""width: 300px; height: 300px;"" />
              </div>","null",""
"","","","","","html-keyboard-response","70","392056","0.0-70.0","07075B0841D641F6A74B75F9294BC9A7","e32ad446-3f53-40e8-bf18-850b3c9a4842","683bf07d-1a26-40b1-9cff-5abdc1eed0ee","","null","<div style=""display: flex; justify-content: center; align-items: center;"">
                <img src=""images/other/blank.jpg"" style=""width: 300px; height: 300px;"" />
              </div>","null",""
"","","","","","html-keyboard-response","71","395072","0.0-71.0","07075B0841D641F6A74B75F9294BC9A7","e32ad446-3f53-40e8-bf18-850b3c9a4842","683bf07d-1a26-40b1-9cff-5abdc1eed0ee","","null","<div style=""display: flex; justify-content: center; align-items: center;"">
                <img src=""images/causal/causal_series_3/causal_series_3_a.jpg"" style=""width: 300px; height: 300px;"" />
              </div>","null",""
"","","","","","html-keyboard-response","72","398084","0.0-72.0","07075B0841D641F6A74B75F9294BC9A7","e32ad446-3f53-40e8-bf18-850b3c9a4842","683bf07d-1a26-40b1-9cff-5abdc1eed0ee","","null","<div style=""display: flex; justify-content: center; align-items: center;"">
                <img src=""images/causal/causal_series_3/causal_series_3_b.jpg"" style=""width: 300px; height: 300px;"" />
              </div>","null",""
"","","","","","html-keyboard-response","73","401088","0.0-73.0","07075B0841D641F6A74B75F9294BC9A7","e32ad446-3f53-40e8-bf18-850b3c9a4842","683bf07d-1a26-40b1-9cff-5abdc1eed0ee","","null","<div style=""display: flex; justify-content: center; align-items: center;"">
                <img src=""images/causal/causal_series_3/causal_series_3_c.jpg"" style=""width: 300px; height: 300px;"" />
              </div>","null",""
"","","","","","html-button-response","74","418379","0.0-74.0","07075B0841D641F6A74B75F9294BC9A7","e32ad446-3f53-40e8-bf18-850b3c9a4842","683bf07d-1a26-40b1-9cff-5abdc1eed0ee","","17291","
    <div style=""display: flex; justify-content: center; align-items: center;"">
      <img src=""images/red_deck_2.png"" style=""width: 300px; height: 300px; margin-right: 10px;"" />
      <img src=""images/blue_deck_1.png"" style=""width: 300px; height: 300px;"" />
    </div>","1","1"
"","","","","","html-keyboard-response","75","421391","0.0-75.0-1.0-0.0","07075B0841D641F6A74B75F9294BC9A7","e32ad446-3f53-40e8-bf18-850b3c9a4842","683bf07d-1a26-40b1-9cff-5abdc1eed0ee","","null","<div style=""display: flex; justify-content: center; align-items: center;"">
                <img src=""images/semantic/semantic_series_2/semantic_series_2_d.jpg"" style=""width: 300px; height: 300px;"" />
              </div>","null",""
"","","","","","html-keyboard-response","76","424401","0.0-76.0","07075B0841D641F6A74B75F9294BC9A7","e32ad446-3f53-40e8-bf18-850b3c9a4842","683bf07d-1a26-40b1-9cff-5abdc1eed0ee","","null","<div style=""display: flex; justify-content: center; align-items: center;"">
                <img src=""images/other/blank.jpg"" style=""width: 300px; height: 300px;"" />
              </div>","null",""
"","","","","","html-keyboard-response","77","427408","0.0-77.0","07075B0841D641F6A74B75F9294BC9A7","e32ad446-3f53-40e8-bf18-850b3c9a4842","683bf07d-1a26-40b1-9cff-5abdc1eed0ee","","null","<div style=""display: flex; justify-content: center; align-items: center;"">
                <img src=""images/causal/causal_series_14/causal_series_14_a.jpg"" style=""width: 300px; height: 300px;"" />
              </div>","null",""
"","","","","","html-keyboard-response","78","430421","0.0-78.0","07075B0841D641F6A74B75F9294BC9A7","e32ad446-3f53-40e8-bf18-850b3c9a4842","683bf07d-1a26-40b1-9cff-5abdc1eed0ee","","null","<div style=""display: flex; justify-content: center; align-items: center;"">
                <img src=""images/causal/causal_series_14/causal_series_14_b.jpg"" style=""width: 300px; height: 300px;"" />
              </div>","null",""
"","","","","","html-keyboard-response","79","433429","0.0-79.0","07075B0841D641F6A74B75F9294BC9A7","e32ad446-3f53-40e8-bf18-850b3c9a4842","683bf07d-1a26-40b1-9cff-5abdc1eed0ee","","null","<div style=""display: flex; justify-content: center; align-items: center;"">
                <img src=""images/causal/causal_series_14/causal_series_14_c.jpg"" style=""width: 300px; height: 300px;"" />
              </div>","null",""
"","","","","","html-button-response","80","472891","0.0-80.0","07075B0841D641F6A74B75F9294BC9A7","e32ad446-3f53-40e8-bf18-850b3c9a4842","683bf07d-1a26-40b1-9cff-5abdc1eed0ee","","39461","
    <div style=""display: flex; justify-content: center; align-items: center;"">
      <img src=""images/red_deck_2.png"" style=""width: 300px; height: 300px; margin-right: 10px;"" />
      <img src=""images/blue_deck_1.png"" style=""width: 300px; height: 300px;"" />
    </div>","0","0"
"","","","","","html-keyboard-response","81","475903","0.0-81.0-0.0-0.0","07075B0841D641F6A74B75F9294BC9A7","e32ad446-3f53-40e8-bf18-850b3c9a4842","683bf07d-1a26-40b1-9cff-5abdc1eed0ee","","null","<div style=""display: flex; justify-content: center; align-items: center;"">
                <img src=""images/causal/causal_series_14/causal_series_14_d.jpg"" style=""width: 300px; height: 300px;"" />
              </div>","null",""
"","","","","","html-keyboard-response","82","478914","0.0-82.0","07075B0841D641F6A74B75F9294BC9A7","e32ad446-3f53-40e8-bf18-850b3c9a4842","683bf07d-1a26-40b1-9cff-5abdc1eed0ee","","null","<div style=""display: flex; justify-content: center; align-items: center;"">
                <img src=""images/other/blank.jpg"" style=""width: 300px; height: 300px;"" />
              </div>","null",""
"","","","","","html-keyboard-response","83","481929","0.0-83.0","07075B0841D641F6A74B75F9294BC9A7","e32ad446-3f53-40e8-bf18-850b3c9a4842","683bf07d-1a26-40b1-9cff-5abdc1eed0ee","","null","<div style=""display: flex; justify-content: center; align-items: center;"">
                <img src=""images/causal/causal_series_9/causal_series_9_a.jpg"" style=""width: 300px; height: 300px;"" />
              </div>","null",""
"","","","","","html-keyboard-response","84","484938","0.0-84.0","07075B0841D641F6A74B75F9294BC9A7","e32ad446-3f53-40e8-bf18-850b3c9a4842","683bf07d-1a26-40b1-9cff-5abdc1eed0ee","","null","<div style=""display: flex; justify-content: center; align-items: center;"">
                <img src=""images/causal/causal_series_9/causal_series_9_b.jpg"" style=""width: 300px; height: 300px;"" />
              </div>","null",""
"","","","","","html-keyboard-response","85","487942","0.0-85.0","07075B0841D641F6A74B75F9294BC9A7","e32ad446-3f53-40e8-bf18-850b3c9a4842","683bf07d-1a26-40b1-9cff-5abdc1eed0ee","","null","<div style=""display: flex; justify-content: center; align-items: center;"">
                <img src=""images/causal/causal_series_9/causal_series_9_c.jpg"" style=""width: 300px; height: 300px;"" />
              </div>","null",""
"","","","","","html-button-response","86","489924","0.0-86.0","07075B0841D641F6A74B75F9294BC9A7","e32ad446-3f53-40e8-bf18-850b3c9a4842","683bf07d-1a26-40b1-9cff-5abdc1eed0ee","","1982","
    <div style=""display: flex; justify-content: center; align-items: center;"">
      <img src=""images/red_deck_2.png"" style=""width: 300px; height: 300px; margin-right: 10px;"" />
      <img src=""images/blue_deck_1.png"" style=""width: 300px; height: 300px;"" />
    </div>","1","1"
"","","","","","html-keyboard-response","87","492933","0.0-87.0-1.0-0.0","07075B0841D641F6A74B75F9294BC9A7","e32ad446-3f53-40e8-bf18-850b3c9a4842","683bf07d-1a26-40b1-9cff-5abdc1eed0ee","","null","<div style=""display: flex; justify-content: center; align-items: center;"">
                <img src=""images/semantic/semantic_series_8/semantic_series_8_d.jpg"" style=""width: 300px; height: 300px;"" />
              </div>","null",""
"","","","","","html-keyboard-response","88","495936","0.0-88.0","07075B0841D641F6A74B75F9294BC9A7","e32ad446-3f53-40e8-bf18-850b3c9a4842","683bf07d-1a26-40b1-9cff-5abdc1eed0ee","","null","<div style=""display: flex; justify-content: center; align-items: center;"">
                <img src=""images/other/blank.jpg"" style=""width: 300px; height: 300px;"" />
              </div>","null",""
"","","","","","html-keyboard-response","89","498942","0.0-89.0","07075B0841D641F6A74B75F9294BC9A7","e32ad446-3f53-40e8-bf18-850b3c9a4842","683bf07d-1a26-40b1-9cff-5abdc1eed0ee","","null","<div style=""display: flex; justify-content: center; align-items: center;"">
                <img src=""images/causal/causal_series_7/causal_series_7_a.jpg"" style=""width: 300px; height: 300px;"" />
              </div>","null",""
"","","","","","html-keyboard-response","90","501950","0.0-90.0","07075B0841D641F6A74B75F9294BC9A7","e32ad446-3f53-40e8-bf18-850b3c9a4842","683bf07d-1a26-40b1-9cff-5abdc1eed0ee","","null","<div style=""display: flex; justify-content: center; align-items: center;"">
                <img src=""images/causal/causal_series_7/causal_series_7_b.jpg"" style=""width: 300px; height: 300px;"" />
              </div>","null",""
"","","","","","html-keyboard-response","91","504952","0.0-91.0","07075B0841D641F6A74B75F9294BC9A7","e32ad446-3f53-40e8-bf18-850b3c9a4842","683bf07d-1a26-40b1-9cff-5abdc1eed0ee","","null","<div style=""display: flex; justify-content: center; align-items: center;"">
                <img src=""images/causal/causal_series_7/causal_series_7_c.jpg"" style=""width: 300px; height: 300px;"" />
              </div>","null",""
"","","","","","html-button-response","92","555571","0.0-92.0","07075B0841D641F6A74B75F9294BC9A7","e32ad446-3f53-40e8-bf18-850b3c9a4842","683bf07d-1a26-40b1-9cff-5abdc1eed0ee","","50618","
    <div style=""display: flex; justify-content: center; align-items: center;"">
      <img src=""images/red_deck_2.png"" style=""width: 300px; height: 300px; margin-right: 10px;"" />
      <img src=""images/blue_deck_1.png"" style=""width: 300px; height: 300px;"" />
    </div>","0","0"
"","","","","","html-keyboard-response","93","558575","0.0-93.0-0.0-0.0","07075B0841D641F6A74B75F9294BC9A7","e32ad446-3f53-40e8-bf18-850b3c9a4842","683bf07d-1a26-40b1-9cff-5abdc1eed0ee","","null","<div style=""display: flex; justify-content: center; align-items: center;"">
                <img src=""images/causal/causal_series_7/causal_series_7_d.jpg"" style=""width: 300px; height: 300px;"" />
              </div>","null",""
"","","","","","html-keyboard-response","94","561588","0.0-94.0","07075B0841D641F6A74B75F9294BC9A7","e32ad446-3f53-40e8-bf18-850b3c9a4842","683bf07d-1a26-40b1-9cff-5abdc1eed0ee","","null","<div style=""display: flex; justify-content: center; align-items: center;"">
                <img src=""images/other/blank.jpg"" style=""width: 300px; height: 300px;"" />
              </div>","null",""
"","","","","","html-keyboard-response","95","564589","0.0-95.0","07075B0841D641F6A74B75F9294BC9A7","e32ad446-3f53-40e8-bf18-850b3c9a4842","683bf07d-1a26-40b1-9cff-5abdc1eed0ee","","null","<div style=""display: flex; justify-content: center; align-items: center;"">
                <img src=""images/causal/causal_series_11/causal_series_11_a.jpg"" style=""width: 300px; height: 300px;"" />
              </div>","null",""
"","","","","","html-keyboard-response","96","567594","0.0-96.0","07075B0841D641F6A74B75F9294BC9A7","e32ad446-3f53-40e8-bf18-850b3c9a4842","683bf07d-1a26-40b1-9cff-5abdc1eed0ee","","null","<div style=""display: flex; justify-content: center; align-items: center;"">
                <img src=""images/causal/causal_series_11/causal_series_11_b.jpg"" style=""width: 300px; height: 300px;"" />
              </div>","null",""
"","","","","","html-keyboard-response","97","570601","0.0-97.0","07075B0841D641F6A74B75F9294BC9A7","e32ad446-3f53-40e8-bf18-850b3c9a4842","683bf07d-1a26-40b1-9cff-5abdc1eed0ee","","null","<div style=""display: flex; justify-content: center; align-items: center;"">
                <img src=""images/causal/causal_series_11/causal_series_11_c.jpg"" style=""width: 300px; height: 300px;"" />
              </div>","null",""
"","","","","","html-button-response","98","620089","0.0-98.0","07075B0841D641F6A74B75F9294BC9A7","e32ad446-3f53-40e8-bf18-850b3c9a4842","683bf07d-1a26-40b1-9cff-5abdc1eed0ee","","49488","
    <div style=""display: flex; justify-content: center; align-items: center;"">
      <img src=""images/red_deck_2.png"" style=""width: 300px; height: 300px; margin-right: 10px;"" />
      <img src=""images/blue_deck_1.png"" style=""width: 300px; height: 300px;"" />
    </div>","0","0"
"","","","","","html-keyboard-response","99","623095","0.0-99.0-0.0-0.0","07075B0841D641F6A74B75F9294BC9A7","e32ad446-3f53-40e8-bf18-850b3c9a4842","683bf07d-1a26-40b1-9cff-5abdc1eed0ee","","null","<div style=""display: flex; justify-content: center; align-items: center;"">
                <img src=""images/causal/causal_series_11/causal_series_11_d.jpg"" style=""width: 300px; height: 300px;"" />
              </div>","null",""
"","","","","","html-keyboard-response","100","626099","0.0-100.0","07075B0841D641F6A74B75F9294BC9A7","e32ad446-3f53-40e8-bf18-850b3c9a4842","683bf07d-1a26-40b1-9cff-5abdc1eed0ee","","null","<div style=""display: flex; justify-content: center; align-items: center;"">
                <img src=""images/other/blank.jpg"" style=""width: 300px; height: 300px;"" />
              </div>","null",""
"","","","","","html-keyboard-response","101","629103","0.0-101.0","07075B0841D641F6A74B75F9294BC9A7","e32ad446-3f53-40e8-bf18-850b3c9a4842","683bf07d-1a26-40b1-9cff-5abdc1eed0ee","","null","<div style=""display: flex; justify-content: center; align-items: center;"">
                <img src=""images/causal/causal_series_13/causal_series_13_a.jpg"" style=""width: 300px; height: 300px;"" />
              </div>","null",""
"","","","","","html-keyboard-response","102","632105","0.0-102.0","07075B0841D641F6A74B75F9294BC9A7","e32ad446-3f53-40e8-bf18-850b3c9a4842","683bf07d-1a26-40b1-9cff-5abdc1eed0ee","","null","<div style=""display: flex; justify-content: center; align-items: center;"">
                <img src=""images/causal/causal_series_13/causal_series_13_b.jpg"" style=""width: 300px; height: 300px;"" />
              </div>","null",""
"","","","","","html-keyboard-response","103","635109","0.0-103.0","07075B0841D641F6A74B75F9294BC9A7","e32ad446-3f53-40e8-bf18-850b3c9a4842","683bf07d-1a26-40b1-9cff-5abdc1eed0ee","","null","<div style=""display: flex; justify-content: center; align-items: center;"">
                <img src=""images/causal/causal_series_13/causal_series_13_c.jpg"" style=""width: 300px; height: 300px;"" />
              </div>","null",""
"","","","","","html-button-response","104","658047","0.0-104.0","07075B0841D641F6A74B75F9294BC9A7","e32ad446-3f53-40e8-bf18-850b3c9a4842","683bf07d-1a26-40b1-9cff-5abdc1eed0ee","","22937","
    <div style=""display: flex; justify-content: center; align-items: center;"">
      <img src=""images/red_deck_2.png"" style=""width: 300px; height: 300px; margin-right: 10px;"" />
      <img src=""images/blue_deck_1.png"" style=""width: 300px; height: 300px;"" />
    </div>","1","1"
"","","","","","html-keyboard-response","105","661051","0.0-105.0-1.0-0.0","07075B0841D641F6A74B75F9294BC9A7","e32ad446-3f53-40e8-bf18-850b3c9a4842","683bf07d-1a26-40b1-9cff-5abdc1eed0ee","","null","<div style=""display: flex; justify-content: center; align-items: center;"">
                <img src=""images/semantic/semantic_series_12/semantic_series_12_d.jpg"" style=""width: 300px; height: 300px;"" />
              </div>","null",""
"","","","","","html-keyboard-response","106","664061","0.0-106.0","07075B0841D641F6A74B75F9294BC9A7","e32ad446-3f53-40e8-bf18-850b3c9a4842","683bf07d-1a26-40b1-9cff-5abdc1eed0ee","","null","<div style=""display: flex; justify-content: center; align-items: center;"">
                <img src=""images/other/blank.jpg"" style=""width: 300px; height: 300px;"" />
              </div>","null",""
"","","","","","html-keyboard-response","107","667072","0.0-107.0","07075B0841D641F6A74B75F9294BC9A7","e32ad446-3f53-40e8-bf18-850b3c9a4842","683bf07d-1a26-40b1-9cff-5abdc1eed0ee","","null","<div style=""display: flex; justify-content: center; align-items: center;"">
                <img src=""images/causal/causal_series_6/causal_series_6_a.jpg"" style=""width: 300px; height: 300px;"" />
              </div>","null",""
"","","","","","html-keyboard-response","108","670085","0.0-108.0","07075B0841D641F6A74B75F9294BC9A7","e32ad446-3f53-40e8-bf18-850b3c9a4842","683bf07d-1a26-40b1-9cff-5abdc1eed0ee","","null","<div style=""display: flex; justify-content: center; align-items: center;"">
                <img src=""images/causal/causal_series_6/causal_series_6_b.jpg"" style=""width: 300px; height: 300px;"" />
              </div>","null",""
"","","","","","html-keyboard-response","109","673089","0.0-109.0","07075B0841D641F6A74B75F9294BC9A7","e32ad446-3f53-40e8-bf18-850b3c9a4842","683bf07d-1a26-40b1-9cff-5abdc1eed0ee","","null","<div style=""display: flex; justify-content: center; align-items: center;"">
                <img src=""images/causal/causal_series_6/causal_series_6_c.jpg"" style=""width: 300px; height: 300px;"" />
              </div>","null",""
"","","","","","html-button-response","110","674814","0.0-110.0","07075B0841D641F6A74B75F9294BC9A7","e32ad446-3f53-40e8-bf18-850b3c9a4842","683bf07d-1a26-40b1-9cff-5abdc1eed0ee","","1724","
    <div style=""display: flex; justify-content: center; align-items: center;"">
      <img src=""images/red_deck_2.png"" style=""width: 300px; height: 300px; margin-right: 10px;"" />
      <img src=""images/blue_deck_1.png"" style=""width: 300px; height: 300px;"" />
    </div>","0","0"
"","","","","","html-keyboard-response","111","677826","0.0-111.0-0.0-0.0","07075B0841D641F6A74B75F9294BC9A7","e32ad446-3f53-40e8-bf18-850b3c9a4842","683bf07d-1a26-40b1-9cff-5abdc1eed0ee","","null","<div style=""display: flex; justify-content: center; align-items: center;"">
                <img src=""images/causal/causal_series_6/causal_series_6_d.jpg"" style=""width: 300px; height: 300px;"" />
              </div>","null",""
"","","","","","html-keyboard-response","112","680839","0.0-112.0","07075B0841D641F6A74B75F9294BC9A7","e32ad446-3f53-40e8-bf18-850b3c9a4842","683bf07d-1a26-40b1-9cff-5abdc1eed0ee","","null","<div style=""display: flex; justify-content: center; align-items: center;"">
                <img src=""images/other/blank.jpg"" style=""width: 300px; height: 300px;"" />
              </div>","null",""
"","","","","","survey-text","113","694117","0.0-113.0","07075B0841D641F6A74B75F9294BC9A7","e32ad446-3f53-40e8-bf18-850b3c9a4842","683bf07d-1a26-40b1-9cff-5abdc1eed0ee","","13276","","{""Q0"":""One is red and one is blue""}",""
"","","","","","survey-text","114","705080","0.0-114.0","07075B0841D641F6A74B75F9294BC9A7","e32ad446-3f53-40e8-bf18-850b3c9a4842","683bf07d-1a26-40b1-9cff-5abdc1eed0ee","","10962","","{""Q0"":""Neither were interesting.""}",""
"","","","","","html-button-response","115","710562","0.0-115.0","07075B0841D641F6A74B75F9294BC9A7","e32ad446-3f53-40e8-bf18-850b3c9a4842","683bf07d-1a26-40b1-9cff-5abdc1eed0ee","","5482","Which color deck does the fourth image continue the story from the series?","1",""
"","","","","","html-button-response","116","712514","0.0-116.0","07075B0841D641F6A74B75F9294BC9A7","e32ad446-3f53-40e8-bf18-850b3c9a4842","683bf07d-1a26-40b1-9cff-5abdc1eed0ee","","1951","Which color deck does the fourth image not follow the story from the series?","0",""
"","","","","","survey-text","117","721178","0.0-117.0","07075B0841D641F6A74B75F9294BC9A7","e32ad446-3f53-40e8-bf18-850b3c9a4842","683bf07d-1a26-40b1-9cff-5abdc1eed0ee","","8662","","{""Q0"":""Male"",""Q1"":""18""}",""
"","","","","","instructions","118","723986","0.0-118.0","07075B0841D641F6A74B75F9294BC9A7","e32ad446-3f53-40e8-bf18-850b3c9a4842","683bf07d-1a26-40b1-9cff-5abdc1eed0ee","[{""page_index"":0,""viewing_time"":2807}]","2807","","",""
