"success","timeout","failed_images","failed_audio","failed_video","trial_type","trial_index","time_elapsed","internal_node_id","subject_id","study_id","session_id","view_history","rt","stimulus","response","series","repetition","phase","choice","question_order"
"true","false","[]","[]","[]","preload","0","1349","0.0-0.0","28C4118F93FA44A0AE045B872A3B4E49","0199dba4-5016-78a6-b62e-2b2a21ad6114","0199dba2-79c8-7e9d-9c1e-4c8d6614b755","","","","","","","","",""
"","","","","","instructions","1","7837","0.0-1.0","28C4118F93FA44A0AE045B872A3B4E49","0199dba4-5016-78a6-b62e-2b2a21ad6114","0199dba2-79c8-7e9d-9c1e-4c8d6614b755","[{""page_index"":0,""viewing_time"":6488}]","6488","","","","","","",""
"","","","","","instructions","2","12556","0.0-2.0","28C4118F93FA44A0AE045B872A3B4E49","0199dba4-5016-78a6-b62e-2b2a21ad6114","0199dba2-79c8-7e9d-9c1e-4c8d6614b755","[{""page_index"":0,""viewing_time"":4719}]","4719","","","","","","",""
"true","","","","","fullscreen","3","15987","0.0-3.0","28C4118F93FA44A0AE045B872A3B4E49","0199dba4-5016-78a6-b62e-2b2a21ad6114","0199dba2-79c8-7e9d-9c1e-4c8d6614b755","","2416","","","","","","",""
"","","","","","instructions","4","29292","0.0-4.0","28C4118F93FA44A0AE045B872A3B4E49","0199dba4-5016-78a6-b62e-2b2a21ad6114","0199dba2-79c8-7e9d-9c1e-4c8d6614b755","[{""page_index"":0,""viewing_time"":13305}]","13305","","","","","","",""
"","","","","","html-keyboard-response","5","35296","0.0-5.0","28C4118F93FA44A0AE045B872A3B4E49","0199dba4-5016-78a6-b62e-2b2a21ad6114","0199dba2-79c8-7e9d-9c1e-4c8d6614b755","","null","<div style=""display: flex; justify-content: center; align-items: center;"">
                     <img src=""images/causal/causal_series_8/causal_series_8_a.png"" style=""width: 300px; height: 300px;"" />
                   </div>","null","8","1","A","",""
"","","","","","html-keyboard-response","6","41310","0.0-6.0","28C4118F93FA44A0AE045B872A3B4E49","0199dba4-5016-78a6-b62e-2b2a21ad6114","0199dba2-79c8-7e9d-9c1e-4c8d6614b755","","null","<div style=""display: flex; justify-content: center; align-items: center;"">
                     <img src=""images/causal/causal_series_8/causal_series_8_b.png"" style=""width: 300px; height: 300px;"" />
                   </div>","null","8","1","B","",""
"","","","","","html-keyboard-response","7","47317","0.0-7.0","28C4118F93FA44A0AE045B872A3B4E49","0199dba4-5016-78a6-b62e-2b2a21ad6114","0199dba2-79c8-7e9d-9c1e-4c8d6614b755","","null","<div style=""display: flex; justify-content: center; align-items: center;"">
                     <img src=""images/causal/causal_series_8/causal_series_8_c.png"" style=""width: 300px; height: 300px;"" />
                   </div>","null","8","1","C","",""
"","","","","","html-button-response","8","50780","0.0-8.0","28C4118F93FA44A0AE045B872A3B4E49","0199dba4-5016-78a6-b62e-2b2a21ad6114","0199dba2-79c8-7e9d-9c1e-4c8d6614b755","","3462","
        <div style=""display: flex; justify-content: center; align-items: center;"">
          <img src=""images/red_deck_2.png"" style=""width: 300px; height: 300px; margin-right: 10px;"" />
          <img src=""images/blue_deck_1.png"" style=""width: 300px; height: 300px;"" />
        </div>","1","8","1","choice","1",""
"","","","","","html-keyboard-response","9","56794","0.0-9.0-1.0-0.0","28C4118F93FA44A0AE045B872A3B4E49","0199dba4-5016-78a6-b62e-2b2a21ad6114","0199dba2-79c8-7e9d-9c1e-4c8d6614b755","","null","<div style=""display: flex; justify-content: center; align-items: center;"">
                     <img src=""images/semantic/semantic_series_8/semantic_series_8_d.png"" style=""width: 300px; height: 300px;"" />
                   </div>","null","8","1","D","",""
"","","","","","survey-likert","10","59541","0.0-10.0","28C4118F93FA44A0AE045B872A3B4E49","0199dba4-5016-78a6-b62e-2b2a21ad6114","0199dba2-79c8-7e9d-9c1e-4c8d6614b755","","2746","","{""Q0"":1}","8","1","surprise_rating","","[0]"
"","","","","","survey-likert","11","61707","0.0-11.0","28C4118F93FA44A0AE045B872A3B4E49","0199dba4-5016-78a6-b62e-2b2a21ad6114","0199dba2-79c8-7e9d-9c1e-4c8d6614b755","","2166","","{""Q0"":1}","8","1","enjoyment_rating","","[0]"
"","","","","","html-keyboard-response","12","67724","0.0-12.0","28C4118F93FA44A0AE045B872A3B4E49","0199dba4-5016-78a6-b62e-2b2a21ad6114","0199dba2-79c8-7e9d-9c1e-4c8d6614b755","","null","<div style=""display: flex; justify-content: center; align-items: center;"">
                     <img src=""images/other/blank.png"" style=""width: 300px; height: 300px;"" />
                   </div>","null","0","0","blank","",""
"","","","","","html-keyboard-response","13","73748","0.0-13.0","28C4118F93FA44A0AE045B872A3B4E49","0199dba4-5016-78a6-b62e-2b2a21ad6114","0199dba2-79c8-7e9d-9c1e-4c8d6614b755","","null","<div style=""display: flex; justify-content: center; align-items: center;"">
                     <img src=""images/causal/causal_series_3/causal_series_3_a.png"" style=""width: 300px; height: 300px;"" />
                   </div>","null","3","1","A","",""
"","","","","","html-keyboard-response","14","79764","0.0-14.0","28C4118F93FA44A0AE045B872A3B4E49","0199dba4-5016-78a6-b62e-2b2a21ad6114","0199dba2-79c8-7e9d-9c1e-4c8d6614b755","","null","<div style=""display: flex; justify-content: center; align-items: center;"">
                     <img src=""images/causal/causal_series_3/causal_series_3_b.png"" style=""width: 300px; height: 300px;"" />
                   </div>","null","3","1","B","",""
"","","","","","html-keyboard-response","15","85779","0.0-15.0","28C4118F93FA44A0AE045B872A3B4E49","0199dba4-5016-78a6-b62e-2b2a21ad6114","0199dba2-79c8-7e9d-9c1e-4c8d6614b755","","null","<div style=""display: flex; justify-content: center; align-items: center;"">
                     <img src=""images/causal/causal_series_3/causal_series_3_c.png"" style=""width: 300px; height: 300px;"" />
                   </div>","null","3","1","C","",""
"","","","","","html-button-response","16","88882","0.0-16.0","28C4118F93FA44A0AE045B872A3B4E49","0199dba4-5016-78a6-b62e-2b2a21ad6114","0199dba2-79c8-7e9d-9c1e-4c8d6614b755","","3102","
        <div style=""display: flex; justify-content: center; align-items: center;"">
          <img src=""images/red_deck_2.png"" style=""width: 300px; height: 300px; margin-right: 10px;"" />
          <img src=""images/blue_deck_1.png"" style=""width: 300px; height: 300px;"" />
        </div>","1","3","1","choice","1",""
"","","","","","html-keyboard-response","17","94894","0.0-17.0-1.0-0.0","28C4118F93FA44A0AE045B872A3B4E49","0199dba4-5016-78a6-b62e-2b2a21ad6114","0199dba2-79c8-7e9d-9c1e-4c8d6614b755","","null","<div style=""display: flex; justify-content: center; align-items: center;"">
                     <img src=""images/semantic/semantic_series_3/semantic_series_3_d.png"" style=""width: 300px; height: 300px;"" />
                   </div>","null","3","1","D","",""
"","","","","","survey-likert","18","96970","0.0-18.0","28C4118F93FA44A0AE045B872A3B4E49","0199dba4-5016-78a6-b62e-2b2a21ad6114","0199dba2-79c8-7e9d-9c1e-4c8d6614b755","","2076","","{""Q0"":1}","3","1","surprise_rating","","[0]"
"","","","","","survey-likert","19","99290","0.0-19.0","28C4118F93FA44A0AE045B872A3B4E49","0199dba4-5016-78a6-b62e-2b2a21ad6114","0199dba2-79c8-7e9d-9c1e-4c8d6614b755","","2319","","{""Q0"":3}","3","1","enjoyment_rating","","[0]"
"","","","","","html-keyboard-response","20","105295","0.0-20.0","28C4118F93FA44A0AE045B872A3B4E49","0199dba4-5016-78a6-b62e-2b2a21ad6114","0199dba2-79c8-7e9d-9c1e-4c8d6614b755","","null","<div style=""display: flex; justify-content: center; align-items: center;"">
                     <img src=""images/other/blank.png"" style=""width: 300px; height: 300px;"" />
                   </div>","null","0","0","blank","",""
"","","","","","html-keyboard-response","21","111296","0.0-21.0","28C4118F93FA44A0AE045B872A3B4E49","0199dba4-5016-78a6-b62e-2b2a21ad6114","0199dba2-79c8-7e9d-9c1e-4c8d6614b755","","null","<div style=""display: flex; justify-content: center; align-items: center;"">
                     <img src=""images/causal/causal_series_2/causal_series_2_a.png"" style=""width: 300px; height: 300px;"" />
                   </div>","null","2","1","A","",""
"","","","","","html-keyboard-response","22","117309","0.0-22.0","28C4118F93FA44A0AE045B872A3B4E49","0199dba4-5016-78a6-b62e-2b2a21ad6114","0199dba2-79c8-7e9d-9c1e-4c8d6614b755","","null","<div style=""display: flex; justify-content: center; align-items: center;"">
                     <img src=""images/causal/causal_series_2/causal_series_2_b.png"" style=""width: 300px; height: 300px;"" />
                   </div>","null","2","1","B","",""
"","","","","","html-keyboard-response","23","123311","0.0-23.0","28C4118F93FA44A0AE045B872A3B4E49","0199dba4-5016-78a6-b62e-2b2a21ad6114","0199dba2-79c8-7e9d-9c1e-4c8d6614b755","","null","<div style=""display: flex; justify-content: center; align-items: center;"">
                     <img src=""images/causal/causal_series_2/causal_series_2_c.png"" style=""width: 300px; height: 300px;"" />
                   </div>","null","2","1","C","",""
"","","","","","html-button-response","24","125730","0.0-24.0","28C4118F93FA44A0AE045B872A3B4E49","0199dba4-5016-78a6-b62e-2b2a21ad6114","0199dba2-79c8-7e9d-9c1e-4c8d6614b755","","2418","
        <div style=""display: flex; justify-content: center; align-items: center;"">
          <img src=""images/red_deck_2.png"" style=""width: 300px; height: 300px; margin-right: 10px;"" />
          <img src=""images/blue_deck_1.png"" style=""width: 300px; height: 300px;"" />
        </div>","0","2","1","choice","0",""
"","","","","","html-keyboard-response","25","131730","0.0-25.0-0.0-0.0","28C4118F93FA44A0AE045B872A3B4E49","0199dba4-5016-78a6-b62e-2b2a21ad6114","0199dba2-79c8-7e9d-9c1e-4c8d6614b755","","null","<div style=""display: flex; justify-content: center; align-items: center;"">
                     <img src=""images/causal/causal_series_2/causal_series_2_d.png"" style=""width: 300px; height: 300px;"" />
                   </div>","null","2","1","D","",""
"","","","","","survey-likert","26","137298","0.0-26.0","28C4118F93FA44A0AE045B872A3B4E49","0199dba4-5016-78a6-b62e-2b2a21ad6114","0199dba2-79c8-7e9d-9c1e-4c8d6614b755","","5567","","{""Q0"":3}","2","1","surprise_rating","","[0]"
"","","","","","survey-likert","27","139249","0.0-27.0","28C4118F93FA44A0AE045B872A3B4E49","0199dba4-5016-78a6-b62e-2b2a21ad6114","0199dba2-79c8-7e9d-9c1e-4c8d6614b755","","1951","","{""Q0"":1}","2","1","enjoyment_rating","","[0]"
"","","","","","html-keyboard-response","28","145274","0.0-28.0","28C4118F93FA44A0AE045B872A3B4E49","0199dba4-5016-78a6-b62e-2b2a21ad6114","0199dba2-79c8-7e9d-9c1e-4c8d6614b755","","null","<div style=""display: flex; justify-content: center; align-items: center;"">
                     <img src=""images/other/blank.png"" style=""width: 300px; height: 300px;"" />
                   </div>","null","0","0","blank","",""
"","","","","","html-keyboard-response","29","151279","0.0-29.0","28C4118F93FA44A0AE045B872A3B4E49","0199dba4-5016-78a6-b62e-2b2a21ad6114","0199dba2-79c8-7e9d-9c1e-4c8d6614b755","","null","<div style=""display: flex; justify-content: center; align-items: center;"">
                     <img src=""images/causal/causal_series_10/causal_series_10_a.png"" style=""width: 300px; height: 300px;"" />
                   </div>","null","10","1","A","",""
"","","","","","html-keyboard-response","30","157295","0.0-30.0","28C4118F93FA44A0AE045B872A3B4E49","0199dba4-5016-78a6-b62e-2b2a21ad6114","0199dba2-79c8-7e9d-9c1e-4c8d6614b755","","null","<div style=""display: flex; justify-content: center; align-items: center;"">
                     <img src=""images/causal/causal_series_10/causal_series_10_b.png"" style=""width: 300px; height: 300px;"" />
                   </div>","null","10","1","B","",""
"","","","","","html-keyboard-response","31","163309","0.0-31.0","28C4118F93FA44A0AE045B872A3B4E49","0199dba4-5016-78a6-b62e-2b2a21ad6114","0199dba2-79c8-7e9d-9c1e-4c8d6614b755","","null","<div style=""display: flex; justify-content: center; align-items: center;"">
                     <img src=""images/causal/causal_series_10/causal_series_10_c.png"" style=""width: 300px; height: 300px;"" />
                   </div>","null","10","1","C","",""
"","","","","","html-button-response","32","164288","0.0-32.0","28C4118F93FA44A0AE045B872A3B4E49","0199dba4-5016-78a6-b62e-2b2a21ad6114","0199dba2-79c8-7e9d-9c1e-4c8d6614b755","","978","
        <div style=""display: flex; justify-content: center; align-items: center;"">
          <img src=""images/red_deck_2.png"" style=""width: 300px; height: 300px; margin-right: 10px;"" />
          <img src=""images/blue_deck_1.png"" style=""width: 300px; height: 300px;"" />
        </div>","0","10","1","choice","0",""
"","","","","","html-keyboard-response","33","170295","0.0-33.0-0.0-0.0","28C4118F93FA44A0AE045B872A3B4E49","0199dba4-5016-78a6-b62e-2b2a21ad6114","0199dba2-79c8-7e9d-9c1e-4c8d6614b755","","null","<div style=""display: flex; justify-content: center; align-items: center;"">
                     <img src=""images/causal/causal_series_10/causal_series_10_d.png"" style=""width: 300px; height: 300px;"" />
                   </div>","null","10","1","D","",""
"","","","","","survey-likert","34","172440","0.0-34.0","28C4118F93FA44A0AE045B872A3B4E49","0199dba4-5016-78a6-b62e-2b2a21ad6114","0199dba2-79c8-7e9d-9c1e-4c8d6614b755","","2145","","{""Q0"":0}","10","1","surprise_rating","","[0]"
"","","","","","survey-likert","35","175145","0.0-35.0","28C4118F93FA44A0AE045B872A3B4E49","0199dba4-5016-78a6-b62e-2b2a21ad6114","0199dba2-79c8-7e9d-9c1e-4c8d6614b755","","2703","","{""Q0"":1}","10","1","enjoyment_rating","","[0]"
"","","","","","html-keyboard-response","36","181148","0.0-36.0","28C4118F93FA44A0AE045B872A3B4E49","0199dba4-5016-78a6-b62e-2b2a21ad6114","0199dba2-79c8-7e9d-9c1e-4c8d6614b755","","null","<div style=""display: flex; justify-content: center; align-items: center;"">
                     <img src=""images/other/blank.png"" style=""width: 300px; height: 300px;"" />
                   </div>","null","0","0","blank","",""
"","","","","","html-keyboard-response","37","187164","0.0-37.0","28C4118F93FA44A0AE045B872A3B4E49","0199dba4-5016-78a6-b62e-2b2a21ad6114","0199dba2-79c8-7e9d-9c1e-4c8d6614b755","","null","<div style=""display: flex; justify-content: center; align-items: center;"">
                     <img src=""images/causal/causal_series_9/causal_series_9_a.png"" style=""width: 300px; height: 300px;"" />
                   </div>","null","9","1","A","",""
"","","","","","html-keyboard-response","38","193179","0.0-38.0","28C4118F93FA44A0AE045B872A3B4E49","0199dba4-5016-78a6-b62e-2b2a21ad6114","0199dba2-79c8-7e9d-9c1e-4c8d6614b755","","null","<div style=""display: flex; justify-content: center; align-items: center;"">
                     <img src=""images/causal/causal_series_9/causal_series_9_b.png"" style=""width: 300px; height: 300px;"" />
                   </div>","null","9","1","B","",""
"","","","","","html-keyboard-response","39","199195","0.0-39.0","28C4118F93FA44A0AE045B872A3B4E49","0199dba4-5016-78a6-b62e-2b2a21ad6114","0199dba2-79c8-7e9d-9c1e-4c8d6614b755","","null","<div style=""display: flex; justify-content: center; align-items: center;"">
                     <img src=""images/causal/causal_series_9/causal_series_9_c.png"" style=""width: 300px; height: 300px;"" />
                   </div>","null","9","1","C","",""
"","","","","","html-button-response","40","201648","0.0-40.0","28C4118F93FA44A0AE045B872A3B4E49","0199dba4-5016-78a6-b62e-2b2a21ad6114","0199dba2-79c8-7e9d-9c1e-4c8d6614b755","","2451","
        <div style=""display: flex; justify-content: center; align-items: center;"">
          <img src=""images/red_deck_2.png"" style=""width: 300px; height: 300px; margin-right: 10px;"" />
          <img src=""images/blue_deck_1.png"" style=""width: 300px; height: 300px;"" />
        </div>","0","9","1","choice","0",""
"","","","","","html-keyboard-response","41","207648","0.0-41.0-0.0-0.0","28C4118F93FA44A0AE045B872A3B4E49","0199dba4-5016-78a6-b62e-2b2a21ad6114","0199dba2-79c8-7e9d-9c1e-4c8d6614b755","","null","<div style=""display: flex; justify-content: center; align-items: center;"">
                     <img src=""images/causal/causal_series_9/causal_series_9_d.png"" style=""width: 300px; height: 300px;"" />
                   </div>","null","9","1","D","",""
"","","","","","survey-likert","42","210167","0.0-42.0","28C4118F93FA44A0AE045B872A3B4E49","0199dba4-5016-78a6-b62e-2b2a21ad6114","0199dba2-79c8-7e9d-9c1e-4c8d6614b755","","2519","","{""Q0"":2}","9","1","surprise_rating","","[0]"
"","","","","","survey-likert","43","212215","0.0-43.0","28C4118F93FA44A0AE045B872A3B4E49","0199dba4-5016-78a6-b62e-2b2a21ad6114","0199dba2-79c8-7e9d-9c1e-4c8d6614b755","","2047","","{""Q0"":1}","9","1","enjoyment_rating","","[0]"
"","","","","","html-keyboard-response","44","218223","0.0-44.0","28C4118F93FA44A0AE045B872A3B4E49","0199dba4-5016-78a6-b62e-2b2a21ad6114","0199dba2-79c8-7e9d-9c1e-4c8d6614b755","","null","<div style=""display: flex; justify-content: center; align-items: center;"">
                     <img src=""images/other/blank.png"" style=""width: 300px; height: 300px;"" />
                   </div>","null","0","0","blank","",""
"","","","","","html-keyboard-response","45","224224","0.0-45.0","28C4118F93FA44A0AE045B872A3B4E49","0199dba4-5016-78a6-b62e-2b2a21ad6114","0199dba2-79c8-7e9d-9c1e-4c8d6614b755","","null","<div style=""display: flex; justify-content: center; align-items: center;"">
                     <img src=""images/causal/causal_series_5/causal_series_5_a.png"" style=""width: 300px; height: 300px;"" />
                   </div>","null","5","1","A","",""
"","","","","","html-keyboard-response","46","230230","0.0-46.0","28C4118F93FA44A0AE045B872A3B4E49","0199dba4-5016-78a6-b62e-2b2a21ad6114","0199dba2-79c8-7e9d-9c1e-4c8d6614b755","","null","<div style=""display: flex; justify-content: center; align-items: center;"">
                     <img src=""images/causal/causal_series_5/causal_series_5_b.png"" style=""width: 300px; height: 300px;"" />
                   </div>","null","5","1","B","",""
"","","","","","html-keyboard-response","47","236237","0.0-47.0","28C4118F93FA44A0AE045B872A3B4E49","0199dba4-5016-78a6-b62e-2b2a21ad6114","0199dba2-79c8-7e9d-9c1e-4c8d6614b755","","null","<div style=""display: flex; justify-content: center; align-items: center;"">
                     <img src=""images/causal/causal_series_5/causal_series_5_c.png"" style=""width: 300px; height: 300px;"" />
                   </div>","null","5","1","C","",""
"","","","","","html-button-response","48","238734","0.0-48.0","28C4118F93FA44A0AE045B872A3B4E49","0199dba4-5016-78a6-b62e-2b2a21ad6114","0199dba2-79c8-7e9d-9c1e-4c8d6614b755","","2497","
        <div style=""display: flex; justify-content: center; align-items: center;"">
          <img src=""images/red_deck_2.png"" style=""width: 300px; height: 300px; margin-right: 10px;"" />
          <img src=""images/blue_deck_1.png"" style=""width: 300px; height: 300px;"" />
        </div>","1","5","1","choice","1",""
"","","","","","html-keyboard-response","49","244736","0.0-49.0-1.0-0.0","28C4118F93FA44A0AE045B872A3B4E49","0199dba4-5016-78a6-b62e-2b2a21ad6114","0199dba2-79c8-7e9d-9c1e-4c8d6614b755","","null","<div style=""display: flex; justify-content: center; align-items: center;"">
                     <img src=""images/semantic/semantic_series_5/semantic_series_5_d.png"" style=""width: 300px; height: 300px;"" />
                   </div>","null","5","1","D","",""
"","","","","","survey-likert","50","247494","0.0-50.0","28C4118F93FA44A0AE045B872A3B4E49","0199dba4-5016-78a6-b62e-2b2a21ad6114","0199dba2-79c8-7e9d-9c1e-4c8d6614b755","","2758","","{""Q0"":1}","5","1","surprise_rating","","[0]"
"","","","","","survey-likert","51","250238","0.0-51.0","28C4118F93FA44A0AE045B872A3B4E49","0199dba4-5016-78a6-b62e-2b2a21ad6114","0199dba2-79c8-7e9d-9c1e-4c8d6614b755","","2743","","{""Q0"":1}","5","1","enjoyment_rating","","[0]"
"","","","","","html-keyboard-response","52","256249","0.0-52.0","28C4118F93FA44A0AE045B872A3B4E49","0199dba4-5016-78a6-b62e-2b2a21ad6114","0199dba2-79c8-7e9d-9c1e-4c8d6614b755","","null","<div style=""display: flex; justify-content: center; align-items: center;"">
                     <img src=""images/other/blank.png"" style=""width: 300px; height: 300px;"" />
                   </div>","null","0","0","blank","",""
"","","","","","html-keyboard-response","53","262262","0.0-53.0","28C4118F93FA44A0AE045B872A3B4E49","0199dba4-5016-78a6-b62e-2b2a21ad6114","0199dba2-79c8-7e9d-9c1e-4c8d6614b755","","null","<div style=""display: flex; justify-content: center; align-items: center;"">
                     <img src=""images/causal/causal_series_4/causal_series_4_a.png"" style=""width: 300px; height: 300px;"" />
                   </div>","null","4","1","A","",""
"","","","","","html-keyboard-response","54","268278","0.0-54.0","28C4118F93FA44A0AE045B872A3B4E49","0199dba4-5016-78a6-b62e-2b2a21ad6114","0199dba2-79c8-7e9d-9c1e-4c8d6614b755","","null","<div style=""display: flex; justify-content: center; align-items: center;"">
                     <img src=""images/causal/causal_series_4/causal_series_4_b.png"" style=""width: 300px; height: 300px;"" />
                   </div>","null","4","1","B","",""
"","","","","","html-keyboard-response","55","274291","0.0-55.0","28C4118F93FA44A0AE045B872A3B4E49","0199dba4-5016-78a6-b62e-2b2a21ad6114","0199dba2-79c8-7e9d-9c1e-4c8d6614b755","","null","<div style=""display: flex; justify-content: center; align-items: center;"">
                     <img src=""images/causal/causal_series_4/causal_series_4_c.png"" style=""width: 300px; height: 300px;"" />
                   </div>","null","4","1","C","",""
"","","","","","html-button-response","56","276294","0.0-56.0","28C4118F93FA44A0AE045B872A3B4E49","0199dba4-5016-78a6-b62e-2b2a21ad6114","0199dba2-79c8-7e9d-9c1e-4c8d6614b755","","2002","
        <div style=""display: flex; justify-content: center; align-items: center;"">
          <img src=""images/red_deck_2.png"" style=""width: 300px; height: 300px; margin-right: 10px;"" />
          <img src=""images/blue_deck_1.png"" style=""width: 300px; height: 300px;"" />
        </div>","1","4","1","choice","1",""
"","","","","","html-keyboard-response","57","282299","0.0-57.0-1.0-0.0","28C4118F93FA44A0AE045B872A3B4E49","0199dba4-5016-78a6-b62e-2b2a21ad6114","0199dba2-79c8-7e9d-9c1e-4c8d6614b755","","null","<div style=""display: flex; justify-content: center; align-items: center;"">
                     <img src=""images/semantic/semantic_series_4/semantic_series_4_d.png"" style=""width: 300px; height: 300px;"" />
                   </div>","null","4","1","D","",""
"","","","","","survey-likert","58","284942","0.0-58.0","28C4118F93FA44A0AE045B872A3B4E49","0199dba4-5016-78a6-b62e-2b2a21ad6114","0199dba2-79c8-7e9d-9c1e-4c8d6614b755","","2642","","{""Q0"":3}","4","1","surprise_rating","","[0]"
"","","","","","survey-likert","59","286581","0.0-59.0","28C4118F93FA44A0AE045B872A3B4E49","0199dba4-5016-78a6-b62e-2b2a21ad6114","0199dba2-79c8-7e9d-9c1e-4c8d6614b755","","1639","","{""Q0"":0}","4","1","enjoyment_rating","","[0]"
"","","","","","html-keyboard-response","60","292584","0.0-60.0","28C4118F93FA44A0AE045B872A3B4E49","0199dba4-5016-78a6-b62e-2b2a21ad6114","0199dba2-79c8-7e9d-9c1e-4c8d6614b755","","null","<div style=""display: flex; justify-content: center; align-items: center;"">
                     <img src=""images/other/blank.png"" style=""width: 300px; height: 300px;"" />
                   </div>","null","0","0","blank","",""
"","","","","","html-keyboard-response","61","298595","0.0-61.0","28C4118F93FA44A0AE045B872A3B4E49","0199dba4-5016-78a6-b62e-2b2a21ad6114","0199dba2-79c8-7e9d-9c1e-4c8d6614b755","","null","<div style=""display: flex; justify-content: center; align-items: center;"">
                     <img src=""images/causal/causal_series_1/causal_series_1_a.png"" style=""width: 300px; height: 300px;"" />
                   </div>","null","1","1","A","",""
"","","","","","html-keyboard-response","62","304624","0.0-62.0","28C4118F93FA44A0AE045B872A3B4E49","0199dba4-5016-78a6-b62e-2b2a21ad6114","0199dba2-79c8-7e9d-9c1e-4c8d6614b755","","null","<div style=""display: flex; justify-content: center; align-items: center;"">
                     <img src=""images/causal/causal_series_1/causal_series_1_b.png"" style=""width: 300px; height: 300px;"" />
                   </div>","null","1","1","B","",""
"","","","","","html-keyboard-response","63","310628","0.0-63.0","28C4118F93FA44A0AE045B872A3B4E49","0199dba4-5016-78a6-b62e-2b2a21ad6114","0199dba2-79c8-7e9d-9c1e-4c8d6614b755","","null","<div style=""display: flex; justify-content: center; align-items: center;"">
                     <img src=""images/causal/causal_series_1/causal_series_1_c.png"" style=""width: 300px; height: 300px;"" />
                   </div>","null","1","1","C","",""
"","","","","","html-button-response","64","311732","0.0-64.0","28C4118F93FA44A0AE045B872A3B4E49","0199dba4-5016-78a6-b62e-2b2a21ad6114","0199dba2-79c8-7e9d-9c1e-4c8d6614b755","","1104","
        <div style=""display: flex; justify-content: center; align-items: center;"">
          <img src=""images/red_deck_2.png"" style=""width: 300px; height: 300px; margin-right: 10px;"" />
          <img src=""images/blue_deck_1.png"" style=""width: 300px; height: 300px;"" />
        </div>","1","1","1","choice","1",""
"","","","","","html-keyboard-response","65","317737","0.0-65.0-1.0-0.0","28C4118F93FA44A0AE045B872A3B4E49","0199dba4-5016-78a6-b62e-2b2a21ad6114","0199dba2-79c8-7e9d-9c1e-4c8d6614b755","","null","<div style=""display: flex; justify-content: center; align-items: center;"">
                     <img src=""images/semantic/semantic_series_1/semantic_series_1_d.png"" style=""width: 300px; height: 300px;"" />
                   </div>","null","1","1","D","",""
"","","","","","survey-likert","66","320173","0.0-66.0","28C4118F93FA44A0AE045B872A3B4E49","0199dba4-5016-78a6-b62e-2b2a21ad6114","0199dba2-79c8-7e9d-9c1e-4c8d6614b755","","2435","","{""Q0"":1}","1","1","surprise_rating","","[0]"
"","","","","","survey-likert","67","322124","0.0-67.0","28C4118F93FA44A0AE045B872A3B4E49","0199dba4-5016-78a6-b62e-2b2a21ad6114","0199dba2-79c8-7e9d-9c1e-4c8d6614b755","","1951","","{""Q0"":1}","1","1","enjoyment_rating","","[0]"
"","","","","","html-keyboard-response","68","328137","0.0-68.0","28C4118F93FA44A0AE045B872A3B4E49","0199dba4-5016-78a6-b62e-2b2a21ad6114","0199dba2-79c8-7e9d-9c1e-4c8d6614b755","","null","<div style=""display: flex; justify-content: center; align-items: center;"">
                     <img src=""images/other/blank.png"" style=""width: 300px; height: 300px;"" />
                   </div>","null","0","0","blank","",""
"","","","","","html-keyboard-response","69","334142","0.0-69.0","28C4118F93FA44A0AE045B872A3B4E49","0199dba4-5016-78a6-b62e-2b2a21ad6114","0199dba2-79c8-7e9d-9c1e-4c8d6614b755","","null","<div style=""display: flex; justify-content: center; align-items: center;"">
                     <img src=""images/causal/causal_series_7/causal_series_7_a.png"" style=""width: 300px; height: 300px;"" />
                   </div>","null","7","1","A","",""
"","","","","","html-keyboard-response","70","340151","0.0-70.0","28C4118F93FA44A0AE045B872A3B4E49","0199dba4-5016-78a6-b62e-2b2a21ad6114","0199dba2-79c8-7e9d-9c1e-4c8d6614b755","","null","<div style=""display: flex; justify-content: center; align-items: center;"">
                     <img src=""images/causal/causal_series_7/causal_series_7_b.png"" style=""width: 300px; height: 300px;"" />
                   </div>","null","7","1","B","",""
"","","","","","html-keyboard-response","71","346157","0.0-71.0","28C4118F93FA44A0AE045B872A3B4E49","0199dba4-5016-78a6-b62e-2b2a21ad6114","0199dba2-79c8-7e9d-9c1e-4c8d6614b755","","null","<div style=""display: flex; justify-content: center; align-items: center;"">
                     <img src=""images/causal/causal_series_7/causal_series_7_c.png"" style=""width: 300px; height: 300px;"" />
                   </div>","null","7","1","C","",""
"","","","","","html-button-response","72","348395","0.0-72.0","28C4118F93FA44A0AE045B872A3B4E49","0199dba4-5016-78a6-b62e-2b2a21ad6114","0199dba2-79c8-7e9d-9c1e-4c8d6614b755","","2238","
        <div style=""display: flex; justify-content: center; align-items: center;"">
          <img src=""images/red_deck_2.png"" style=""width: 300px; height: 300px; margin-right: 10px;"" />
          <img src=""images/blue_deck_1.png"" style=""width: 300px; height: 300px;"" />
        </div>","0","7","1","choice","0",""
"","","","","","html-keyboard-response","73","354405","0.0-73.0-0.0-0.0","28C4118F93FA44A0AE045B872A3B4E49","0199dba4-5016-78a6-b62e-2b2a21ad6114","0199dba2-79c8-7e9d-9c1e-4c8d6614b755","","null","<div style=""display: flex; justify-content: center; align-items: center;"">
                     <img src=""images/causal/causal_series_7/causal_series_7_d.png"" style=""width: 300px; height: 300px;"" />
                   </div>","null","7","1","D","",""
"","","","","","survey-likert","74","360611","0.0-74.0","28C4118F93FA44A0AE045B872A3B4E49","0199dba4-5016-78a6-b62e-2b2a21ad6114","0199dba2-79c8-7e9d-9c1e-4c8d6614b755","","6205","","{""Q0"":0}","7","1","surprise_rating","","[0]"
"","","","","","survey-likert","75","361715","0.0-75.0","28C4118F93FA44A0AE045B872A3B4E49","0199dba4-5016-78a6-b62e-2b2a21ad6114","0199dba2-79c8-7e9d-9c1e-4c8d6614b755","","1103","","{""Q0"":0}","7","1","enjoyment_rating","","[0]"
"","","","","","html-keyboard-response","76","367728","0.0-76.0","28C4118F93FA44A0AE045B872A3B4E49","0199dba4-5016-78a6-b62e-2b2a21ad6114","0199dba2-79c8-7e9d-9c1e-4c8d6614b755","","null","<div style=""display: flex; justify-content: center; align-items: center;"">
                     <img src=""images/other/blank.png"" style=""width: 300px; height: 300px;"" />
                   </div>","null","0","0","blank","",""
"","","","","","html-keyboard-response","77","373739","0.0-77.0","28C4118F93FA44A0AE045B872A3B4E49","0199dba4-5016-78a6-b62e-2b2a21ad6114","0199dba2-79c8-7e9d-9c1e-4c8d6614b755","","null","<div style=""display: flex; justify-content: center; align-items: center;"">
                     <img src=""images/causal/causal_series_6/causal_series_6_a.png"" style=""width: 300px; height: 300px;"" />
                   </div>","null","6","1","A","",""
"","","","","","html-keyboard-response","78","379753","0.0-78.0","28C4118F93FA44A0AE045B872A3B4E49","0199dba4-5016-78a6-b62e-2b2a21ad6114","0199dba2-79c8-7e9d-9c1e-4c8d6614b755","","null","<div style=""display: flex; justify-content: center; align-items: center;"">
                     <img src=""images/causal/causal_series_6/causal_series_6_b.png"" style=""width: 300px; height: 300px;"" />
                   </div>","null","6","1","B","",""
"","","","","","html-keyboard-response","79","385760","0.0-79.0","28C4118F93FA44A0AE045B872A3B4E49","0199dba4-5016-78a6-b62e-2b2a21ad6114","0199dba2-79c8-7e9d-9c1e-4c8d6614b755","","null","<div style=""display: flex; justify-content: center; align-items: center;"">
                     <img src=""images/causal/causal_series_6/causal_series_6_c.png"" style=""width: 300px; height: 300px;"" />
                   </div>","null","6","1","C","",""
"","","","","","html-button-response","80","386626","0.0-80.0","28C4118F93FA44A0AE045B872A3B4E49","0199dba4-5016-78a6-b62e-2b2a21ad6114","0199dba2-79c8-7e9d-9c1e-4c8d6614b755","","866","
        <div style=""display: flex; justify-content: center; align-items: center;"">
          <img src=""images/red_deck_2.png"" style=""width: 300px; height: 300px; margin-right: 10px;"" />
          <img src=""images/blue_deck_1.png"" style=""width: 300px; height: 300px;"" />
        </div>","0","6","1","choice","0",""
"","","","","","html-keyboard-response","81","392628","0.0-81.0-0.0-0.0","28C4118F93FA44A0AE045B872A3B4E49","0199dba4-5016-78a6-b62e-2b2a21ad6114","0199dba2-79c8-7e9d-9c1e-4c8d6614b755","","null","<div style=""display: flex; justify-content: center; align-items: center;"">
                     <img src=""images/causal/causal_series_6/causal_series_6_d.png"" style=""width: 300px; height: 300px;"" />
                   </div>","null","6","1","D","",""
"","","","","","survey-likert","82","394450","0.0-82.0","28C4118F93FA44A0AE045B872A3B4E49","0199dba4-5016-78a6-b62e-2b2a21ad6114","0199dba2-79c8-7e9d-9c1e-4c8d6614b755","","1822","","{""Q0"":0}","6","1","surprise_rating","","[0]"
"","","","","","survey-likert","83","396642","0.0-83.0","28C4118F93FA44A0AE045B872A3B4E49","0199dba4-5016-78a6-b62e-2b2a21ad6114","0199dba2-79c8-7e9d-9c1e-4c8d6614b755","","2191","","{""Q0"":1}","6","1","enjoyment_rating","","[0]"
"","","","","","html-keyboard-response","84","402650","0.0-84.0","28C4118F93FA44A0AE045B872A3B4E49","0199dba4-5016-78a6-b62e-2b2a21ad6114","0199dba2-79c8-7e9d-9c1e-4c8d6614b755","","null","<div style=""display: flex; justify-content: center; align-items: center;"">
                     <img src=""images/other/blank.png"" style=""width: 300px; height: 300px;"" />
                   </div>","null","0","0","blank","",""
"","","","","","survey-text","85","427354","0.0-85.0","28C4118F93FA44A0AE045B872A3B4E49","0199dba4-5016-78a6-b62e-2b2a21ad6114","0199dba2-79c8-7e9d-9c1e-4c8d6614b755","","24701","","{""Q0"":""One deck had surprising endings and the other had continuous endings.""}","","","","",""
"","","","","","html-button-response","86","432953","0.0-86.0","28C4118F93FA44A0AE045B872A3B4E49","0199dba4-5016-78a6-b62e-2b2a21ad6114","0199dba2-79c8-7e9d-9c1e-4c8d6614b755","","5599","Which color deck do the following sentences continue the story from?","0","","","","",""
"","","","","","html-button-response","87","434161","0.0-87.0","28C4118F93FA44A0AE045B872A3B4E49","0199dba4-5016-78a6-b62e-2b2a21ad6114","0199dba2-79c8-7e9d-9c1e-4c8d6614b755","","1207","Which color deck do the following sentences NOT follow the story from?","1","","","","",""
"","","","","","html-button-response","88","439706","0.0-88.0","28C4118F93FA44A0AE045B872A3B4E49","0199dba4-5016-78a6-b62e-2b2a21ad6114","0199dba2-79c8-7e9d-9c1e-4c8d6614b755","","5545","Which type of deck did you prefer overall?","0","","","","",""
"","","","","","survey-text","89","446505","0.0-89.0","28C4118F93FA44A0AE045B872A3B4E49","0199dba4-5016-78a6-b62e-2b2a21ad6114","0199dba2-79c8-7e9d-9c1e-4c8d6614b755","","6797","","{""Q0"":""FEMALE"",""Q1"":""27""}","","","","",""
"","","","","","instructions","90","450273","0.0-90.0","28C4118F93FA44A0AE045B872A3B4E49","0199dba4-5016-78a6-b62e-2b2a21ad6114","0199dba2-79c8-7e9d-9c1e-4c8d6614b755","[{""page_index"":0,""viewing_time"":3767}]","3767","","","","","","",""
