"success","timeout","failed_images","failed_audio","failed_video","trial_type","trial_index","time_elapsed","internal_node_id","subject_id","study_id","session_id","view_history","rt","stimulus","response","series","repetition","phase","choice","question_order"
"true","false","[]","[]","[]","preload","0","658","0.0-0.0","BB21DCF13D8147F094E08F1DE0A5833B","0199d5fe-2caa-72a1-92a4-b069b62b1b86","0199d5ef-c7d4-7cab-a194-b2c3afbaf8e8","","","","","","","","",""
"","","","","","instructions","1","3273","0.0-1.0","BB21DCF13D8147F094E08F1DE0A5833B","0199d5fe-2caa-72a1-92a4-b069b62b1b86","0199d5ef-c7d4-7cab-a194-b2c3afbaf8e8","[{""page_index"":0,""viewing_time"":2613}]","2613","","","","","","",""
"","","","","","instructions","2","10545","0.0-2.0","BB21DCF13D8147F094E08F1DE0A5833B","0199d5fe-2caa-72a1-92a4-b069b62b1b86","0199d5ef-c7d4-7cab-a194-b2c3afbaf8e8","[{""page_index"":0,""viewing_time"":7271}]","7272","","","","","","",""
"true","","","","","fullscreen","3","20857","0.0-3.0","BB21DCF13D8147F094E08F1DE0A5833B","0199d5fe-2caa-72a1-92a4-b069b62b1b86","0199d5ef-c7d4-7cab-a194-b2c3afbaf8e8","","9310","","","","","","",""
"","","","","","instructions","4","36319","0.0-4.0","BB21DCF13D8147F094E08F1DE0A5833B","0199d5fe-2caa-72a1-92a4-b069b62b1b86","0199d5ef-c7d4-7cab-a194-b2c3afbaf8e8","[{""page_index"":0,""viewing_time"":15461}]","15461","","","","","","",""
"","","","","","html-keyboard-response","5","42321","0.0-5.0","BB21DCF13D8147F094E08F1DE0A5833B","0199d5fe-2caa-72a1-92a4-b069b62b1b86","0199d5ef-c7d4-7cab-a194-b2c3afbaf8e8","","null","<div style=""display: flex; justify-content: center; align-items: center;"">
                     <img src=""images/causal/causal_series_4/causal_series_4_a.png"" style=""width: 300px; height: 300px;"" />
                   </div>","null","4","2","A","",""
"","","","","","html-keyboard-response","6","48322","0.0-6.0","BB21DCF13D8147F094E08F1DE0A5833B","0199d5fe-2caa-72a1-92a4-b069b62b1b86","0199d5ef-c7d4-7cab-a194-b2c3afbaf8e8","","null","<div style=""display: flex; justify-content: center; align-items: center;"">
                     <img src=""images/causal/causal_series_4/causal_series_4_b.png"" style=""width: 300px; height: 300px;"" />
                   </div>","null","4","2","B","",""
"","","","","","html-keyboard-response","7","54323","0.0-7.0","BB21DCF13D8147F094E08F1DE0A5833B","0199d5fe-2caa-72a1-92a4-b069b62b1b86","0199d5ef-c7d4-7cab-a194-b2c3afbaf8e8","","null","<div style=""display: flex; justify-content: center; align-items: center;"">
                     <img src=""images/causal/causal_series_4/causal_series_4_c.png"" style=""width: 300px; height: 300px;"" />
                   </div>","null","4","2","C","",""
"","","","","","html-button-response","8","57688","0.0-8.0","BB21DCF13D8147F094E08F1DE0A5833B","0199d5fe-2caa-72a1-92a4-b069b62b1b86","0199d5ef-c7d4-7cab-a194-b2c3afbaf8e8","","3363","
        <div style=""display: flex; justify-content: center; align-items: center;"">
          <img src=""images/red_deck_2.png"" style=""width: 300px; height: 300px; margin-right: 10px;"" />
          <img src=""images/blue_deck_1.png"" style=""width: 300px; height: 300px;"" />
        </div>","1","4","2","choice","1",""
"","","","","","html-keyboard-response","9","63690","0.0-9.0-1.0-0.0","BB21DCF13D8147F094E08F1DE0A5833B","0199d5fe-2caa-72a1-92a4-b069b62b1b86","0199d5ef-c7d4-7cab-a194-b2c3afbaf8e8","","null","<div style=""display: flex; justify-content: center; align-items: center;"">
                     <img src=""images/semantic/semantic_series_4/semantic_series_4_d.png"" style=""width: 300px; height: 300px;"" />
                   </div>","null","4","2","D","",""
"","","","","","html-keyboard-response","10","69691","0.0-9.0-1.0-1.0","BB21DCF13D8147F094E08F1DE0A5833B","0199d5fe-2caa-72a1-92a4-b069b62b1b86","0199d5ef-c7d4-7cab-a194-b2c3afbaf8e8","","null","<div style=""display: flex; justify-content: center; align-items: center;"">
                     <img src=""images/semantic/semantic_series_4/semantic_series_4_e.png"" style=""width: 300px; height: 300px;"" />
                   </div>","null","4","2","E","",""
"","","","","","html-keyboard-response","11","75692","0.0-9.0-1.0-2.0","BB21DCF13D8147F094E08F1DE0A5833B","0199d5fe-2caa-72a1-92a4-b069b62b1b86","0199d5ef-c7d4-7cab-a194-b2c3afbaf8e8","","null","<div style=""display: flex; justify-content: center; align-items: center;"">
                     <img src=""images/semantic/semantic_series_4/semantic_series_4_f.png"" style=""width: 300px; height: 300px;"" />
                   </div>","null","4","2","F","",""
"","","","","","survey-likert","12","81116","0.0-10.0","BB21DCF13D8147F094E08F1DE0A5833B","0199d5fe-2caa-72a1-92a4-b069b62b1b86","0199d5ef-c7d4-7cab-a194-b2c3afbaf8e8","","5422","","{""Q0"":3}","4","2","surprise_rating","","[0]"
"","","","","","survey-likert","13","86109","0.0-11.0","BB21DCF13D8147F094E08F1DE0A5833B","0199d5fe-2caa-72a1-92a4-b069b62b1b86","0199d5ef-c7d4-7cab-a194-b2c3afbaf8e8","","4992","","{""Q0"":3}","4","2","enjoyment_rating","","[0]"
"","","","","","html-keyboard-response","14","92111","0.0-12.0","BB21DCF13D8147F094E08F1DE0A5833B","0199d5fe-2caa-72a1-92a4-b069b62b1b86","0199d5ef-c7d4-7cab-a194-b2c3afbaf8e8","","null","<div style=""display: flex; justify-content: center; align-items: center;"">
                     <img src=""images/other/blank.png"" style=""width: 300px; height: 300px;"" />
                   </div>","null","0","0","blank","",""
"","","","","","html-keyboard-response","15","98112","0.0-13.0","BB21DCF13D8147F094E08F1DE0A5833B","0199d5fe-2caa-72a1-92a4-b069b62b1b86","0199d5ef-c7d4-7cab-a194-b2c3afbaf8e8","","null","<div style=""display: flex; justify-content: center; align-items: center;"">
                     <img src=""images/causal/causal_series_7/causal_series_7_a.png"" style=""width: 300px; height: 300px;"" />
                   </div>","null","7","1","A","",""
"","","","","","html-keyboard-response","16","104114","0.0-14.0","BB21DCF13D8147F094E08F1DE0A5833B","0199d5fe-2caa-72a1-92a4-b069b62b1b86","0199d5ef-c7d4-7cab-a194-b2c3afbaf8e8","","null","<div style=""display: flex; justify-content: center; align-items: center;"">
                     <img src=""images/causal/causal_series_7/causal_series_7_b.png"" style=""width: 300px; height: 300px;"" />
                   </div>","null","7","1","B","",""
"","","","","","html-keyboard-response","17","110115","0.0-15.0","BB21DCF13D8147F094E08F1DE0A5833B","0199d5fe-2caa-72a1-92a4-b069b62b1b86","0199d5ef-c7d4-7cab-a194-b2c3afbaf8e8","","null","<div style=""display: flex; justify-content: center; align-items: center;"">
                     <img src=""images/causal/causal_series_7/causal_series_7_c.png"" style=""width: 300px; height: 300px;"" />
                   </div>","null","7","1","C","",""
"","","","","","html-button-response","18","112688","0.0-16.0","BB21DCF13D8147F094E08F1DE0A5833B","0199d5fe-2caa-72a1-92a4-b069b62b1b86","0199d5ef-c7d4-7cab-a194-b2c3afbaf8e8","","2571","
        <div style=""display: flex; justify-content: center; align-items: center;"">
          <img src=""images/red_deck_2.png"" style=""width: 300px; height: 300px; margin-right: 10px;"" />
          <img src=""images/blue_deck_1.png"" style=""width: 300px; height: 300px;"" />
        </div>","1","7","1","choice","1",""
"","","","","","html-keyboard-response","19","118689","0.0-17.0-1.0-0.0","BB21DCF13D8147F094E08F1DE0A5833B","0199d5fe-2caa-72a1-92a4-b069b62b1b86","0199d5ef-c7d4-7cab-a194-b2c3afbaf8e8","","null","<div style=""display: flex; justify-content: center; align-items: center;"">
                     <img src=""images/semantic/semantic_series_7/semantic_series_7_d.png"" style=""width: 300px; height: 300px;"" />
                   </div>","null","7","1","D","",""
"","","","","","html-keyboard-response","20","124691","0.0-17.0-1.0-1.0","BB21DCF13D8147F094E08F1DE0A5833B","0199d5fe-2caa-72a1-92a4-b069b62b1b86","0199d5ef-c7d4-7cab-a194-b2c3afbaf8e8","","null","<div style=""display: flex; justify-content: center; align-items: center;"">
                     <img src=""images/semantic/semantic_series_7/semantic_series_7_e.png"" style=""width: 300px; height: 300px;"" />
                   </div>","null","7","1","E","",""
"","","","","","html-keyboard-response","21","130692","0.0-17.0-1.0-2.0","BB21DCF13D8147F094E08F1DE0A5833B","0199d5fe-2caa-72a1-92a4-b069b62b1b86","0199d5ef-c7d4-7cab-a194-b2c3afbaf8e8","","null","<div style=""display: flex; justify-content: center; align-items: center;"">
                     <img src=""images/semantic/semantic_series_7/semantic_series_7_f.png"" style=""width: 300px; height: 300px;"" />
                   </div>","null","7","1","F","",""
"","","","","","survey-likert","22","134324","0.0-18.0","BB21DCF13D8147F094E08F1DE0A5833B","0199d5fe-2caa-72a1-92a4-b069b62b1b86","0199d5ef-c7d4-7cab-a194-b2c3afbaf8e8","","3631","","{""Q0"":2}","7","1","surprise_rating","","[0]"
"","","","","","survey-likert","23","136768","0.0-19.0","BB21DCF13D8147F094E08F1DE0A5833B","0199d5fe-2caa-72a1-92a4-b069b62b1b86","0199d5ef-c7d4-7cab-a194-b2c3afbaf8e8","","2442","","{""Q0"":1}","7","1","enjoyment_rating","","[0]"
"","","","","","html-keyboard-response","24","142769","0.0-20.0","BB21DCF13D8147F094E08F1DE0A5833B","0199d5fe-2caa-72a1-92a4-b069b62b1b86","0199d5ef-c7d4-7cab-a194-b2c3afbaf8e8","","null","<div style=""display: flex; justify-content: center; align-items: center;"">
                     <img src=""images/other/blank.png"" style=""width: 300px; height: 300px;"" />
                   </div>","null","0","0","blank","",""
"","","","","","html-keyboard-response","25","148770","0.0-21.0","BB21DCF13D8147F094E08F1DE0A5833B","0199d5fe-2caa-72a1-92a4-b069b62b1b86","0199d5ef-c7d4-7cab-a194-b2c3afbaf8e8","","null","<div style=""display: flex; justify-content: center; align-items: center;"">
                     <img src=""images/causal/causal_series_3/causal_series_3_a.png"" style=""width: 300px; height: 300px;"" />
                   </div>","null","3","1","A","",""
"","","","","","html-keyboard-response","26","154772","0.0-22.0","BB21DCF13D8147F094E08F1DE0A5833B","0199d5fe-2caa-72a1-92a4-b069b62b1b86","0199d5ef-c7d4-7cab-a194-b2c3afbaf8e8","","null","<div style=""display: flex; justify-content: center; align-items: center;"">
                     <img src=""images/causal/causal_series_3/causal_series_3_b.png"" style=""width: 300px; height: 300px;"" />
                   </div>","null","3","1","B","",""
"","","","","","html-keyboard-response","27","160773","0.0-23.0","BB21DCF13D8147F094E08F1DE0A5833B","0199d5fe-2caa-72a1-92a4-b069b62b1b86","0199d5ef-c7d4-7cab-a194-b2c3afbaf8e8","","null","<div style=""display: flex; justify-content: center; align-items: center;"">
                     <img src=""images/causal/causal_series_3/causal_series_3_c.png"" style=""width: 300px; height: 300px;"" />
                   </div>","null","3","1","C","",""
"","","","","","html-button-response","28","163140","0.0-24.0","BB21DCF13D8147F094E08F1DE0A5833B","0199d5fe-2caa-72a1-92a4-b069b62b1b86","0199d5ef-c7d4-7cab-a194-b2c3afbaf8e8","","2366","
        <div style=""display: flex; justify-content: center; align-items: center;"">
          <img src=""images/red_deck_2.png"" style=""width: 300px; height: 300px; margin-right: 10px;"" />
          <img src=""images/blue_deck_1.png"" style=""width: 300px; height: 300px;"" />
        </div>","0","3","1","choice","0",""
"","","","","","html-keyboard-response","29","169141","0.0-25.0-0.0-0.0","BB21DCF13D8147F094E08F1DE0A5833B","0199d5fe-2caa-72a1-92a4-b069b62b1b86","0199d5ef-c7d4-7cab-a194-b2c3afbaf8e8","","null","<div style=""display: flex; justify-content: center; align-items: center;"">
                     <img src=""images/causal/causal_series_3/causal_series_3_d.png"" style=""width: 300px; height: 300px;"" />
                   </div>","null","3","1","D","",""
"","","","","","html-keyboard-response","30","175143","0.0-25.0-0.0-1.0","BB21DCF13D8147F094E08F1DE0A5833B","0199d5fe-2caa-72a1-92a4-b069b62b1b86","0199d5ef-c7d4-7cab-a194-b2c3afbaf8e8","","null","<div style=""display: flex; justify-content: center; align-items: center;"">
                     <img src=""images/causal/causal_series_3/causal_series_3_e.png"" style=""width: 300px; height: 300px;"" />
                   </div>","null","3","1","E","",""
"","","","","","html-keyboard-response","31","181144","0.0-25.0-0.0-2.0","BB21DCF13D8147F094E08F1DE0A5833B","0199d5fe-2caa-72a1-92a4-b069b62b1b86","0199d5ef-c7d4-7cab-a194-b2c3afbaf8e8","","null","<div style=""display: flex; justify-content: center; align-items: center;"">
                     <img src=""images/causal/causal_series_3/causal_series_3_f.png"" style=""width: 300px; height: 300px;"" />
                   </div>","null","3","1","F","",""
"","","","","","survey-likert","32","190088","0.0-26.0","BB21DCF13D8147F094E08F1DE0A5833B","0199d5fe-2caa-72a1-92a4-b069b62b1b86","0199d5ef-c7d4-7cab-a194-b2c3afbaf8e8","","8943","","{""Q0"":3}","3","1","surprise_rating","","[0]"
"","","","","","survey-likert","33","193630","0.0-27.0","BB21DCF13D8147F094E08F1DE0A5833B","0199d5fe-2caa-72a1-92a4-b069b62b1b86","0199d5ef-c7d4-7cab-a194-b2c3afbaf8e8","","3540","","{""Q0"":3}","3","1","enjoyment_rating","","[0]"
"","","","","","html-keyboard-response","34","199631","0.0-28.0","BB21DCF13D8147F094E08F1DE0A5833B","0199d5fe-2caa-72a1-92a4-b069b62b1b86","0199d5ef-c7d4-7cab-a194-b2c3afbaf8e8","","null","<div style=""display: flex; justify-content: center; align-items: center;"">
                     <img src=""images/other/blank.png"" style=""width: 300px; height: 300px;"" />
                   </div>","null","0","0","blank","",""
"","","","","","html-keyboard-response","35","205632","0.0-29.0","BB21DCF13D8147F094E08F1DE0A5833B","0199d5fe-2caa-72a1-92a4-b069b62b1b86","0199d5ef-c7d4-7cab-a194-b2c3afbaf8e8","","null","<div style=""display: flex; justify-content: center; align-items: center;"">
                     <img src=""images/causal/causal_series_9/causal_series_9_a.png"" style=""width: 300px; height: 300px;"" />
                   </div>","null","9","1","A","",""
"","","","","","html-keyboard-response","36","211634","0.0-30.0","BB21DCF13D8147F094E08F1DE0A5833B","0199d5fe-2caa-72a1-92a4-b069b62b1b86","0199d5ef-c7d4-7cab-a194-b2c3afbaf8e8","","null","<div style=""display: flex; justify-content: center; align-items: center;"">
                     <img src=""images/causal/causal_series_9/causal_series_9_b.png"" style=""width: 300px; height: 300px;"" />
                   </div>","null","9","1","B","",""
"","","","","","html-keyboard-response","37","217635","0.0-31.0","BB21DCF13D8147F094E08F1DE0A5833B","0199d5fe-2caa-72a1-92a4-b069b62b1b86","0199d5ef-c7d4-7cab-a194-b2c3afbaf8e8","","null","<div style=""display: flex; justify-content: center; align-items: center;"">
                     <img src=""images/causal/causal_series_9/causal_series_9_c.png"" style=""width: 300px; height: 300px;"" />
                   </div>","null","9","1","C","",""
"","","","","","html-button-response","38","220443","0.0-32.0","BB21DCF13D8147F094E08F1DE0A5833B","0199d5fe-2caa-72a1-92a4-b069b62b1b86","0199d5ef-c7d4-7cab-a194-b2c3afbaf8e8","","2806","
        <div style=""display: flex; justify-content: center; align-items: center;"">
          <img src=""images/red_deck_2.png"" style=""width: 300px; height: 300px; margin-right: 10px;"" />
          <img src=""images/blue_deck_1.png"" style=""width: 300px; height: 300px;"" />
        </div>","1","9","1","choice","1",""
"","","","","","html-keyboard-response","39","226444","0.0-33.0-1.0-0.0","BB21DCF13D8147F094E08F1DE0A5833B","0199d5fe-2caa-72a1-92a4-b069b62b1b86","0199d5ef-c7d4-7cab-a194-b2c3afbaf8e8","","null","<div style=""display: flex; justify-content: center; align-items: center;"">
                     <img src=""images/semantic/semantic_series_9/semantic_series_9_d.png"" style=""width: 300px; height: 300px;"" />
                   </div>","null","9","1","D","",""
"","","","","","html-keyboard-response","40","232445","0.0-33.0-1.0-1.0","BB21DCF13D8147F094E08F1DE0A5833B","0199d5fe-2caa-72a1-92a4-b069b62b1b86","0199d5ef-c7d4-7cab-a194-b2c3afbaf8e8","","null","<div style=""display: flex; justify-content: center; align-items: center;"">
                     <img src=""images/semantic/semantic_series_9/semantic_series_9_e.png"" style=""width: 300px; height: 300px;"" />
                   </div>","null","9","1","E","",""
"","","","","","html-keyboard-response","41","238446","0.0-33.0-1.0-2.0","BB21DCF13D8147F094E08F1DE0A5833B","0199d5fe-2caa-72a1-92a4-b069b62b1b86","0199d5ef-c7d4-7cab-a194-b2c3afbaf8e8","","null","<div style=""display: flex; justify-content: center; align-items: center;"">
                     <img src=""images/semantic/semantic_series_9/semantic_series_9_f.png"" style=""width: 300px; height: 300px;"" />
                   </div>","null","9","1","F","",""
"","","","","","survey-likert","42","242271","0.0-34.0","BB21DCF13D8147F094E08F1DE0A5833B","0199d5fe-2caa-72a1-92a4-b069b62b1b86","0199d5ef-c7d4-7cab-a194-b2c3afbaf8e8","","3823","","{""Q0"":3}","9","1","surprise_rating","","[0]"
"","","","","","survey-likert","43","244226","0.0-35.0","BB21DCF13D8147F094E08F1DE0A5833B","0199d5fe-2caa-72a1-92a4-b069b62b1b86","0199d5ef-c7d4-7cab-a194-b2c3afbaf8e8","","1954","","{""Q0"":1}","9","1","enjoyment_rating","","[0]"
"","","","","","html-keyboard-response","44","250228","0.0-36.0","BB21DCF13D8147F094E08F1DE0A5833B","0199d5fe-2caa-72a1-92a4-b069b62b1b86","0199d5ef-c7d4-7cab-a194-b2c3afbaf8e8","","null","<div style=""display: flex; justify-content: center; align-items: center;"">
                     <img src=""images/other/blank.png"" style=""width: 300px; height: 300px;"" />
                   </div>","null","0","0","blank","",""
"","","","","","html-keyboard-response","45","256229","0.0-37.0","BB21DCF13D8147F094E08F1DE0A5833B","0199d5fe-2caa-72a1-92a4-b069b62b1b86","0199d5ef-c7d4-7cab-a194-b2c3afbaf8e8","","null","<div style=""display: flex; justify-content: center; align-items: center;"">
                     <img src=""images/causal/causal_series_5/causal_series_5_a.png"" style=""width: 300px; height: 300px;"" />
                   </div>","null","5","2","A","",""
"","","","","","html-keyboard-response","46","262230","0.0-38.0","BB21DCF13D8147F094E08F1DE0A5833B","0199d5fe-2caa-72a1-92a4-b069b62b1b86","0199d5ef-c7d4-7cab-a194-b2c3afbaf8e8","","null","<div style=""display: flex; justify-content: center; align-items: center;"">
                     <img src=""images/causal/causal_series_5/causal_series_5_b.png"" style=""width: 300px; height: 300px;"" />
                   </div>","null","5","2","B","",""
"","","","","","html-keyboard-response","47","268232","0.0-39.0","BB21DCF13D8147F094E08F1DE0A5833B","0199d5fe-2caa-72a1-92a4-b069b62b1b86","0199d5ef-c7d4-7cab-a194-b2c3afbaf8e8","","null","<div style=""display: flex; justify-content: center; align-items: center;"">
                     <img src=""images/causal/causal_series_5/causal_series_5_c.png"" style=""width: 300px; height: 300px;"" />
                   </div>","null","5","2","C","",""
"","","","","","html-button-response","48","270990","0.0-40.0","BB21DCF13D8147F094E08F1DE0A5833B","0199d5fe-2caa-72a1-92a4-b069b62b1b86","0199d5ef-c7d4-7cab-a194-b2c3afbaf8e8","","2757","
        <div style=""display: flex; justify-content: center; align-items: center;"">
          <img src=""images/red_deck_2.png"" style=""width: 300px; height: 300px; margin-right: 10px;"" />
          <img src=""images/blue_deck_1.png"" style=""width: 300px; height: 300px;"" />
        </div>","0","5","2","choice","0",""
"","","","","","html-keyboard-response","49","276992","0.0-41.0-0.0-0.0","BB21DCF13D8147F094E08F1DE0A5833B","0199d5fe-2caa-72a1-92a4-b069b62b1b86","0199d5ef-c7d4-7cab-a194-b2c3afbaf8e8","","null","<div style=""display: flex; justify-content: center; align-items: center;"">
                     <img src=""images/causal/causal_series_5/causal_series_5_d.png"" style=""width: 300px; height: 300px;"" />
                   </div>","null","5","2","D","",""
"","","","","","html-keyboard-response","50","282993","0.0-41.0-0.0-1.0","BB21DCF13D8147F094E08F1DE0A5833B","0199d5fe-2caa-72a1-92a4-b069b62b1b86","0199d5ef-c7d4-7cab-a194-b2c3afbaf8e8","","null","<div style=""display: flex; justify-content: center; align-items: center;"">
                     <img src=""images/causal/causal_series_5/causal_series_5_e.png"" style=""width: 300px; height: 300px;"" />
                   </div>","null","5","2","E","",""
"","","","","","html-keyboard-response","51","288994","0.0-41.0-0.0-2.0","BB21DCF13D8147F094E08F1DE0A5833B","0199d5fe-2caa-72a1-92a4-b069b62b1b86","0199d5ef-c7d4-7cab-a194-b2c3afbaf8e8","","null","<div style=""display: flex; justify-content: center; align-items: center;"">
                     <img src=""images/causal/causal_series_5/causal_series_5_f.png"" style=""width: 300px; height: 300px;"" />
                   </div>","null","5","2","F","",""
"","","","","","survey-likert","52","292820","0.0-42.0","BB21DCF13D8147F094E08F1DE0A5833B","0199d5fe-2caa-72a1-92a4-b069b62b1b86","0199d5ef-c7d4-7cab-a194-b2c3afbaf8e8","","3825","","{""Q0"":3}","5","2","surprise_rating","","[0]"
"","","","","","survey-likert","53","294784","0.0-43.0","BB21DCF13D8147F094E08F1DE0A5833B","0199d5fe-2caa-72a1-92a4-b069b62b1b86","0199d5ef-c7d4-7cab-a194-b2c3afbaf8e8","","1963","","{""Q0"":3}","5","2","enjoyment_rating","","[0]"
"","","","","","html-keyboard-response","54","300786","0.0-44.0","BB21DCF13D8147F094E08F1DE0A5833B","0199d5fe-2caa-72a1-92a4-b069b62b1b86","0199d5ef-c7d4-7cab-a194-b2c3afbaf8e8","","null","<div style=""display: flex; justify-content: center; align-items: center;"">
                     <img src=""images/other/blank.png"" style=""width: 300px; height: 300px;"" />
                   </div>","null","0","0","blank","",""
"","","","","","html-keyboard-response","55","306787","0.0-45.0","BB21DCF13D8147F094E08F1DE0A5833B","0199d5fe-2caa-72a1-92a4-b069b62b1b86","0199d5ef-c7d4-7cab-a194-b2c3afbaf8e8","","null","<div style=""display: flex; justify-content: center; align-items: center;"">
                     <img src=""images/causal/causal_series_9/causal_series_9_a.png"" style=""width: 300px; height: 300px;"" />
                   </div>","null","9","2","A","",""
"","","","","","html-keyboard-response","56","312788","0.0-46.0","BB21DCF13D8147F094E08F1DE0A5833B","0199d5fe-2caa-72a1-92a4-b069b62b1b86","0199d5ef-c7d4-7cab-a194-b2c3afbaf8e8","","null","<div style=""display: flex; justify-content: center; align-items: center;"">
                     <img src=""images/causal/causal_series_9/causal_series_9_b.png"" style=""width: 300px; height: 300px;"" />
                   </div>","null","9","2","B","",""
"","","","","","html-keyboard-response","57","318788","0.0-47.0","BB21DCF13D8147F094E08F1DE0A5833B","0199d5fe-2caa-72a1-92a4-b069b62b1b86","0199d5ef-c7d4-7cab-a194-b2c3afbaf8e8","","null","<div style=""display: flex; justify-content: center; align-items: center;"">
                     <img src=""images/causal/causal_series_9/causal_series_9_c.png"" style=""width: 300px; height: 300px;"" />
                   </div>","null","9","2","C","",""
"","","","","","html-button-response","58","320482","0.0-48.0","BB21DCF13D8147F094E08F1DE0A5833B","0199d5fe-2caa-72a1-92a4-b069b62b1b86","0199d5ef-c7d4-7cab-a194-b2c3afbaf8e8","","1692","
        <div style=""display: flex; justify-content: center; align-items: center;"">
          <img src=""images/red_deck_2.png"" style=""width: 300px; height: 300px; margin-right: 10px;"" />
          <img src=""images/blue_deck_1.png"" style=""width: 300px; height: 300px;"" />
        </div>","0","9","2","choice","0",""
"","","","","","html-keyboard-response","59","326484","0.0-49.0-0.0-0.0","BB21DCF13D8147F094E08F1DE0A5833B","0199d5fe-2caa-72a1-92a4-b069b62b1b86","0199d5ef-c7d4-7cab-a194-b2c3afbaf8e8","","null","<div style=""display: flex; justify-content: center; align-items: center;"">
                     <img src=""images/causal/causal_series_9/causal_series_9_d.png"" style=""width: 300px; height: 300px;"" />
                   </div>","null","9","2","D","",""
"","","","","","html-keyboard-response","60","332485","0.0-49.0-0.0-1.0","BB21DCF13D8147F094E08F1DE0A5833B","0199d5fe-2caa-72a1-92a4-b069b62b1b86","0199d5ef-c7d4-7cab-a194-b2c3afbaf8e8","","null","<div style=""display: flex; justify-content: center; align-items: center;"">
                     <img src=""images/causal/causal_series_9/causal_series_9_e.png"" style=""width: 300px; height: 300px;"" />
                   </div>","null","9","2","E","",""
"","","","","","html-keyboard-response","61","338486","0.0-49.0-0.0-2.0","BB21DCF13D8147F094E08F1DE0A5833B","0199d5fe-2caa-72a1-92a4-b069b62b1b86","0199d5ef-c7d4-7cab-a194-b2c3afbaf8e8","","null","<div style=""display: flex; justify-content: center; align-items: center;"">
                     <img src=""images/causal/causal_series_9/causal_series_9_f.png"" style=""width: 300px; height: 300px;"" />
                   </div>","null","9","2","F","",""
"","","","","","survey-likert","62","340227","0.0-50.0","BB21DCF13D8147F094E08F1DE0A5833B","0199d5fe-2caa-72a1-92a4-b069b62b1b86","0199d5ef-c7d4-7cab-a194-b2c3afbaf8e8","","1741","","{""Q0"":3}","9","2","surprise_rating","","[0]"
"","","","","","survey-likert","63","342262","0.0-51.0","BB21DCF13D8147F094E08F1DE0A5833B","0199d5fe-2caa-72a1-92a4-b069b62b1b86","0199d5ef-c7d4-7cab-a194-b2c3afbaf8e8","","2033","","{""Q0"":3}","9","2","enjoyment_rating","","[0]"
"","","","","","html-keyboard-response","64","348264","0.0-52.0","BB21DCF13D8147F094E08F1DE0A5833B","0199d5fe-2caa-72a1-92a4-b069b62b1b86","0199d5ef-c7d4-7cab-a194-b2c3afbaf8e8","","null","<div style=""display: flex; justify-content: center; align-items: center;"">
                     <img src=""images/other/blank.png"" style=""width: 300px; height: 300px;"" />
                   </div>","null","0","0","blank","",""
"","","","","","html-keyboard-response","65","354265","0.0-53.0","BB21DCF13D8147F094E08F1DE0A5833B","0199d5fe-2caa-72a1-92a4-b069b62b1b86","0199d5ef-c7d4-7cab-a194-b2c3afbaf8e8","","null","<div style=""display: flex; justify-content: center; align-items: center;"">
                     <img src=""images/causal/causal_series_2/causal_series_2_a.png"" style=""width: 300px; height: 300px;"" />
                   </div>","null","2","1","A","",""
"","","","","","html-keyboard-response","66","360266","0.0-54.0","BB21DCF13D8147F094E08F1DE0A5833B","0199d5fe-2caa-72a1-92a4-b069b62b1b86","0199d5ef-c7d4-7cab-a194-b2c3afbaf8e8","","null","<div style=""display: flex; justify-content: center; align-items: center;"">
                     <img src=""images/causal/causal_series_2/causal_series_2_b.png"" style=""width: 300px; height: 300px;"" />
                   </div>","null","2","1","B","",""
"","","","","","html-keyboard-response","67","366267","0.0-55.0","BB21DCF13D8147F094E08F1DE0A5833B","0199d5fe-2caa-72a1-92a4-b069b62b1b86","0199d5ef-c7d4-7cab-a194-b2c3afbaf8e8","","null","<div style=""display: flex; justify-content: center; align-items: center;"">
                     <img src=""images/causal/causal_series_2/causal_series_2_c.png"" style=""width: 300px; height: 300px;"" />
                   </div>","null","2","1","C","",""
"","","","","","html-button-response","68","368082","0.0-56.0","BB21DCF13D8147F094E08F1DE0A5833B","0199d5fe-2caa-72a1-92a4-b069b62b1b86","0199d5ef-c7d4-7cab-a194-b2c3afbaf8e8","","1813","
        <div style=""display: flex; justify-content: center; align-items: center;"">
          <img src=""images/red_deck_2.png"" style=""width: 300px; height: 300px; margin-right: 10px;"" />
          <img src=""images/blue_deck_1.png"" style=""width: 300px; height: 300px;"" />
        </div>","0","2","1","choice","0",""
"","","","","","html-keyboard-response","69","374083","0.0-57.0-0.0-0.0","BB21DCF13D8147F094E08F1DE0A5833B","0199d5fe-2caa-72a1-92a4-b069b62b1b86","0199d5ef-c7d4-7cab-a194-b2c3afbaf8e8","","null","<div style=""display: flex; justify-content: center; align-items: center;"">
                     <img src=""images/causal/causal_series_2/causal_series_2_d.png"" style=""width: 300px; height: 300px;"" />
                   </div>","null","2","1","D","",""
"","","","","","html-keyboard-response","70","380084","0.0-57.0-0.0-1.0","BB21DCF13D8147F094E08F1DE0A5833B","0199d5fe-2caa-72a1-92a4-b069b62b1b86","0199d5ef-c7d4-7cab-a194-b2c3afbaf8e8","","null","<div style=""display: flex; justify-content: center; align-items: center;"">
                     <img src=""images/causal/causal_series_2/causal_series_2_e.png"" style=""width: 300px; height: 300px;"" />
                   </div>","null","2","1","E","",""
"","","","","","html-keyboard-response","71","386085","0.0-57.0-0.0-2.0","BB21DCF13D8147F094E08F1DE0A5833B","0199d5fe-2caa-72a1-92a4-b069b62b1b86","0199d5ef-c7d4-7cab-a194-b2c3afbaf8e8","","null","<div style=""display: flex; justify-content: center; align-items: center;"">
                     <img src=""images/causal/causal_series_2/causal_series_2_f.png"" style=""width: 300px; height: 300px;"" />
                   </div>","null","2","1","F","",""
"","","","","","survey-likert","72","393235","0.0-58.0","BB21DCF13D8147F094E08F1DE0A5833B","0199d5fe-2caa-72a1-92a4-b069b62b1b86","0199d5ef-c7d4-7cab-a194-b2c3afbaf8e8","","7149","","{""Q0"":2}","2","1","surprise_rating","","[0]"
"","","","","","survey-likert","73","395182","0.0-59.0","BB21DCF13D8147F094E08F1DE0A5833B","0199d5fe-2caa-72a1-92a4-b069b62b1b86","0199d5ef-c7d4-7cab-a194-b2c3afbaf8e8","","1946","","{""Q0"":2}","2","1","enjoyment_rating","","[0]"
"","","","","","html-keyboard-response","74","401184","0.0-60.0","BB21DCF13D8147F094E08F1DE0A5833B","0199d5fe-2caa-72a1-92a4-b069b62b1b86","0199d5ef-c7d4-7cab-a194-b2c3afbaf8e8","","null","<div style=""display: flex; justify-content: center; align-items: center;"">
                     <img src=""images/other/blank.png"" style=""width: 300px; height: 300px;"" />
                   </div>","null","0","0","blank","",""
"","","","","","html-keyboard-response","75","407185","0.0-61.0","BB21DCF13D8147F094E08F1DE0A5833B","0199d5fe-2caa-72a1-92a4-b069b62b1b86","0199d5ef-c7d4-7cab-a194-b2c3afbaf8e8","","null","<div style=""display: flex; justify-content: center; align-items: center;"">
                     <img src=""images/causal/causal_series_4/causal_series_4_a.png"" style=""width: 300px; height: 300px;"" />
                   </div>","null","4","1","A","",""
"","","","","","html-keyboard-response","76","413186","0.0-62.0","BB21DCF13D8147F094E08F1DE0A5833B","0199d5fe-2caa-72a1-92a4-b069b62b1b86","0199d5ef-c7d4-7cab-a194-b2c3afbaf8e8","","null","<div style=""display: flex; justify-content: center; align-items: center;"">
                     <img src=""images/causal/causal_series_4/causal_series_4_b.png"" style=""width: 300px; height: 300px;"" />
                   </div>","null","4","1","B","",""
"","","","","","html-keyboard-response","77","419187","0.0-63.0","BB21DCF13D8147F094E08F1DE0A5833B","0199d5fe-2caa-72a1-92a4-b069b62b1b86","0199d5ef-c7d4-7cab-a194-b2c3afbaf8e8","","null","<div style=""display: flex; justify-content: center; align-items: center;"">
                     <img src=""images/causal/causal_series_4/causal_series_4_c.png"" style=""width: 300px; height: 300px;"" />
                   </div>","null","4","1","C","",""
"","","","","","html-button-response","78","420976","0.0-64.0","BB21DCF13D8147F094E08F1DE0A5833B","0199d5fe-2caa-72a1-92a4-b069b62b1b86","0199d5ef-c7d4-7cab-a194-b2c3afbaf8e8","","1788","
        <div style=""display: flex; justify-content: center; align-items: center;"">
          <img src=""images/red_deck_2.png"" style=""width: 300px; height: 300px; margin-right: 10px;"" />
          <img src=""images/blue_deck_1.png"" style=""width: 300px; height: 300px;"" />
        </div>","0","4","1","choice","0",""
"","","","","","html-keyboard-response","79","426977","0.0-65.0-0.0-0.0","BB21DCF13D8147F094E08F1DE0A5833B","0199d5fe-2caa-72a1-92a4-b069b62b1b86","0199d5ef-c7d4-7cab-a194-b2c3afbaf8e8","","null","<div style=""display: flex; justify-content: center; align-items: center;"">
                     <img src=""images/causal/causal_series_4/causal_series_4_d.png"" style=""width: 300px; height: 300px;"" />
                   </div>","null","4","1","D","",""
"","","","","","html-keyboard-response","80","432978","0.0-65.0-0.0-1.0","BB21DCF13D8147F094E08F1DE0A5833B","0199d5fe-2caa-72a1-92a4-b069b62b1b86","0199d5ef-c7d4-7cab-a194-b2c3afbaf8e8","","null","<div style=""display: flex; justify-content: center; align-items: center;"">
                     <img src=""images/causal/causal_series_4/causal_series_4_e.png"" style=""width: 300px; height: 300px;"" />
                   </div>","null","4","1","E","",""
"","","","","","html-keyboard-response","81","438979","0.0-65.0-0.0-2.0","BB21DCF13D8147F094E08F1DE0A5833B","0199d5fe-2caa-72a1-92a4-b069b62b1b86","0199d5ef-c7d4-7cab-a194-b2c3afbaf8e8","","null","<div style=""display: flex; justify-content: center; align-items: center;"">
                     <img src=""images/causal/causal_series_4/causal_series_4_f.png"" style=""width: 300px; height: 300px;"" />
                   </div>","null","4","1","F","",""
"","","","","","survey-likert","82","441765","0.0-66.0","BB21DCF13D8147F094E08F1DE0A5833B","0199d5fe-2caa-72a1-92a4-b069b62b1b86","0199d5ef-c7d4-7cab-a194-b2c3afbaf8e8","","2785","","{""Q0"":3}","4","1","surprise_rating","","[0]"
"","","","","","survey-likert","83","443511","0.0-67.0","BB21DCF13D8147F094E08F1DE0A5833B","0199d5fe-2caa-72a1-92a4-b069b62b1b86","0199d5ef-c7d4-7cab-a194-b2c3afbaf8e8","","1745","","{""Q0"":2}","4","1","enjoyment_rating","","[0]"
"","","","","","html-keyboard-response","84","449513","0.0-68.0","BB21DCF13D8147F094E08F1DE0A5833B","0199d5fe-2caa-72a1-92a4-b069b62b1b86","0199d5ef-c7d4-7cab-a194-b2c3afbaf8e8","","null","<div style=""display: flex; justify-content: center; align-items: center;"">
                     <img src=""images/other/blank.png"" style=""width: 300px; height: 300px;"" />
                   </div>","null","0","0","blank","",""
"","","","","","html-keyboard-response","85","455514","0.0-69.0","BB21DCF13D8147F094E08F1DE0A5833B","0199d5fe-2caa-72a1-92a4-b069b62b1b86","0199d5ef-c7d4-7cab-a194-b2c3afbaf8e8","","null","<div style=""display: flex; justify-content: center; align-items: center;"">
                     <img src=""images/causal/causal_series_1/causal_series_1_a.png"" style=""width: 300px; height: 300px;"" />
                   </div>","null","1","2","A","",""
"","","","","","html-keyboard-response","86","461516","0.0-70.0","BB21DCF13D8147F094E08F1DE0A5833B","0199d5fe-2caa-72a1-92a4-b069b62b1b86","0199d5ef-c7d4-7cab-a194-b2c3afbaf8e8","","null","<div style=""display: flex; justify-content: center; align-items: center;"">
                     <img src=""images/causal/causal_series_1/causal_series_1_b.png"" style=""width: 300px; height: 300px;"" />
                   </div>","null","1","2","B","",""
"","","","","","html-keyboard-response","87","467517","0.0-71.0","BB21DCF13D8147F094E08F1DE0A5833B","0199d5fe-2caa-72a1-92a4-b069b62b1b86","0199d5ef-c7d4-7cab-a194-b2c3afbaf8e8","","null","<div style=""display: flex; justify-content: center; align-items: center;"">
                     <img src=""images/causal/causal_series_1/causal_series_1_c.png"" style=""width: 300px; height: 300px;"" />
                   </div>","null","1","2","C","",""
"","","","","","html-button-response","88","468937","0.0-72.0","BB21DCF13D8147F094E08F1DE0A5833B","0199d5fe-2caa-72a1-92a4-b069b62b1b86","0199d5ef-c7d4-7cab-a194-b2c3afbaf8e8","","1419","
        <div style=""display: flex; justify-content: center; align-items: center;"">
          <img src=""images/red_deck_2.png"" style=""width: 300px; height: 300px; margin-right: 10px;"" />
          <img src=""images/blue_deck_1.png"" style=""width: 300px; height: 300px;"" />
        </div>","0","1","2","choice","0",""
"","","","","","html-keyboard-response","89","474939","0.0-73.0-0.0-0.0","BB21DCF13D8147F094E08F1DE0A5833B","0199d5fe-2caa-72a1-92a4-b069b62b1b86","0199d5ef-c7d4-7cab-a194-b2c3afbaf8e8","","null","<div style=""display: flex; justify-content: center; align-items: center;"">
                     <img src=""images/causal/causal_series_1/causal_series_1_d.png"" style=""width: 300px; height: 300px;"" />
                   </div>","null","1","2","D","",""
"","","","","","html-keyboard-response","90","480940","0.0-73.0-0.0-1.0","BB21DCF13D8147F094E08F1DE0A5833B","0199d5fe-2caa-72a1-92a4-b069b62b1b86","0199d5ef-c7d4-7cab-a194-b2c3afbaf8e8","","null","<div style=""display: flex; justify-content: center; align-items: center;"">
                     <img src=""images/causal/causal_series_1/causal_series_1_e.png"" style=""width: 300px; height: 300px;"" />
                   </div>","null","1","2","E","",""
"","","","","","html-keyboard-response","91","486941","0.0-73.0-0.0-2.0","BB21DCF13D8147F094E08F1DE0A5833B","0199d5fe-2caa-72a1-92a4-b069b62b1b86","0199d5ef-c7d4-7cab-a194-b2c3afbaf8e8","","null","<div style=""display: flex; justify-content: center; align-items: center;"">
                     <img src=""images/causal/causal_series_1/causal_series_1_f.png"" style=""width: 300px; height: 300px;"" />
                   </div>","null","1","2","F","",""
"","","","","","survey-likert","92","489973","0.0-74.0","BB21DCF13D8147F094E08F1DE0A5833B","0199d5fe-2caa-72a1-92a4-b069b62b1b86","0199d5ef-c7d4-7cab-a194-b2c3afbaf8e8","","3031","","{""Q0"":3}","1","2","surprise_rating","","[0]"
"","","","","","survey-likert","93","492170","0.0-75.0","BB21DCF13D8147F094E08F1DE0A5833B","0199d5fe-2caa-72a1-92a4-b069b62b1b86","0199d5ef-c7d4-7cab-a194-b2c3afbaf8e8","","2195","","{""Q0"":4}","1","2","enjoyment_rating","","[0]"
"","","","","","html-keyboard-response","94","498171","0.0-76.0","BB21DCF13D8147F094E08F1DE0A5833B","0199d5fe-2caa-72a1-92a4-b069b62b1b86","0199d5ef-c7d4-7cab-a194-b2c3afbaf8e8","","null","<div style=""display: flex; justify-content: center; align-items: center;"">
                     <img src=""images/other/blank.png"" style=""width: 300px; height: 300px;"" />
                   </div>","null","0","0","blank","",""
"","","","","","html-keyboard-response","95","504172","0.0-77.0","BB21DCF13D8147F094E08F1DE0A5833B","0199d5fe-2caa-72a1-92a4-b069b62b1b86","0199d5ef-c7d4-7cab-a194-b2c3afbaf8e8","","null","<div style=""display: flex; justify-content: center; align-items: center;"">
                     <img src=""images/causal/causal_series_7/causal_series_7_a.png"" style=""width: 300px; height: 300px;"" />
                   </div>","null","7","2","A","",""
"","","","","","html-keyboard-response","96","510173","0.0-78.0","BB21DCF13D8147F094E08F1DE0A5833B","0199d5fe-2caa-72a1-92a4-b069b62b1b86","0199d5ef-c7d4-7cab-a194-b2c3afbaf8e8","","null","<div style=""display: flex; justify-content: center; align-items: center;"">
                     <img src=""images/causal/causal_series_7/causal_series_7_b.png"" style=""width: 300px; height: 300px;"" />
                   </div>","null","7","2","B","",""
"","","","","","html-keyboard-response","97","516174","0.0-79.0","BB21DCF13D8147F094E08F1DE0A5833B","0199d5fe-2caa-72a1-92a4-b069b62b1b86","0199d5ef-c7d4-7cab-a194-b2c3afbaf8e8","","null","<div style=""display: flex; justify-content: center; align-items: center;"">
                     <img src=""images/causal/causal_series_7/causal_series_7_c.png"" style=""width: 300px; height: 300px;"" />
                   </div>","null","7","2","C","",""
"","","","","","html-button-response","98","518636","0.0-80.0","BB21DCF13D8147F094E08F1DE0A5833B","0199d5fe-2caa-72a1-92a4-b069b62b1b86","0199d5ef-c7d4-7cab-a194-b2c3afbaf8e8","","2460","
        <div style=""display: flex; justify-content: center; align-items: center;"">
          <img src=""images/red_deck_2.png"" style=""width: 300px; height: 300px; margin-right: 10px;"" />
          <img src=""images/blue_deck_1.png"" style=""width: 300px; height: 300px;"" />
        </div>","0","7","2","choice","0",""
"","","","","","html-keyboard-response","99","524638","0.0-81.0-0.0-0.0","BB21DCF13D8147F094E08F1DE0A5833B","0199d5fe-2caa-72a1-92a4-b069b62b1b86","0199d5ef-c7d4-7cab-a194-b2c3afbaf8e8","","null","<div style=""display: flex; justify-content: center; align-items: center;"">
                     <img src=""images/causal/causal_series_7/causal_series_7_d.png"" style=""width: 300px; height: 300px;"" />
                   </div>","null","7","2","D","",""
"","","","","","html-keyboard-response","100","530639","0.0-81.0-0.0-1.0","BB21DCF13D8147F094E08F1DE0A5833B","0199d5fe-2caa-72a1-92a4-b069b62b1b86","0199d5ef-c7d4-7cab-a194-b2c3afbaf8e8","","null","<div style=""display: flex; justify-content: center; align-items: center;"">
                     <img src=""images/causal/causal_series_7/causal_series_7_e.png"" style=""width: 300px; height: 300px;"" />
                   </div>","null","7","2","E","",""
"","","","","","html-keyboard-response","101","536640","0.0-81.0-0.0-2.0","BB21DCF13D8147F094E08F1DE0A5833B","0199d5fe-2caa-72a1-92a4-b069b62b1b86","0199d5ef-c7d4-7cab-a194-b2c3afbaf8e8","","null","<div style=""display: flex; justify-content: center; align-items: center;"">
                     <img src=""images/causal/causal_series_7/causal_series_7_f.png"" style=""width: 300px; height: 300px;"" />
                   </div>","null","7","2","F","",""
"","","","","","survey-likert","102","539020","0.0-82.0","BB21DCF13D8147F094E08F1DE0A5833B","0199d5fe-2caa-72a1-92a4-b069b62b1b86","0199d5ef-c7d4-7cab-a194-b2c3afbaf8e8","","2378","","{""Q0"":3}","7","2","surprise_rating","","[0]"
"","","","","","survey-likert","103","541393","0.0-83.0","BB21DCF13D8147F094E08F1DE0A5833B","0199d5fe-2caa-72a1-92a4-b069b62b1b86","0199d5ef-c7d4-7cab-a194-b2c3afbaf8e8","","2372","","{""Q0"":3}","7","2","enjoyment_rating","","[0]"
"","","","","","html-keyboard-response","104","547395","0.0-84.0","BB21DCF13D8147F094E08F1DE0A5833B","0199d5fe-2caa-72a1-92a4-b069b62b1b86","0199d5ef-c7d4-7cab-a194-b2c3afbaf8e8","","null","<div style=""display: flex; justify-content: center; align-items: center;"">
                     <img src=""images/other/blank.png"" style=""width: 300px; height: 300px;"" />
                   </div>","null","0","0","blank","",""
"","","","","","html-keyboard-response","105","553396","0.0-85.0","BB21DCF13D8147F094E08F1DE0A5833B","0199d5fe-2caa-72a1-92a4-b069b62b1b86","0199d5ef-c7d4-7cab-a194-b2c3afbaf8e8","","null","<div style=""display: flex; justify-content: center; align-items: center;"">
                     <img src=""images/causal/causal_series_8/causal_series_8_a.png"" style=""width: 300px; height: 300px;"" />
                   </div>","null","8","1","A","",""
"","","","","","html-keyboard-response","106","559397","0.0-86.0","BB21DCF13D8147F094E08F1DE0A5833B","0199d5fe-2caa-72a1-92a4-b069b62b1b86","0199d5ef-c7d4-7cab-a194-b2c3afbaf8e8","","null","<div style=""display: flex; justify-content: center; align-items: center;"">
                     <img src=""images/causal/causal_series_8/causal_series_8_b.png"" style=""width: 300px; height: 300px;"" />
                   </div>","null","8","1","B","",""
"","","","","","html-keyboard-response","107","565398","0.0-87.0","BB21DCF13D8147F094E08F1DE0A5833B","0199d5fe-2caa-72a1-92a4-b069b62b1b86","0199d5ef-c7d4-7cab-a194-b2c3afbaf8e8","","null","<div style=""display: flex; justify-content: center; align-items: center;"">
                     <img src=""images/causal/causal_series_8/causal_series_8_c.png"" style=""width: 300px; height: 300px;"" />
                   </div>","null","8","1","C","",""
"","","","","","html-button-response","108","567075","0.0-88.0","BB21DCF13D8147F094E08F1DE0A5833B","0199d5fe-2caa-72a1-92a4-b069b62b1b86","0199d5ef-c7d4-7cab-a194-b2c3afbaf8e8","","1675","
        <div style=""display: flex; justify-content: center; align-items: center;"">
          <img src=""images/red_deck_2.png"" style=""width: 300px; height: 300px; margin-right: 10px;"" />
          <img src=""images/blue_deck_1.png"" style=""width: 300px; height: 300px;"" />
        </div>","0","8","1","choice","0",""
"","","","","","html-keyboard-response","109","573076","0.0-89.0-0.0-0.0","BB21DCF13D8147F094E08F1DE0A5833B","0199d5fe-2caa-72a1-92a4-b069b62b1b86","0199d5ef-c7d4-7cab-a194-b2c3afbaf8e8","","null","<div style=""display: flex; justify-content: center; align-items: center;"">
                     <img src=""images/causal/causal_series_8/causal_series_8_d.png"" style=""width: 300px; height: 300px;"" />
                   </div>","null","8","1","D","",""
"","","","","","html-keyboard-response","110","579077","0.0-89.0-0.0-1.0","BB21DCF13D8147F094E08F1DE0A5833B","0199d5fe-2caa-72a1-92a4-b069b62b1b86","0199d5ef-c7d4-7cab-a194-b2c3afbaf8e8","","null","<div style=""display: flex; justify-content: center; align-items: center;"">
                     <img src=""images/causal/causal_series_8/causal_series_8_e.png"" style=""width: 300px; height: 300px;"" />
                   </div>","null","8","1","E","",""
"","","","","","html-keyboard-response","111","585079","0.0-89.0-0.0-2.0","BB21DCF13D8147F094E08F1DE0A5833B","0199d5fe-2caa-72a1-92a4-b069b62b1b86","0199d5ef-c7d4-7cab-a194-b2c3afbaf8e8","","null","<div style=""display: flex; justify-content: center; align-items: center;"">
                     <img src=""images/causal/causal_series_8/causal_series_8_f.png"" style=""width: 300px; height: 300px;"" />
                   </div>","null","8","1","F","",""
"","","","","","survey-likert","112","589129","0.0-90.0","BB21DCF13D8147F094E08F1DE0A5833B","0199d5fe-2caa-72a1-92a4-b069b62b1b86","0199d5ef-c7d4-7cab-a194-b2c3afbaf8e8","","4049","","{""Q0"":2}","8","1","surprise_rating","","[0]"
"","","","","","survey-likert","113","590705","0.0-91.0","BB21DCF13D8147F094E08F1DE0A5833B","0199d5fe-2caa-72a1-92a4-b069b62b1b86","0199d5ef-c7d4-7cab-a194-b2c3afbaf8e8","","1575","","{""Q0"":2}","8","1","enjoyment_rating","","[0]"
"","","","","","html-keyboard-response","114","596707","0.0-92.0","BB21DCF13D8147F094E08F1DE0A5833B","0199d5fe-2caa-72a1-92a4-b069b62b1b86","0199d5ef-c7d4-7cab-a194-b2c3afbaf8e8","","null","<div style=""display: flex; justify-content: center; align-items: center;"">
                     <img src=""images/other/blank.png"" style=""width: 300px; height: 300px;"" />
                   </div>","null","0","0","blank","",""
"","","","","","html-keyboard-response","115","602708","0.0-93.0","BB21DCF13D8147F094E08F1DE0A5833B","0199d5fe-2caa-72a1-92a4-b069b62b1b86","0199d5ef-c7d4-7cab-a194-b2c3afbaf8e8","","null","<div style=""display: flex; justify-content: center; align-items: center;"">
                     <img src=""images/causal/causal_series_6/causal_series_6_a.png"" style=""width: 300px; height: 300px;"" />
                   </div>","null","6","2","A","",""
"","","","","","html-keyboard-response","116","608709","0.0-94.0","BB21DCF13D8147F094E08F1DE0A5833B","0199d5fe-2caa-72a1-92a4-b069b62b1b86","0199d5ef-c7d4-7cab-a194-b2c3afbaf8e8","","null","<div style=""display: flex; justify-content: center; align-items: center;"">
                     <img src=""images/causal/causal_series_6/causal_series_6_b.png"" style=""width: 300px; height: 300px;"" />
                   </div>","null","6","2","B","",""
"","","","","","html-keyboard-response","117","614710","0.0-95.0","BB21DCF13D8147F094E08F1DE0A5833B","0199d5fe-2caa-72a1-92a4-b069b62b1b86","0199d5ef-c7d4-7cab-a194-b2c3afbaf8e8","","null","<div style=""display: flex; justify-content: center; align-items: center;"">
                     <img src=""images/causal/causal_series_6/causal_series_6_c.png"" style=""width: 300px; height: 300px;"" />
                   </div>","null","6","2","C","",""
"","","","","","html-button-response","118","617662","0.0-96.0","BB21DCF13D8147F094E08F1DE0A5833B","0199d5fe-2caa-72a1-92a4-b069b62b1b86","0199d5ef-c7d4-7cab-a194-b2c3afbaf8e8","","2950","
        <div style=""display: flex; justify-content: center; align-items: center;"">
          <img src=""images/red_deck_2.png"" style=""width: 300px; height: 300px; margin-right: 10px;"" />
          <img src=""images/blue_deck_1.png"" style=""width: 300px; height: 300px;"" />
        </div>","0","6","2","choice","0",""
"","","","","","html-keyboard-response","119","623663","0.0-97.0-0.0-0.0","BB21DCF13D8147F094E08F1DE0A5833B","0199d5fe-2caa-72a1-92a4-b069b62b1b86","0199d5ef-c7d4-7cab-a194-b2c3afbaf8e8","","null","<div style=""display: flex; justify-content: center; align-items: center;"">
                     <img src=""images/causal/causal_series_6/causal_series_6_d.png"" style=""width: 300px; height: 300px;"" />
                   </div>","null","6","2","D","",""
"","","","","","html-keyboard-response","120","629664","0.0-97.0-0.0-1.0","BB21DCF13D8147F094E08F1DE0A5833B","0199d5fe-2caa-72a1-92a4-b069b62b1b86","0199d5ef-c7d4-7cab-a194-b2c3afbaf8e8","","null","<div style=""display: flex; justify-content: center; align-items: center;"">
                     <img src=""images/causal/causal_series_6/causal_series_6_e.png"" style=""width: 300px; height: 300px;"" />
                   </div>","null","6","2","E","",""
"","","","","","html-keyboard-response","121","635665","0.0-97.0-0.0-2.0","BB21DCF13D8147F094E08F1DE0A5833B","0199d5fe-2caa-72a1-92a4-b069b62b1b86","0199d5ef-c7d4-7cab-a194-b2c3afbaf8e8","","null","<div style=""display: flex; justify-content: center; align-items: center;"">
                     <img src=""images/causal/causal_series_6/causal_series_6_f.png"" style=""width: 300px; height: 300px;"" />
                   </div>","null","6","2","F","",""
"","","","","","survey-likert","122","639449","0.0-98.0","BB21DCF13D8147F094E08F1DE0A5833B","0199d5fe-2caa-72a1-92a4-b069b62b1b86","0199d5ef-c7d4-7cab-a194-b2c3afbaf8e8","","3783","","{""Q0"":2}","6","2","surprise_rating","","[0]"
"","","","","","survey-likert","123","641675","0.0-99.0","BB21DCF13D8147F094E08F1DE0A5833B","0199d5fe-2caa-72a1-92a4-b069b62b1b86","0199d5ef-c7d4-7cab-a194-b2c3afbaf8e8","","2225","","{""Q0"":2}","6","2","enjoyment_rating","","[0]"
"","","","","","html-keyboard-response","124","647677","0.0-100.0","BB21DCF13D8147F094E08F1DE0A5833B","0199d5fe-2caa-72a1-92a4-b069b62b1b86","0199d5ef-c7d4-7cab-a194-b2c3afbaf8e8","","null","<div style=""display: flex; justify-content: center; align-items: center;"">
                     <img src=""images/other/blank.png"" style=""width: 300px; height: 300px;"" />
                   </div>","null","0","0","blank","",""
"","","","","","html-keyboard-response","125","653678","0.0-101.0","BB21DCF13D8147F094E08F1DE0A5833B","0199d5fe-2caa-72a1-92a4-b069b62b1b86","0199d5ef-c7d4-7cab-a194-b2c3afbaf8e8","","null","<div style=""display: flex; justify-content: center; align-items: center;"">
                     <img src=""images/causal/causal_series_1/causal_series_1_a.png"" style=""width: 300px; height: 300px;"" />
                   </div>","null","1","1","A","",""
"","","","","","html-keyboard-response","126","659679","0.0-102.0","BB21DCF13D8147F094E08F1DE0A5833B","0199d5fe-2caa-72a1-92a4-b069b62b1b86","0199d5ef-c7d4-7cab-a194-b2c3afbaf8e8","","null","<div style=""display: flex; justify-content: center; align-items: center;"">
                     <img src=""images/causal/causal_series_1/causal_series_1_b.png"" style=""width: 300px; height: 300px;"" />
                   </div>","null","1","1","B","",""
"","","","","","html-keyboard-response","127","665680","0.0-103.0","BB21DCF13D8147F094E08F1DE0A5833B","0199d5fe-2caa-72a1-92a4-b069b62b1b86","0199d5ef-c7d4-7cab-a194-b2c3afbaf8e8","","null","<div style=""display: flex; justify-content: center; align-items: center;"">
                     <img src=""images/causal/causal_series_1/causal_series_1_c.png"" style=""width: 300px; height: 300px;"" />
                   </div>","null","1","1","C","",""
"","","","","","html-button-response","128","667142","0.0-104.0","BB21DCF13D8147F094E08F1DE0A5833B","0199d5fe-2caa-72a1-92a4-b069b62b1b86","0199d5ef-c7d4-7cab-a194-b2c3afbaf8e8","","1461","
        <div style=""display: flex; justify-content: center; align-items: center;"">
          <img src=""images/red_deck_2.png"" style=""width: 300px; height: 300px; margin-right: 10px;"" />
          <img src=""images/blue_deck_1.png"" style=""width: 300px; height: 300px;"" />
        </div>","1","1","1","choice","1",""
"","","","","","html-keyboard-response","129","673143","0.0-105.0-1.0-0.0","BB21DCF13D8147F094E08F1DE0A5833B","0199d5fe-2caa-72a1-92a4-b069b62b1b86","0199d5ef-c7d4-7cab-a194-b2c3afbaf8e8","","null","<div style=""display: flex; justify-content: center; align-items: center;"">
                     <img src=""images/semantic/semantic_series_1/semantic_series_1_d.png"" style=""width: 300px; height: 300px;"" />
                   </div>","null","1","1","D","",""
"","","","","","html-keyboard-response","130","679144","0.0-105.0-1.0-1.0","BB21DCF13D8147F094E08F1DE0A5833B","0199d5fe-2caa-72a1-92a4-b069b62b1b86","0199d5ef-c7d4-7cab-a194-b2c3afbaf8e8","","null","<div style=""display: flex; justify-content: center; align-items: center;"">
                     <img src=""images/semantic/semantic_series_1/semantic_series_1_e.png"" style=""width: 300px; height: 300px;"" />
                   </div>","null","1","1","E","",""
"","","","","","html-keyboard-response","131","685146","0.0-105.0-1.0-2.0","BB21DCF13D8147F094E08F1DE0A5833B","0199d5fe-2caa-72a1-92a4-b069b62b1b86","0199d5ef-c7d4-7cab-a194-b2c3afbaf8e8","","null","<div style=""display: flex; justify-content: center; align-items: center;"">
                     <img src=""images/semantic/semantic_series_1/semantic_series_1_f.png"" style=""width: 300px; height: 300px;"" />
                   </div>","null","1","1","F","",""
"","","","","","survey-likert","132","688509","0.0-106.0","BB21DCF13D8147F094E08F1DE0A5833B","0199d5fe-2caa-72a1-92a4-b069b62b1b86","0199d5ef-c7d4-7cab-a194-b2c3afbaf8e8","","3362","","{""Q0"":2}","1","1","surprise_rating","","[0]"
"","","","","","survey-likert","133","691621","0.0-107.0","BB21DCF13D8147F094E08F1DE0A5833B","0199d5fe-2caa-72a1-92a4-b069b62b1b86","0199d5ef-c7d4-7cab-a194-b2c3afbaf8e8","","3111","","{""Q0"":1}","1","1","enjoyment_rating","","[0]"
"","","","","","html-keyboard-response","134","697623","0.0-108.0","BB21DCF13D8147F094E08F1DE0A5833B","0199d5fe-2caa-72a1-92a4-b069b62b1b86","0199d5ef-c7d4-7cab-a194-b2c3afbaf8e8","","null","<div style=""display: flex; justify-content: center; align-items: center;"">
                     <img src=""images/other/blank.png"" style=""width: 300px; height: 300px;"" />
                   </div>","null","0","0","blank","",""
"","","","","","html-keyboard-response","135","703624","0.0-109.0","BB21DCF13D8147F094E08F1DE0A5833B","0199d5fe-2caa-72a1-92a4-b069b62b1b86","0199d5ef-c7d4-7cab-a194-b2c3afbaf8e8","","null","<div style=""display: flex; justify-content: center; align-items: center;"">
                     <img src=""images/causal/causal_series_10/causal_series_10_a.png"" style=""width: 300px; height: 300px;"" />
                   </div>","null","10","2","A","",""
"","","","","","html-keyboard-response","136","709625","0.0-110.0","BB21DCF13D8147F094E08F1DE0A5833B","0199d5fe-2caa-72a1-92a4-b069b62b1b86","0199d5ef-c7d4-7cab-a194-b2c3afbaf8e8","","null","<div style=""display: flex; justify-content: center; align-items: center;"">
                     <img src=""images/causal/causal_series_10/causal_series_10_b.png"" style=""width: 300px; height: 300px;"" />
                   </div>","null","10","2","B","",""
"","","","","","html-keyboard-response","137","715626","0.0-111.0","BB21DCF13D8147F094E08F1DE0A5833B","0199d5fe-2caa-72a1-92a4-b069b62b1b86","0199d5ef-c7d4-7cab-a194-b2c3afbaf8e8","","null","<div style=""display: flex; justify-content: center; align-items: center;"">
                     <img src=""images/causal/causal_series_10/causal_series_10_c.png"" style=""width: 300px; height: 300px;"" />
                   </div>","null","10","2","C","",""
"","","","","","html-button-response","138","717465","0.0-112.0","BB21DCF13D8147F094E08F1DE0A5833B","0199d5fe-2caa-72a1-92a4-b069b62b1b86","0199d5ef-c7d4-7cab-a194-b2c3afbaf8e8","","1838","
        <div style=""display: flex; justify-content: center; align-items: center;"">
          <img src=""images/red_deck_2.png"" style=""width: 300px; height: 300px; margin-right: 10px;"" />
          <img src=""images/blue_deck_1.png"" style=""width: 300px; height: 300px;"" />
        </div>","0","10","2","choice","0",""
"","","","","","html-keyboard-response","139","723466","0.0-113.0-0.0-0.0","BB21DCF13D8147F094E08F1DE0A5833B","0199d5fe-2caa-72a1-92a4-b069b62b1b86","0199d5ef-c7d4-7cab-a194-b2c3afbaf8e8","","null","<div style=""display: flex; justify-content: center; align-items: center;"">
                     <img src=""images/causal/causal_series_10/causal_series_10_d.png"" style=""width: 300px; height: 300px;"" />
                   </div>","null","10","2","D","",""
"","","","","","html-keyboard-response","140","730109","0.0-113.0-0.0-1.0","BB21DCF13D8147F094E08F1DE0A5833B","0199d5fe-2caa-72a1-92a4-b069b62b1b86","0199d5ef-c7d4-7cab-a194-b2c3afbaf8e8","","null","<div style=""display: flex; justify-content: center; align-items: center;"">
                     <img src=""images/causal/causal_series_10/causal_series_10_e.png"" style=""width: 300px; height: 300px;"" />
                   </div>","null","10","2","E","",""
"","","","","","html-keyboard-response","141","737108","0.0-113.0-0.0-2.0","BB21DCF13D8147F094E08F1DE0A5833B","0199d5fe-2caa-72a1-92a4-b069b62b1b86","0199d5ef-c7d4-7cab-a194-b2c3afbaf8e8","","null","<div style=""display: flex; justify-content: center; align-items: center;"">
                     <img src=""images/causal/causal_series_10/causal_series_10_f.png"" style=""width: 300px; height: 300px;"" />
                   </div>","null","10","2","F","",""
"","","","","","survey-likert","142","741333","0.0-114.0","BB21DCF13D8147F094E08F1DE0A5833B","0199d5fe-2caa-72a1-92a4-b069b62b1b86","0199d5ef-c7d4-7cab-a194-b2c3afbaf8e8","","4224","","{""Q0"":2}","10","2","surprise_rating","","[0]"
"","","","","","survey-likert","143","743630","0.0-115.0","BB21DCF13D8147F094E08F1DE0A5833B","0199d5fe-2caa-72a1-92a4-b069b62b1b86","0199d5ef-c7d4-7cab-a194-b2c3afbaf8e8","","2295","","{""Q0"":2}","10","2","enjoyment_rating","","[0]"
"","","","","","html-keyboard-response","144","749631","0.0-116.0","BB21DCF13D8147F094E08F1DE0A5833B","0199d5fe-2caa-72a1-92a4-b069b62b1b86","0199d5ef-c7d4-7cab-a194-b2c3afbaf8e8","","null","<div style=""display: flex; justify-content: center; align-items: center;"">
                     <img src=""images/other/blank.png"" style=""width: 300px; height: 300px;"" />
                   </div>","null","0","0","blank","",""
"","","","","","html-keyboard-response","145","756108","0.0-117.0","BB21DCF13D8147F094E08F1DE0A5833B","0199d5fe-2caa-72a1-92a4-b069b62b1b86","0199d5ef-c7d4-7cab-a194-b2c3afbaf8e8","","null","<div style=""display: flex; justify-content: center; align-items: center;"">
                     <img src=""images/causal/causal_series_6/causal_series_6_a.png"" style=""width: 300px; height: 300px;"" />
                   </div>","null","6","1","A","",""
"","","","","","html-keyboard-response","146","762109","0.0-118.0","BB21DCF13D8147F094E08F1DE0A5833B","0199d5fe-2caa-72a1-92a4-b069b62b1b86","0199d5ef-c7d4-7cab-a194-b2c3afbaf8e8","","null","<div style=""display: flex; justify-content: center; align-items: center;"">
                     <img src=""images/causal/causal_series_6/causal_series_6_b.png"" style=""width: 300px; height: 300px;"" />
                   </div>","null","6","1","B","",""
"","","","","","html-keyboard-response","147","768110","0.0-119.0","BB21DCF13D8147F094E08F1DE0A5833B","0199d5fe-2caa-72a1-92a4-b069b62b1b86","0199d5ef-c7d4-7cab-a194-b2c3afbaf8e8","","null","<div style=""display: flex; justify-content: center; align-items: center;"">
                     <img src=""images/causal/causal_series_6/causal_series_6_c.png"" style=""width: 300px; height: 300px;"" />
                   </div>","null","6","1","C","",""
"","","","","","html-button-response","148","769913","0.0-120.0","BB21DCF13D8147F094E08F1DE0A5833B","0199d5fe-2caa-72a1-92a4-b069b62b1b86","0199d5ef-c7d4-7cab-a194-b2c3afbaf8e8","","1802","
        <div style=""display: flex; justify-content: center; align-items: center;"">
          <img src=""images/red_deck_2.png"" style=""width: 300px; height: 300px; margin-right: 10px;"" />
          <img src=""images/blue_deck_1.png"" style=""width: 300px; height: 300px;"" />
        </div>","1","6","1","choice","1",""
"","","","","","html-keyboard-response","149","775914","0.0-121.0-1.0-0.0","BB21DCF13D8147F094E08F1DE0A5833B","0199d5fe-2caa-72a1-92a4-b069b62b1b86","0199d5ef-c7d4-7cab-a194-b2c3afbaf8e8","","null","<div style=""display: flex; justify-content: center; align-items: center;"">
                     <img src=""images/semantic/semantic_series_6/semantic_series_6_d.png"" style=""width: 300px; height: 300px;"" />
                   </div>","null","6","1","D","",""
"","","","","","html-keyboard-response","150","781915","0.0-121.0-1.0-1.0","BB21DCF13D8147F094E08F1DE0A5833B","0199d5fe-2caa-72a1-92a4-b069b62b1b86","0199d5ef-c7d4-7cab-a194-b2c3afbaf8e8","","null","<div style=""display: flex; justify-content: center; align-items: center;"">
                     <img src=""images/semantic/semantic_series_6/semantic_series_6_e.png"" style=""width: 300px; height: 300px;"" />
                   </div>","null","6","1","E","",""
"","","","","","html-keyboard-response","151","787916","0.0-121.0-1.0-2.0","BB21DCF13D8147F094E08F1DE0A5833B","0199d5fe-2caa-72a1-92a4-b069b62b1b86","0199d5ef-c7d4-7cab-a194-b2c3afbaf8e8","","null","<div style=""display: flex; justify-content: center; align-items: center;"">
                     <img src=""images/semantic/semantic_series_6/semantic_series_6_f.png"" style=""width: 300px; height: 300px;"" />
                   </div>","null","6","1","F","",""
"","","","","","survey-likert","152","790159","0.0-122.0","BB21DCF13D8147F094E08F1DE0A5833B","0199d5fe-2caa-72a1-92a4-b069b62b1b86","0199d5ef-c7d4-7cab-a194-b2c3afbaf8e8","","2242","","{""Q0"":3}","6","1","surprise_rating","","[0]"
"","","","","","survey-likert","153","791917","0.0-123.0","BB21DCF13D8147F094E08F1DE0A5833B","0199d5fe-2caa-72a1-92a4-b069b62b1b86","0199d5ef-c7d4-7cab-a194-b2c3afbaf8e8","","1757","","{""Q0"":2}","6","1","enjoyment_rating","","[0]"
"","","","","","html-keyboard-response","154","797919","0.0-124.0","BB21DCF13D8147F094E08F1DE0A5833B","0199d5fe-2caa-72a1-92a4-b069b62b1b86","0199d5ef-c7d4-7cab-a194-b2c3afbaf8e8","","null","<div style=""display: flex; justify-content: center; align-items: center;"">
                     <img src=""images/other/blank.png"" style=""width: 300px; height: 300px;"" />
                   </div>","null","0","0","blank","",""
"","","","","","html-keyboard-response","155","803920","0.0-125.0","BB21DCF13D8147F094E08F1DE0A5833B","0199d5fe-2caa-72a1-92a4-b069b62b1b86","0199d5ef-c7d4-7cab-a194-b2c3afbaf8e8","","null","<div style=""display: flex; justify-content: center; align-items: center;"">
                     <img src=""images/causal/causal_series_8/causal_series_8_a.png"" style=""width: 300px; height: 300px;"" />
                   </div>","null","8","2","A","",""
"","","","","","html-keyboard-response","156","809921","0.0-126.0","BB21DCF13D8147F094E08F1DE0A5833B","0199d5fe-2caa-72a1-92a4-b069b62b1b86","0199d5ef-c7d4-7cab-a194-b2c3afbaf8e8","","null","<div style=""display: flex; justify-content: center; align-items: center;"">
                     <img src=""images/causal/causal_series_8/causal_series_8_b.png"" style=""width: 300px; height: 300px;"" />
                   </div>","null","8","2","B","",""
"","","","","","html-keyboard-response","157","815922","0.0-127.0","BB21DCF13D8147F094E08F1DE0A5833B","0199d5fe-2caa-72a1-92a4-b069b62b1b86","0199d5ef-c7d4-7cab-a194-b2c3afbaf8e8","","null","<div style=""display: flex; justify-content: center; align-items: center;"">
                     <img src=""images/causal/causal_series_8/causal_series_8_c.png"" style=""width: 300px; height: 300px;"" />
                   </div>","null","8","2","C","",""
"","","","","","html-button-response","158","817422","0.0-128.0","BB21DCF13D8147F094E08F1DE0A5833B","0199d5fe-2caa-72a1-92a4-b069b62b1b86","0199d5ef-c7d4-7cab-a194-b2c3afbaf8e8","","1499","
        <div style=""display: flex; justify-content: center; align-items: center;"">
          <img src=""images/red_deck_2.png"" style=""width: 300px; height: 300px; margin-right: 10px;"" />
          <img src=""images/blue_deck_1.png"" style=""width: 300px; height: 300px;"" />
        </div>","0","8","2","choice","0",""
"","","","","","html-keyboard-response","159","823423","0.0-129.0-0.0-0.0","BB21DCF13D8147F094E08F1DE0A5833B","0199d5fe-2caa-72a1-92a4-b069b62b1b86","0199d5ef-c7d4-7cab-a194-b2c3afbaf8e8","","null","<div style=""display: flex; justify-content: center; align-items: center;"">
                     <img src=""images/causal/causal_series_8/causal_series_8_d.png"" style=""width: 300px; height: 300px;"" />
                   </div>","null","8","2","D","",""
"","","","","","html-keyboard-response","160","829425","0.0-129.0-0.0-1.0","BB21DCF13D8147F094E08F1DE0A5833B","0199d5fe-2caa-72a1-92a4-b069b62b1b86","0199d5ef-c7d4-7cab-a194-b2c3afbaf8e8","","null","<div style=""display: flex; justify-content: center; align-items: center;"">
                     <img src=""images/causal/causal_series_8/causal_series_8_e.png"" style=""width: 300px; height: 300px;"" />
                   </div>","null","8","2","E","",""
"","","","","","html-keyboard-response","161","835426","0.0-129.0-0.0-2.0","BB21DCF13D8147F094E08F1DE0A5833B","0199d5fe-2caa-72a1-92a4-b069b62b1b86","0199d5ef-c7d4-7cab-a194-b2c3afbaf8e8","","null","<div style=""display: flex; justify-content: center; align-items: center;"">
                     <img src=""images/causal/causal_series_8/causal_series_8_f.png"" style=""width: 300px; height: 300px;"" />
                   </div>","null","8","2","F","",""
"","","","","","survey-likert","162","840156","0.0-130.0","BB21DCF13D8147F094E08F1DE0A5833B","0199d5fe-2caa-72a1-92a4-b069b62b1b86","0199d5ef-c7d4-7cab-a194-b2c3afbaf8e8","","4729","","{""Q0"":2}","8","2","surprise_rating","","[0]"
"","","","","","survey-likert","163","842473","0.0-131.0","BB21DCF13D8147F094E08F1DE0A5833B","0199d5fe-2caa-72a1-92a4-b069b62b1b86","0199d5ef-c7d4-7cab-a194-b2c3afbaf8e8","","2315","","{""Q0"":0}","8","2","enjoyment_rating","","[0]"
"","","","","","html-keyboard-response","164","848474","0.0-132.0","BB21DCF13D8147F094E08F1DE0A5833B","0199d5fe-2caa-72a1-92a4-b069b62b1b86","0199d5ef-c7d4-7cab-a194-b2c3afbaf8e8","","null","<div style=""display: flex; justify-content: center; align-items: center;"">
                     <img src=""images/other/blank.png"" style=""width: 300px; height: 300px;"" />
                   </div>","null","0","0","blank","",""
"","","","","","html-keyboard-response","165","854476","0.0-133.0","BB21DCF13D8147F094E08F1DE0A5833B","0199d5fe-2caa-72a1-92a4-b069b62b1b86","0199d5ef-c7d4-7cab-a194-b2c3afbaf8e8","","null","<div style=""display: flex; justify-content: center; align-items: center;"">
                     <img src=""images/causal/causal_series_3/causal_series_3_a.png"" style=""width: 300px; height: 300px;"" />
                   </div>","null","3","2","A","",""
"","","","","","html-keyboard-response","166","860477","0.0-134.0","BB21DCF13D8147F094E08F1DE0A5833B","0199d5fe-2caa-72a1-92a4-b069b62b1b86","0199d5ef-c7d4-7cab-a194-b2c3afbaf8e8","","null","<div style=""display: flex; justify-content: center; align-items: center;"">
                     <img src=""images/causal/causal_series_3/causal_series_3_b.png"" style=""width: 300px; height: 300px;"" />
                   </div>","null","3","2","B","",""
"","","","","","html-keyboard-response","167","866478","0.0-135.0","BB21DCF13D8147F094E08F1DE0A5833B","0199d5fe-2caa-72a1-92a4-b069b62b1b86","0199d5ef-c7d4-7cab-a194-b2c3afbaf8e8","","null","<div style=""display: flex; justify-content: center; align-items: center;"">
                     <img src=""images/causal/causal_series_3/causal_series_3_c.png"" style=""width: 300px; height: 300px;"" />
                   </div>","null","3","2","C","",""
"","","","","","html-button-response","168","871540","0.0-136.0","BB21DCF13D8147F094E08F1DE0A5833B","0199d5fe-2caa-72a1-92a4-b069b62b1b86","0199d5ef-c7d4-7cab-a194-b2c3afbaf8e8","","5061","
        <div style=""display: flex; justify-content: center; align-items: center;"">
          <img src=""images/red_deck_2.png"" style=""width: 300px; height: 300px; margin-right: 10px;"" />
          <img src=""images/blue_deck_1.png"" style=""width: 300px; height: 300px;"" />
        </div>","0","3","2","choice","0",""
"","","","","","html-keyboard-response","169","877541","0.0-137.0-0.0-0.0","BB21DCF13D8147F094E08F1DE0A5833B","0199d5fe-2caa-72a1-92a4-b069b62b1b86","0199d5ef-c7d4-7cab-a194-b2c3afbaf8e8","","null","<div style=""display: flex; justify-content: center; align-items: center;"">
                     <img src=""images/causal/causal_series_3/causal_series_3_d.png"" style=""width: 300px; height: 300px;"" />
                   </div>","null","3","2","D","",""
"","","","","","html-keyboard-response","170","883542","0.0-137.0-0.0-1.0","BB21DCF13D8147F094E08F1DE0A5833B","0199d5fe-2caa-72a1-92a4-b069b62b1b86","0199d5ef-c7d4-7cab-a194-b2c3afbaf8e8","","null","<div style=""display: flex; justify-content: center; align-items: center;"">
                     <img src=""images/causal/causal_series_3/causal_series_3_e.png"" style=""width: 300px; height: 300px;"" />
                   </div>","null","3","2","E","",""
"","","","","","html-keyboard-response","171","889543","0.0-137.0-0.0-2.0","BB21DCF13D8147F094E08F1DE0A5833B","0199d5fe-2caa-72a1-92a4-b069b62b1b86","0199d5ef-c7d4-7cab-a194-b2c3afbaf8e8","","null","<div style=""display: flex; justify-content: center; align-items: center;"">
                     <img src=""images/causal/causal_series_3/causal_series_3_f.png"" style=""width: 300px; height: 300px;"" />
                   </div>","null","3","2","F","",""
"","","","","","survey-likert","172","900403","0.0-138.0","BB21DCF13D8147F094E08F1DE0A5833B","0199d5fe-2caa-72a1-92a4-b069b62b1b86","0199d5ef-c7d4-7cab-a194-b2c3afbaf8e8","","10859","","{""Q0"":3}","3","2","surprise_rating","","[0]"
"","","","","","survey-likert","173","902299","0.0-139.0","BB21DCF13D8147F094E08F1DE0A5833B","0199d5fe-2caa-72a1-92a4-b069b62b1b86","0199d5ef-c7d4-7cab-a194-b2c3afbaf8e8","","1894","","{""Q0"":3}","3","2","enjoyment_rating","","[0]"
"","","","","","html-keyboard-response","174","908301","0.0-140.0","BB21DCF13D8147F094E08F1DE0A5833B","0199d5fe-2caa-72a1-92a4-b069b62b1b86","0199d5ef-c7d4-7cab-a194-b2c3afbaf8e8","","null","<div style=""display: flex; justify-content: center; align-items: center;"">
                     <img src=""images/other/blank.png"" style=""width: 300px; height: 300px;"" />
                   </div>","null","0","0","blank","",""
"","","","","","html-keyboard-response","175","914302","0.0-141.0","BB21DCF13D8147F094E08F1DE0A5833B","0199d5fe-2caa-72a1-92a4-b069b62b1b86","0199d5ef-c7d4-7cab-a194-b2c3afbaf8e8","","null","<div style=""display: flex; justify-content: center; align-items: center;"">
                     <img src=""images/causal/causal_series_10/causal_series_10_a.png"" style=""width: 300px; height: 300px;"" />
                   </div>","null","10","1","A","",""
"","","","","","html-keyboard-response","176","920303","0.0-142.0","BB21DCF13D8147F094E08F1DE0A5833B","0199d5fe-2caa-72a1-92a4-b069b62b1b86","0199d5ef-c7d4-7cab-a194-b2c3afbaf8e8","","null","<div style=""display: flex; justify-content: center; align-items: center;"">
                     <img src=""images/causal/causal_series_10/causal_series_10_b.png"" style=""width: 300px; height: 300px;"" />
                   </div>","null","10","1","B","",""
"","","","","","html-keyboard-response","177","926304","0.0-143.0","BB21DCF13D8147F094E08F1DE0A5833B","0199d5fe-2caa-72a1-92a4-b069b62b1b86","0199d5ef-c7d4-7cab-a194-b2c3afbaf8e8","","null","<div style=""display: flex; justify-content: center; align-items: center;"">
                     <img src=""images/causal/causal_series_10/causal_series_10_c.png"" style=""width: 300px; height: 300px;"" />
                   </div>","null","10","1","C","",""
"","","","","","html-button-response","178","944337","0.0-144.0","BB21DCF13D8147F094E08F1DE0A5833B","0199d5fe-2caa-72a1-92a4-b069b62b1b86","0199d5ef-c7d4-7cab-a194-b2c3afbaf8e8","","18032","
        <div style=""display: flex; justify-content: center; align-items: center;"">
          <img src=""images/red_deck_2.png"" style=""width: 300px; height: 300px; margin-right: 10px;"" />
          <img src=""images/blue_deck_1.png"" style=""width: 300px; height: 300px;"" />
        </div>","1","10","1","choice","1",""
"","","","","","html-keyboard-response","179","950338","0.0-145.0-1.0-0.0","BB21DCF13D8147F094E08F1DE0A5833B","0199d5fe-2caa-72a1-92a4-b069b62b1b86","0199d5ef-c7d4-7cab-a194-b2c3afbaf8e8","","null","<div style=""display: flex; justify-content: center; align-items: center;"">
                     <img src=""images/semantic/semantic_series_10/semantic_series_10_d.png"" style=""width: 300px; height: 300px;"" />
                   </div>","null","10","1","D","",""
"","","","","","html-keyboard-response","180","956339","0.0-145.0-1.0-1.0","BB21DCF13D8147F094E08F1DE0A5833B","0199d5fe-2caa-72a1-92a4-b069b62b1b86","0199d5ef-c7d4-7cab-a194-b2c3afbaf8e8","","null","<div style=""display: flex; justify-content: center; align-items: center;"">
                     <img src=""images/semantic/semantic_series_10/semantic_series_10_e.png"" style=""width: 300px; height: 300px;"" />
                   </div>","null","10","1","E","",""
"","","","","","html-keyboard-response","181","962340","0.0-145.0-1.0-2.0","BB21DCF13D8147F094E08F1DE0A5833B","0199d5fe-2caa-72a1-92a4-b069b62b1b86","0199d5ef-c7d4-7cab-a194-b2c3afbaf8e8","","null","<div style=""display: flex; justify-content: center; align-items: center;"">
                     <img src=""images/semantic/semantic_series_10/semantic_series_10_f.png"" style=""width: 300px; height: 300px;"" />
                   </div>","null","10","1","F","",""
"","","","","","survey-likert","182","967229","0.0-146.0","BB21DCF13D8147F094E08F1DE0A5833B","0199d5fe-2caa-72a1-92a4-b069b62b1b86","0199d5ef-c7d4-7cab-a194-b2c3afbaf8e8","","4887","","{""Q0"":2}","10","1","surprise_rating","","[0]"
"","","","","","survey-likert","183","969246","0.0-147.0","BB21DCF13D8147F094E08F1DE0A5833B","0199d5fe-2caa-72a1-92a4-b069b62b1b86","0199d5ef-c7d4-7cab-a194-b2c3afbaf8e8","","2016","","{""Q0"":2}","10","1","enjoyment_rating","","[0]"
"","","","","","html-keyboard-response","184","976109","0.0-148.0","BB21DCF13D8147F094E08F1DE0A5833B","0199d5fe-2caa-72a1-92a4-b069b62b1b86","0199d5ef-c7d4-7cab-a194-b2c3afbaf8e8","","null","<div style=""display: flex; justify-content: center; align-items: center;"">
                     <img src=""images/other/blank.png"" style=""width: 300px; height: 300px;"" />
                   </div>","null","0","0","blank","",""
"","","","","","html-keyboard-response","185","983109","0.0-149.0","BB21DCF13D8147F094E08F1DE0A5833B","0199d5fe-2caa-72a1-92a4-b069b62b1b86","0199d5ef-c7d4-7cab-a194-b2c3afbaf8e8","","null","<div style=""display: flex; justify-content: center; align-items: center;"">
                     <img src=""images/causal/causal_series_5/causal_series_5_a.png"" style=""width: 300px; height: 300px;"" />
                   </div>","null","5","1","A","",""
"","","","","","html-keyboard-response","186","990108","0.0-150.0","BB21DCF13D8147F094E08F1DE0A5833B","0199d5fe-2caa-72a1-92a4-b069b62b1b86","0199d5ef-c7d4-7cab-a194-b2c3afbaf8e8","","null","<div style=""display: flex; justify-content: center; align-items: center;"">
                     <img src=""images/causal/causal_series_5/causal_series_5_b.png"" style=""width: 300px; height: 300px;"" />
                   </div>","null","5","1","B","",""
"","","","","","html-keyboard-response","187","996109","0.0-151.0","BB21DCF13D8147F094E08F1DE0A5833B","0199d5fe-2caa-72a1-92a4-b069b62b1b86","0199d5ef-c7d4-7cab-a194-b2c3afbaf8e8","","null","<div style=""display: flex; justify-content: center; align-items: center;"">
                     <img src=""images/causal/causal_series_5/causal_series_5_c.png"" style=""width: 300px; height: 300px;"" />
                   </div>","null","5","1","C","",""
"","","","","","html-button-response","188","998533","0.0-152.0","BB21DCF13D8147F094E08F1DE0A5833B","0199d5fe-2caa-72a1-92a4-b069b62b1b86","0199d5ef-c7d4-7cab-a194-b2c3afbaf8e8","","2423","
        <div style=""display: flex; justify-content: center; align-items: center;"">
          <img src=""images/red_deck_2.png"" style=""width: 300px; height: 300px; margin-right: 10px;"" />
          <img src=""images/blue_deck_1.png"" style=""width: 300px; height: 300px;"" />
        </div>","0","5","1","choice","0",""
"","","","","","html-keyboard-response","189","1004534","0.0-153.0-0.0-0.0","BB21DCF13D8147F094E08F1DE0A5833B","0199d5fe-2caa-72a1-92a4-b069b62b1b86","0199d5ef-c7d4-7cab-a194-b2c3afbaf8e8","","null","<div style=""display: flex; justify-content: center; align-items: center;"">
                     <img src=""images/causal/causal_series_5/causal_series_5_d.png"" style=""width: 300px; height: 300px;"" />
                   </div>","null","5","1","D","",""
"","","","","","html-keyboard-response","190","1010535","0.0-153.0-0.0-1.0","BB21DCF13D8147F094E08F1DE0A5833B","0199d5fe-2caa-72a1-92a4-b069b62b1b86","0199d5ef-c7d4-7cab-a194-b2c3afbaf8e8","","null","<div style=""display: flex; justify-content: center; align-items: center;"">
                     <img src=""images/causal/causal_series_5/causal_series_5_e.png"" style=""width: 300px; height: 300px;"" />
                   </div>","null","5","1","E","",""
"","","","","","html-keyboard-response","191","1016536","0.0-153.0-0.0-2.0","BB21DCF13D8147F094E08F1DE0A5833B","0199d5fe-2caa-72a1-92a4-b069b62b1b86","0199d5ef-c7d4-7cab-a194-b2c3afbaf8e8","","null","<div style=""display: flex; justify-content: center; align-items: center;"">
                     <img src=""images/causal/causal_series_5/causal_series_5_f.png"" style=""width: 300px; height: 300px;"" />
                   </div>","null","5","1","F","",""
"","","","","","survey-likert","192","1033691","0.0-154.0","BB21DCF13D8147F094E08F1DE0A5833B","0199d5fe-2caa-72a1-92a4-b069b62b1b86","0199d5ef-c7d4-7cab-a194-b2c3afbaf8e8","","17154","","{""Q0"":2}","5","1","surprise_rating","","[0]"
"","","","","","survey-likert","193","1035476","0.0-155.0","BB21DCF13D8147F094E08F1DE0A5833B","0199d5fe-2caa-72a1-92a4-b069b62b1b86","0199d5ef-c7d4-7cab-a194-b2c3afbaf8e8","","1784","","{""Q0"":2}","5","1","enjoyment_rating","","[0]"
"","","","","","html-keyboard-response","194","1041478","0.0-156.0","BB21DCF13D8147F094E08F1DE0A5833B","0199d5fe-2caa-72a1-92a4-b069b62b1b86","0199d5ef-c7d4-7cab-a194-b2c3afbaf8e8","","null","<div style=""display: flex; justify-content: center; align-items: center;"">
                     <img src=""images/other/blank.png"" style=""width: 300px; height: 300px;"" />
                   </div>","null","0","0","blank","",""
"","","","","","html-keyboard-response","195","1047479","0.0-157.0","BB21DCF13D8147F094E08F1DE0A5833B","0199d5fe-2caa-72a1-92a4-b069b62b1b86","0199d5ef-c7d4-7cab-a194-b2c3afbaf8e8","","null","<div style=""display: flex; justify-content: center; align-items: center;"">
                     <img src=""images/causal/causal_series_2/causal_series_2_a.png"" style=""width: 300px; height: 300px;"" />
                   </div>","null","2","2","A","",""
"","","","","","html-keyboard-response","196","1053480","0.0-158.0","BB21DCF13D8147F094E08F1DE0A5833B","0199d5fe-2caa-72a1-92a4-b069b62b1b86","0199d5ef-c7d4-7cab-a194-b2c3afbaf8e8","","null","<div style=""display: flex; justify-content: center; align-items: center;"">
                     <img src=""images/causal/causal_series_2/causal_series_2_b.png"" style=""width: 300px; height: 300px;"" />
                   </div>","null","2","2","B","",""
"","","","","","html-keyboard-response","197","1059481","0.0-159.0","BB21DCF13D8147F094E08F1DE0A5833B","0199d5fe-2caa-72a1-92a4-b069b62b1b86","0199d5ef-c7d4-7cab-a194-b2c3afbaf8e8","","null","<div style=""display: flex; justify-content: center; align-items: center;"">
                     <img src=""images/causal/causal_series_2/causal_series_2_c.png"" style=""width: 300px; height: 300px;"" />
                   </div>","null","2","2","C","",""
"","","","","","html-button-response","198","1063550","0.0-160.0","BB21DCF13D8147F094E08F1DE0A5833B","0199d5fe-2caa-72a1-92a4-b069b62b1b86","0199d5ef-c7d4-7cab-a194-b2c3afbaf8e8","","4067","
        <div style=""display: flex; justify-content: center; align-items: center;"">
          <img src=""images/red_deck_2.png"" style=""width: 300px; height: 300px; margin-right: 10px;"" />
          <img src=""images/blue_deck_1.png"" style=""width: 300px; height: 300px;"" />
        </div>","0","2","2","choice","0",""
"","","","","","html-keyboard-response","199","1069551","0.0-161.0-0.0-0.0","BB21DCF13D8147F094E08F1DE0A5833B","0199d5fe-2caa-72a1-92a4-b069b62b1b86","0199d5ef-c7d4-7cab-a194-b2c3afbaf8e8","","null","<div style=""display: flex; justify-content: center; align-items: center;"">
                     <img src=""images/causal/causal_series_2/causal_series_2_d.png"" style=""width: 300px; height: 300px;"" />
                   </div>","null","2","2","D","",""
"","","","","","html-keyboard-response","200","1075552","0.0-161.0-0.0-1.0","BB21DCF13D8147F094E08F1DE0A5833B","0199d5fe-2caa-72a1-92a4-b069b62b1b86","0199d5ef-c7d4-7cab-a194-b2c3afbaf8e8","","null","<div style=""display: flex; justify-content: center; align-items: center;"">
                     <img src=""images/causal/causal_series_2/causal_series_2_e.png"" style=""width: 300px; height: 300px;"" />
                   </div>","null","2","2","E","",""
"","","","","","html-keyboard-response","201","1081554","0.0-161.0-0.0-2.0","BB21DCF13D8147F094E08F1DE0A5833B","0199d5fe-2caa-72a1-92a4-b069b62b1b86","0199d5ef-c7d4-7cab-a194-b2c3afbaf8e8","","null","<div style=""display: flex; justify-content: center; align-items: center;"">
                     <img src=""images/causal/causal_series_2/causal_series_2_f.png"" style=""width: 300px; height: 300px;"" />
                   </div>","null","2","2","F","",""
"","","","","","survey-likert","202","1085382","0.0-162.0","BB21DCF13D8147F094E08F1DE0A5833B","0199d5fe-2caa-72a1-92a4-b069b62b1b86","0199d5ef-c7d4-7cab-a194-b2c3afbaf8e8","","3827","","{""Q0"":2}","2","2","surprise_rating","","[0]"
"","","","","","survey-likert","203","1087506","0.0-163.0","BB21DCF13D8147F094E08F1DE0A5833B","0199d5fe-2caa-72a1-92a4-b069b62b1b86","0199d5ef-c7d4-7cab-a194-b2c3afbaf8e8","","2122","","{""Q0"":2}","2","2","enjoyment_rating","","[0]"
"","","","","","html-keyboard-response","204","1093507","0.0-164.0","BB21DCF13D8147F094E08F1DE0A5833B","0199d5fe-2caa-72a1-92a4-b069b62b1b86","0199d5ef-c7d4-7cab-a194-b2c3afbaf8e8","","null","<div style=""display: flex; justify-content: center; align-items: center;"">
                     <img src=""images/other/blank.png"" style=""width: 300px; height: 300px;"" />
                   </div>","null","0","0","blank","",""
"","","","","","survey-text","205","1140743","0.0-165.0","BB21DCF13D8147F094E08F1DE0A5833B","0199d5fe-2caa-72a1-92a4-b069b62b1b86","0199d5ef-c7d4-7cab-a194-b2c3afbaf8e8","","47230","","{""Q0"":""the red deck seemed to be unrelated to the story line where as the blue deck was somewhat related to the story but still odd""}","","","","",""
"","","","","","html-button-response","206","1145810","0.0-166.0","BB21DCF13D8147F094E08F1DE0A5833B","0199d5fe-2caa-72a1-92a4-b069b62b1b86","0199d5ef-c7d4-7cab-a194-b2c3afbaf8e8","","5066","Which color deck do the following sentences continue the story from?","0","","","","",""
"","","","","","html-button-response","207","1147655","0.0-167.0","BB21DCF13D8147F094E08F1DE0A5833B","0199d5fe-2caa-72a1-92a4-b069b62b1b86","0199d5ef-c7d4-7cab-a194-b2c3afbaf8e8","","1844","Which color deck do the following sentences NOT follow the story from?","1","","","","",""
"","","","","","html-button-response","208","1149551","0.0-168.0","BB21DCF13D8147F094E08F1DE0A5833B","0199d5fe-2caa-72a1-92a4-b069b62b1b86","0199d5ef-c7d4-7cab-a194-b2c3afbaf8e8","","1895","Which type of deck did you prefer overall?","0","","","","",""
"","","","","","survey-text","209","1159010","0.0-169.0","BB21DCF13D8147F094E08F1DE0A5833B","0199d5fe-2caa-72a1-92a4-b069b62b1b86","0199d5ef-c7d4-7cab-a194-b2c3afbaf8e8","","9456","","{""Q0"":""FEMALE"",""Q1"":""31""}","","","","",""
"","","","","","instructions","210","1162990","0.0-170.0","BB21DCF13D8147F094E08F1DE0A5833B","0199d5fe-2caa-72a1-92a4-b069b62b1b86","0199d5ef-c7d4-7cab-a194-b2c3afbaf8e8","[{""page_index"":0,""viewing_time"":3979}]","3980","","","","","","",""
