"success","timeout","failed_images","failed_audio","failed_video","trial_type","trial_index","time_elapsed","internal_node_id","subject_id","study_id","session_id","view_history","rt","stimulus","response","choice"
"true","false","[]","[]","[]","preload","0","13358","0.0-0.0","B67F83AFF19D40C0930DCAEF894D052E","654e8eab-2fcc-466e-9c49-5ea61ae4480e","4f03f330-5f91-43fc-aa61-d9dda6d26521","","","","",""
"","","","","","instructions","1","34518","0.0-1.0","B67F83AFF19D40C0930DCAEF894D052E","654e8eab-2fcc-466e-9c49-5ea61ae4480e","4f03f330-5f91-43fc-aa61-d9dda6d26521","[{""page_index"":0,""viewing_time"":21158}]","21158","","",""
"","","","","","instructions","2","62556","0.0-2.0","B67F83AFF19D40C0930DCAEF894D052E","654e8eab-2fcc-466e-9c49-5ea61ae4480e","4f03f330-5f91-43fc-aa61-d9dda6d26521","[{""page_index"":0,""viewing_time"":28037}]","28038","","",""
"true","","","","","fullscreen","3","77502","0.0-3.0","B67F83AFF19D40C0930DCAEF894D052E","654e8eab-2fcc-466e-9c49-5ea61ae4480e","4f03f330-5f91-43fc-aa61-d9dda6d26521","","13933","","",""
"","","","","","instructions","4","143152","0.0-4.0","B67F83AFF19D40C0930DCAEF894D052E","654e8eab-2fcc-466e-9c49-5ea61ae4480e","4f03f330-5f91-43fc-aa61-d9dda6d26521","[{""page_index"":0,""viewing_time"":65649}]","65650","","",""
"","","","","","html-keyboard-response","5","146155","0.0-5.0","B67F83AFF19D40C0930DCAEF894D052E","654e8eab-2fcc-466e-9c49-5ea61ae4480e","4f03f330-5f91-43fc-aa61-d9dda6d26521","","null","<div style=""display: flex; justify-content: center; align-items: center;"">
                <img src=""images/causal/causal_series_11/causal_series_11_a.jpg"" style=""width: 300px; height: 300px;"" />
              </div>","null",""
"","","","","","html-button-response","6","151146","0.0-6.0","B67F83AFF19D40C0930DCAEF894D052E","654e8eab-2fcc-466e-9c49-5ea61ae4480e","4f03f330-5f91-43fc-aa61-d9dda6d26521","","4989","
    <div style=""display: flex; justify-content: center; align-items: center;"">
      <img src=""images/red_deck_2.png"" style=""width: 300px; height: 300px; margin-right: 10px;"" />
      <img src=""images/blue_deck_1.png"" style=""width: 300px; height: 300px;"" />
    </div>","0","0"
"","","","","","html-keyboard-response","7","154159","0.0-7.0-0.0-0.0","B67F83AFF19D40C0930DCAEF894D052E","654e8eab-2fcc-466e-9c49-5ea61ae4480e","4f03f330-5f91-43fc-aa61-d9dda6d26521","","null","<div style=""display: flex; justify-content: center; align-items: center;"">
                <img src=""images/causal/causal_series_11/causal_series_11_b.jpg"" style=""width: 300px; height: 300px;"" />
              </div>","null",""
"","","","","","html-keyboard-response","8","157165","0.0-7.0-0.0-1.0","B67F83AFF19D40C0930DCAEF894D052E","654e8eab-2fcc-466e-9c49-5ea61ae4480e","4f03f330-5f91-43fc-aa61-d9dda6d26521","","null","<div style=""display: flex; justify-content: center; align-items: center;"">
                <img src=""images/causal/causal_series_11/causal_series_11_c.jpg"" style=""width: 300px; height: 300px;"" />
              </div>","null",""
"","","","","","html-keyboard-response","9","160168","0.0-7.0-0.0-2.0","B67F83AFF19D40C0930DCAEF894D052E","654e8eab-2fcc-466e-9c49-5ea61ae4480e","4f03f330-5f91-43fc-aa61-d9dda6d26521","","null","<div style=""display: flex; justify-content: center; align-items: center;"">
                <img src=""images/causal/causal_series_11/causal_series_11_d.jpg"" style=""width: 300px; height: 300px;"" />
              </div>","null",""
"","","","","","html-keyboard-response","10","163175","0.0-8.0","B67F83AFF19D40C0930DCAEF894D052E","654e8eab-2fcc-466e-9c49-5ea61ae4480e","4f03f330-5f91-43fc-aa61-d9dda6d26521","","null","<div style=""display: flex; justify-content: center; align-items: center;"">
                <img src=""images/other/blank.jpg"" style=""width: 300px; height: 300px;"" />
              </div>","null",""
"","","","","","html-keyboard-response","11","166181","0.0-9.0","B67F83AFF19D40C0930DCAEF894D052E","654e8eab-2fcc-466e-9c49-5ea61ae4480e","4f03f330-5f91-43fc-aa61-d9dda6d26521","","null","<div style=""display: flex; justify-content: center; align-items: center;"">
                <img src=""images/causal/causal_series_2/causal_series_2_a.jpg"" style=""width: 300px; height: 300px;"" />
              </div>","null",""
"","","","","","html-button-response","12","169264","0.0-10.0","B67F83AFF19D40C0930DCAEF894D052E","654e8eab-2fcc-466e-9c49-5ea61ae4480e","4f03f330-5f91-43fc-aa61-d9dda6d26521","","3081","
    <div style=""display: flex; justify-content: center; align-items: center;"">
      <img src=""images/red_deck_2.png"" style=""width: 300px; height: 300px; margin-right: 10px;"" />
      <img src=""images/blue_deck_1.png"" style=""width: 300px; height: 300px;"" />
    </div>","1","1"
"","","","","","html-keyboard-response","13","172280","0.0-11.0-1.0-0.0","B67F83AFF19D40C0930DCAEF894D052E","654e8eab-2fcc-466e-9c49-5ea61ae4480e","4f03f330-5f91-43fc-aa61-d9dda6d26521","","null","<div style=""display: flex; justify-content: center; align-items: center;"">
                <img src=""images/semantic/semantic_series_3/semantic_series_3_d.jpg"" style=""width: 300px; height: 300px;"" />
              </div>","null",""
"","","","","","html-keyboard-response","14","175289","0.0-11.0-1.0-1.0","B67F83AFF19D40C0930DCAEF894D052E","654e8eab-2fcc-466e-9c49-5ea61ae4480e","4f03f330-5f91-43fc-aa61-d9dda6d26521","","null","<div style=""display: flex; justify-content: center; align-items: center;"">
                <img src=""images/semantic/semantic_series_4/semantic_series_4_d.jpg"" style=""width: 300px; height: 300px;"" />
              </div>","null",""
"","","","","","html-keyboard-response","15","178301","0.0-11.0-1.0-2.0","B67F83AFF19D40C0930DCAEF894D052E","654e8eab-2fcc-466e-9c49-5ea61ae4480e","4f03f330-5f91-43fc-aa61-d9dda6d26521","","null","<div style=""display: flex; justify-content: center; align-items: center;"">
                <img src=""images/semantic/semantic_series_5/semantic_series_5_d.jpg"" style=""width: 300px; height: 300px;"" />
              </div>","null",""
"","","","","","html-keyboard-response","16","181303","0.0-12.0","B67F83AFF19D40C0930DCAEF894D052E","654e8eab-2fcc-466e-9c49-5ea61ae4480e","4f03f330-5f91-43fc-aa61-d9dda6d26521","","null","<div style=""display: flex; justify-content: center; align-items: center;"">
                <img src=""images/other/blank.jpg"" style=""width: 300px; height: 300px;"" />
              </div>","null",""
"","","","","","html-keyboard-response","17","184314","0.0-13.0","B67F83AFF19D40C0930DCAEF894D052E","654e8eab-2fcc-466e-9c49-5ea61ae4480e","4f03f330-5f91-43fc-aa61-d9dda6d26521","","null","<div style=""display: flex; justify-content: center; align-items: center;"">
                <img src=""images/causal/causal_series_7/causal_series_7_a.jpg"" style=""width: 300px; height: 300px;"" />
              </div>","null",""
"","","","","","html-button-response","18","185714","0.0-14.0","B67F83AFF19D40C0930DCAEF894D052E","654e8eab-2fcc-466e-9c49-5ea61ae4480e","4f03f330-5f91-43fc-aa61-d9dda6d26521","","1399","
    <div style=""display: flex; justify-content: center; align-items: center;"">
      <img src=""images/red_deck_2.png"" style=""width: 300px; height: 300px; margin-right: 10px;"" />
      <img src=""images/blue_deck_1.png"" style=""width: 300px; height: 300px;"" />
    </div>","0","0"
"","","","","","html-keyboard-response","19","188724","0.0-15.0-0.0-0.0","B67F83AFF19D40C0930DCAEF894D052E","654e8eab-2fcc-466e-9c49-5ea61ae4480e","4f03f330-5f91-43fc-aa61-d9dda6d26521","","null","<div style=""display: flex; justify-content: center; align-items: center;"">
                <img src=""images/causal/causal_series_7/causal_series_7_b.jpg"" style=""width: 300px; height: 300px;"" />
              </div>","null",""
"","","","","","html-keyboard-response","20","191736","0.0-15.0-0.0-1.0","B67F83AFF19D40C0930DCAEF894D052E","654e8eab-2fcc-466e-9c49-5ea61ae4480e","4f03f330-5f91-43fc-aa61-d9dda6d26521","","null","<div style=""display: flex; justify-content: center; align-items: center;"">
                <img src=""images/causal/causal_series_7/causal_series_7_c.jpg"" style=""width: 300px; height: 300px;"" />
              </div>","null",""
"","","","","","html-keyboard-response","21","194738","0.0-15.0-0.0-2.0","B67F83AFF19D40C0930DCAEF894D052E","654e8eab-2fcc-466e-9c49-5ea61ae4480e","4f03f330-5f91-43fc-aa61-d9dda6d26521","","null","<div style=""display: flex; justify-content: center; align-items: center;"">
                <img src=""images/causal/causal_series_7/causal_series_7_d.jpg"" style=""width: 300px; height: 300px;"" />
              </div>","null",""
"","","","","","html-keyboard-response","22","197750","0.0-16.0","B67F83AFF19D40C0930DCAEF894D052E","654e8eab-2fcc-466e-9c49-5ea61ae4480e","4f03f330-5f91-43fc-aa61-d9dda6d26521","","null","<div style=""display: flex; justify-content: center; align-items: center;"">
                <img src=""images/other/blank.jpg"" style=""width: 300px; height: 300px;"" />
              </div>","null",""
"","","","","","html-keyboard-response","23","200766","0.0-17.0","B67F83AFF19D40C0930DCAEF894D052E","654e8eab-2fcc-466e-9c49-5ea61ae4480e","4f03f330-5f91-43fc-aa61-d9dda6d26521","","null","<div style=""display: flex; justify-content: center; align-items: center;"">
                <img src=""images/causal/causal_series_1/causal_series_1_a.jpg"" style=""width: 300px; height: 300px;"" />
              </div>","null",""
"","","","","","html-button-response","24","201815","0.0-18.0","B67F83AFF19D40C0930DCAEF894D052E","654e8eab-2fcc-466e-9c49-5ea61ae4480e","4f03f330-5f91-43fc-aa61-d9dda6d26521","","1048","
    <div style=""display: flex; justify-content: center; align-items: center;"">
      <img src=""images/red_deck_2.png"" style=""width: 300px; height: 300px; margin-right: 10px;"" />
      <img src=""images/blue_deck_1.png"" style=""width: 300px; height: 300px;"" />
    </div>","1","1"
"","","","","","html-keyboard-response","25","204825","0.0-19.0-1.0-0.0","B67F83AFF19D40C0930DCAEF894D052E","654e8eab-2fcc-466e-9c49-5ea61ae4480e","4f03f330-5f91-43fc-aa61-d9dda6d26521","","null","<div style=""display: flex; justify-content: center; align-items: center;"">
                <img src=""images/semantic/semantic_series_18/semantic_series_18_d.jpg"" style=""width: 300px; height: 300px;"" />
              </div>","null",""
"","","","","","html-keyboard-response","26","207838","0.0-19.0-1.0-1.0","B67F83AFF19D40C0930DCAEF894D052E","654e8eab-2fcc-466e-9c49-5ea61ae4480e","4f03f330-5f91-43fc-aa61-d9dda6d26521","","null","<div style=""display: flex; justify-content: center; align-items: center;"">
                <img src=""images/semantic/semantic_series_1/semantic_series_1_d.jpg"" style=""width: 300px; height: 300px;"" />
              </div>","null",""
"","","","","","html-keyboard-response","27","210851","0.0-19.0-1.0-2.0","B67F83AFF19D40C0930DCAEF894D052E","654e8eab-2fcc-466e-9c49-5ea61ae4480e","4f03f330-5f91-43fc-aa61-d9dda6d26521","","null","<div style=""display: flex; justify-content: center; align-items: center;"">
                <img src=""images/semantic/semantic_series_2/semantic_series_2_d.jpg"" style=""width: 300px; height: 300px;"" />
              </div>","null",""
"","","","","","html-keyboard-response","28","213864","0.0-20.0","B67F83AFF19D40C0930DCAEF894D052E","654e8eab-2fcc-466e-9c49-5ea61ae4480e","4f03f330-5f91-43fc-aa61-d9dda6d26521","","null","<div style=""display: flex; justify-content: center; align-items: center;"">
                <img src=""images/other/blank.jpg"" style=""width: 300px; height: 300px;"" />
              </div>","null",""
"","","","","","html-keyboard-response","29","216880","0.0-21.0","B67F83AFF19D40C0930DCAEF894D052E","654e8eab-2fcc-466e-9c49-5ea61ae4480e","4f03f330-5f91-43fc-aa61-d9dda6d26521","","null","<div style=""display: flex; justify-content: center; align-items: center;"">
                <img src=""images/causal/causal_series_18/causal_series_18_a.jpg"" style=""width: 300px; height: 300px;"" />
              </div>","null",""
"","","","","","html-button-response","30","219409","0.0-22.0","B67F83AFF19D40C0930DCAEF894D052E","654e8eab-2fcc-466e-9c49-5ea61ae4480e","4f03f330-5f91-43fc-aa61-d9dda6d26521","","2528","
    <div style=""display: flex; justify-content: center; align-items: center;"">
      <img src=""images/red_deck_2.png"" style=""width: 300px; height: 300px; margin-right: 10px;"" />
      <img src=""images/blue_deck_1.png"" style=""width: 300px; height: 300px;"" />
    </div>","0","0"
"","","","","","html-keyboard-response","31","222418","0.0-23.0-0.0-0.0","B67F83AFF19D40C0930DCAEF894D052E","654e8eab-2fcc-466e-9c49-5ea61ae4480e","4f03f330-5f91-43fc-aa61-d9dda6d26521","","null","<div style=""display: flex; justify-content: center; align-items: center;"">
                <img src=""images/causal/causal_series_18/causal_series_18_b.jpg"" style=""width: 300px; height: 300px;"" />
              </div>","null",""
"","","","","","html-keyboard-response","32","225423","0.0-23.0-0.0-1.0","B67F83AFF19D40C0930DCAEF894D052E","654e8eab-2fcc-466e-9c49-5ea61ae4480e","4f03f330-5f91-43fc-aa61-d9dda6d26521","","null","<div style=""display: flex; justify-content: center; align-items: center;"">
                <img src=""images/causal/causal_series_18/causal_series_18_c.jpg"" style=""width: 300px; height: 300px;"" />
              </div>","null",""
"","","","","","html-keyboard-response","33","228427","0.0-23.0-0.0-2.0","B67F83AFF19D40C0930DCAEF894D052E","654e8eab-2fcc-466e-9c49-5ea61ae4480e","4f03f330-5f91-43fc-aa61-d9dda6d26521","","null","<div style=""display: flex; justify-content: center; align-items: center;"">
                <img src=""images/causal/causal_series_18/causal_series_18_d.jpg"" style=""width: 300px; height: 300px;"" />
              </div>","null",""
"","","","","","html-keyboard-response","34","231430","0.0-24.0","B67F83AFF19D40C0930DCAEF894D052E","654e8eab-2fcc-466e-9c49-5ea61ae4480e","4f03f330-5f91-43fc-aa61-d9dda6d26521","","null","<div style=""display: flex; justify-content: center; align-items: center;"">
                <img src=""images/other/blank.jpg"" style=""width: 300px; height: 300px;"" />
              </div>","null",""
"","","","","","html-keyboard-response","35","234436","0.0-25.0","B67F83AFF19D40C0930DCAEF894D052E","654e8eab-2fcc-466e-9c49-5ea61ae4480e","4f03f330-5f91-43fc-aa61-d9dda6d26521","","null","<div style=""display: flex; justify-content: center; align-items: center;"">
                <img src=""images/causal/causal_series_8/causal_series_8_a.jpg"" style=""width: 300px; height: 300px;"" />
              </div>","null",""
"","","","","","html-button-response","36","236652","0.0-26.0","B67F83AFF19D40C0930DCAEF894D052E","654e8eab-2fcc-466e-9c49-5ea61ae4480e","4f03f330-5f91-43fc-aa61-d9dda6d26521","","2215","
    <div style=""display: flex; justify-content: center; align-items: center;"">
      <img src=""images/red_deck_2.png"" style=""width: 300px; height: 300px; margin-right: 10px;"" />
      <img src=""images/blue_deck_1.png"" style=""width: 300px; height: 300px;"" />
    </div>","0","0"
"","","","","","html-keyboard-response","37","239657","0.0-27.0-0.0-0.0","B67F83AFF19D40C0930DCAEF894D052E","654e8eab-2fcc-466e-9c49-5ea61ae4480e","4f03f330-5f91-43fc-aa61-d9dda6d26521","","null","<div style=""display: flex; justify-content: center; align-items: center;"">
                <img src=""images/causal/causal_series_8/causal_series_8_b.jpg"" style=""width: 300px; height: 300px;"" />
              </div>","null",""
"","","","","","html-keyboard-response","38","242662","0.0-27.0-0.0-1.0","B67F83AFF19D40C0930DCAEF894D052E","654e8eab-2fcc-466e-9c49-5ea61ae4480e","4f03f330-5f91-43fc-aa61-d9dda6d26521","","null","<div style=""display: flex; justify-content: center; align-items: center;"">
                <img src=""images/causal/causal_series_8/causal_series_8_c.jpg"" style=""width: 300px; height: 300px;"" />
              </div>","null",""
"","","","","","html-keyboard-response","39","245671","0.0-27.0-0.0-2.0","B67F83AFF19D40C0930DCAEF894D052E","654e8eab-2fcc-466e-9c49-5ea61ae4480e","4f03f330-5f91-43fc-aa61-d9dda6d26521","","null","<div style=""display: flex; justify-content: center; align-items: center;"">
                <img src=""images/causal/causal_series_8/causal_series_8_d.jpg"" style=""width: 300px; height: 300px;"" />
              </div>","null",""
"","","","","","html-keyboard-response","40","248682","0.0-28.0","B67F83AFF19D40C0930DCAEF894D052E","654e8eab-2fcc-466e-9c49-5ea61ae4480e","4f03f330-5f91-43fc-aa61-d9dda6d26521","","null","<div style=""display: flex; justify-content: center; align-items: center;"">
                <img src=""images/other/blank.jpg"" style=""width: 300px; height: 300px;"" />
              </div>","null",""
"","","","","","html-keyboard-response","41","251684","0.0-29.0","B67F83AFF19D40C0930DCAEF894D052E","654e8eab-2fcc-466e-9c49-5ea61ae4480e","4f03f330-5f91-43fc-aa61-d9dda6d26521","","null","<div style=""display: flex; justify-content: center; align-items: center;"">
                <img src=""images/causal/causal_series_3/causal_series_3_a.jpg"" style=""width: 300px; height: 300px;"" />
              </div>","null",""
"","","","","","html-button-response","42","254145","0.0-30.0","B67F83AFF19D40C0930DCAEF894D052E","654e8eab-2fcc-466e-9c49-5ea61ae4480e","4f03f330-5f91-43fc-aa61-d9dda6d26521","","2461","
    <div style=""display: flex; justify-content: center; align-items: center;"">
      <img src=""images/red_deck_2.png"" style=""width: 300px; height: 300px; margin-right: 10px;"" />
      <img src=""images/blue_deck_1.png"" style=""width: 300px; height: 300px;"" />
    </div>","0","0"
"","","","","","html-keyboard-response","43","257160","0.0-31.0-0.0-0.0","B67F83AFF19D40C0930DCAEF894D052E","654e8eab-2fcc-466e-9c49-5ea61ae4480e","4f03f330-5f91-43fc-aa61-d9dda6d26521","","null","<div style=""display: flex; justify-content: center; align-items: center;"">
                <img src=""images/causal/causal_series_3/causal_series_3_b.jpg"" style=""width: 300px; height: 300px;"" />
              </div>","null",""
"","","","","","html-keyboard-response","44","260175","0.0-31.0-0.0-1.0","B67F83AFF19D40C0930DCAEF894D052E","654e8eab-2fcc-466e-9c49-5ea61ae4480e","4f03f330-5f91-43fc-aa61-d9dda6d26521","","null","<div style=""display: flex; justify-content: center; align-items: center;"">
                <img src=""images/causal/causal_series_3/causal_series_3_c.jpg"" style=""width: 300px; height: 300px;"" />
              </div>","null",""
"","","","","","html-keyboard-response","45","263180","0.0-31.0-0.0-2.0","B67F83AFF19D40C0930DCAEF894D052E","654e8eab-2fcc-466e-9c49-5ea61ae4480e","4f03f330-5f91-43fc-aa61-d9dda6d26521","","null","<div style=""display: flex; justify-content: center; align-items: center;"">
                <img src=""images/causal/causal_series_3/causal_series_3_d.jpg"" style=""width: 300px; height: 300px;"" />
              </div>","null",""
"","","","","","html-keyboard-response","46","266190","0.0-32.0","B67F83AFF19D40C0930DCAEF894D052E","654e8eab-2fcc-466e-9c49-5ea61ae4480e","4f03f330-5f91-43fc-aa61-d9dda6d26521","","null","<div style=""display: flex; justify-content: center; align-items: center;"">
                <img src=""images/other/blank.jpg"" style=""width: 300px; height: 300px;"" />
              </div>","null",""
"","","","","","html-keyboard-response","47","269202","0.0-33.0","B67F83AFF19D40C0930DCAEF894D052E","654e8eab-2fcc-466e-9c49-5ea61ae4480e","4f03f330-5f91-43fc-aa61-d9dda6d26521","","null","<div style=""display: flex; justify-content: center; align-items: center;"">
                <img src=""images/causal/causal_series_17/causal_series_17_a.jpg"" style=""width: 300px; height: 300px;"" />
              </div>","null",""
"","","","","","html-button-response","48","271642","0.0-34.0","B67F83AFF19D40C0930DCAEF894D052E","654e8eab-2fcc-466e-9c49-5ea61ae4480e","4f03f330-5f91-43fc-aa61-d9dda6d26521","","2439","
    <div style=""display: flex; justify-content: center; align-items: center;"">
      <img src=""images/red_deck_2.png"" style=""width: 300px; height: 300px; margin-right: 10px;"" />
      <img src=""images/blue_deck_1.png"" style=""width: 300px; height: 300px;"" />
    </div>","1","1"
"","","","","","html-keyboard-response","49","274649","0.0-35.0-1.0-0.0","B67F83AFF19D40C0930DCAEF894D052E","654e8eab-2fcc-466e-9c49-5ea61ae4480e","4f03f330-5f91-43fc-aa61-d9dda6d26521","","null","<div style=""display: flex; justify-content: center; align-items: center;"">
                <img src=""images/semantic/semantic_series_12/semantic_series_12_d.jpg"" style=""width: 300px; height: 300px;"" />
              </div>","null",""
"","","","","","html-keyboard-response","50","277665","0.0-35.0-1.0-1.0","B67F83AFF19D40C0930DCAEF894D052E","654e8eab-2fcc-466e-9c49-5ea61ae4480e","4f03f330-5f91-43fc-aa61-d9dda6d26521","","null","<div style=""display: flex; justify-content: center; align-items: center;"">
                <img src=""images/semantic/semantic_series_13/semantic_series_13_d.jpg"" style=""width: 300px; height: 300px;"" />
              </div>","null",""
"","","","","","html-keyboard-response","51","280670","0.0-35.0-1.0-2.0","B67F83AFF19D40C0930DCAEF894D052E","654e8eab-2fcc-466e-9c49-5ea61ae4480e","4f03f330-5f91-43fc-aa61-d9dda6d26521","","null","<div style=""display: flex; justify-content: center; align-items: center;"">
                <img src=""images/semantic/semantic_series_14/semantic_series_14_d.jpg"" style=""width: 300px; height: 300px;"" />
              </div>","null",""
"","","","","","html-keyboard-response","52","283674","0.0-36.0","B67F83AFF19D40C0930DCAEF894D052E","654e8eab-2fcc-466e-9c49-5ea61ae4480e","4f03f330-5f91-43fc-aa61-d9dda6d26521","","null","<div style=""display: flex; justify-content: center; align-items: center;"">
                <img src=""images/other/blank.jpg"" style=""width: 300px; height: 300px;"" />
              </div>","null",""
"","","","","","html-keyboard-response","53","286690","0.0-37.0","B67F83AFF19D40C0930DCAEF894D052E","654e8eab-2fcc-466e-9c49-5ea61ae4480e","4f03f330-5f91-43fc-aa61-d9dda6d26521","","null","<div style=""display: flex; justify-content: center; align-items: center;"">
                <img src=""images/causal/causal_series_15/causal_series_15_a.jpg"" style=""width: 300px; height: 300px;"" />
              </div>","null",""
"","","","","","html-button-response","54","288249","0.0-38.0","B67F83AFF19D40C0930DCAEF894D052E","654e8eab-2fcc-466e-9c49-5ea61ae4480e","4f03f330-5f91-43fc-aa61-d9dda6d26521","","1558","
    <div style=""display: flex; justify-content: center; align-items: center;"">
      <img src=""images/red_deck_2.png"" style=""width: 300px; height: 300px; margin-right: 10px;"" />
      <img src=""images/blue_deck_1.png"" style=""width: 300px; height: 300px;"" />
    </div>","0","0"
"","","","","","html-keyboard-response","55","291265","0.0-39.0-0.0-0.0","B67F83AFF19D40C0930DCAEF894D052E","654e8eab-2fcc-466e-9c49-5ea61ae4480e","4f03f330-5f91-43fc-aa61-d9dda6d26521","","null","<div style=""display: flex; justify-content: center; align-items: center;"">
                <img src=""images/causal/causal_series_15/causal_series_15_b.jpg"" style=""width: 300px; height: 300px;"" />
              </div>","null",""
"","","","","","html-keyboard-response","56","294280","0.0-39.0-0.0-1.0","B67F83AFF19D40C0930DCAEF894D052E","654e8eab-2fcc-466e-9c49-5ea61ae4480e","4f03f330-5f91-43fc-aa61-d9dda6d26521","","null","<div style=""display: flex; justify-content: center; align-items: center;"">
                <img src=""images/causal/causal_series_15/causal_series_15_c.jpg"" style=""width: 300px; height: 300px;"" />
              </div>","null",""
"","","","","","html-keyboard-response","57","297288","0.0-39.0-0.0-2.0","B67F83AFF19D40C0930DCAEF894D052E","654e8eab-2fcc-466e-9c49-5ea61ae4480e","4f03f330-5f91-43fc-aa61-d9dda6d26521","","null","<div style=""display: flex; justify-content: center; align-items: center;"">
                <img src=""images/causal/causal_series_15/causal_series_15_d.jpg"" style=""width: 300px; height: 300px;"" />
              </div>","null",""
"","","","","","html-keyboard-response","58","300297","0.0-40.0","B67F83AFF19D40C0930DCAEF894D052E","654e8eab-2fcc-466e-9c49-5ea61ae4480e","4f03f330-5f91-43fc-aa61-d9dda6d26521","","null","<div style=""display: flex; justify-content: center; align-items: center;"">
                <img src=""images/other/blank.jpg"" style=""width: 300px; height: 300px;"" />
              </div>","null",""
"","","","","","html-keyboard-response","59","303307","0.0-41.0","B67F83AFF19D40C0930DCAEF894D052E","654e8eab-2fcc-466e-9c49-5ea61ae4480e","4f03f330-5f91-43fc-aa61-d9dda6d26521","","null","<div style=""display: flex; justify-content: center; align-items: center;"">
                <img src=""images/causal/causal_series_14/causal_series_14_a.jpg"" style=""width: 300px; height: 300px;"" />
              </div>","null",""
"","","","","","html-button-response","60","305523","0.0-42.0","B67F83AFF19D40C0930DCAEF894D052E","654e8eab-2fcc-466e-9c49-5ea61ae4480e","4f03f330-5f91-43fc-aa61-d9dda6d26521","","2214","
    <div style=""display: flex; justify-content: center; align-items: center;"">
      <img src=""images/red_deck_2.png"" style=""width: 300px; height: 300px; margin-right: 10px;"" />
      <img src=""images/blue_deck_1.png"" style=""width: 300px; height: 300px;"" />
    </div>","1","1"
"","","","","","html-keyboard-response","61","308529","0.0-43.0-1.0-0.0","B67F83AFF19D40C0930DCAEF894D052E","654e8eab-2fcc-466e-9c49-5ea61ae4480e","4f03f330-5f91-43fc-aa61-d9dda6d26521","","null","<div style=""display: flex; justify-content: center; align-items: center;"">
                <img src=""images/semantic/semantic_series_3/semantic_series_3_d.jpg"" style=""width: 300px; height: 300px;"" />
              </div>","null",""
"","","","","","html-keyboard-response","62","311531","0.0-43.0-1.0-1.0","B67F83AFF19D40C0930DCAEF894D052E","654e8eab-2fcc-466e-9c49-5ea61ae4480e","4f03f330-5f91-43fc-aa61-d9dda6d26521","","null","<div style=""display: flex; justify-content: center; align-items: center;"">
                <img src=""images/semantic/semantic_series_4/semantic_series_4_d.jpg"" style=""width: 300px; height: 300px;"" />
              </div>","null",""
"","","","","","html-keyboard-response","63","314542","0.0-43.0-1.0-2.0","B67F83AFF19D40C0930DCAEF894D052E","654e8eab-2fcc-466e-9c49-5ea61ae4480e","4f03f330-5f91-43fc-aa61-d9dda6d26521","","null","<div style=""display: flex; justify-content: center; align-items: center;"">
                <img src=""images/semantic/semantic_series_5/semantic_series_5_d.jpg"" style=""width: 300px; height: 300px;"" />
              </div>","null",""
"","","","","","html-keyboard-response","64","317558","0.0-44.0","B67F83AFF19D40C0930DCAEF894D052E","654e8eab-2fcc-466e-9c49-5ea61ae4480e","4f03f330-5f91-43fc-aa61-d9dda6d26521","","null","<div style=""display: flex; justify-content: center; align-items: center;"">
                <img src=""images/other/blank.jpg"" style=""width: 300px; height: 300px;"" />
              </div>","null",""
"","","","","","html-keyboard-response","65","320563","0.0-45.0","B67F83AFF19D40C0930DCAEF894D052E","654e8eab-2fcc-466e-9c49-5ea61ae4480e","4f03f330-5f91-43fc-aa61-d9dda6d26521","","null","<div style=""display: flex; justify-content: center; align-items: center;"">
                <img src=""images/causal/causal_series_13/causal_series_13_a.jpg"" style=""width: 300px; height: 300px;"" />
              </div>","null",""
"","","","","","html-button-response","66","323214","0.0-46.0","B67F83AFF19D40C0930DCAEF894D052E","654e8eab-2fcc-466e-9c49-5ea61ae4480e","4f03f330-5f91-43fc-aa61-d9dda6d26521","","2650","
    <div style=""display: flex; justify-content: center; align-items: center;"">
      <img src=""images/red_deck_2.png"" style=""width: 300px; height: 300px; margin-right: 10px;"" />
      <img src=""images/blue_deck_1.png"" style=""width: 300px; height: 300px;"" />
    </div>","0","0"
"","","","","","html-keyboard-response","67","326217","0.0-47.0-0.0-0.0","B67F83AFF19D40C0930DCAEF894D052E","654e8eab-2fcc-466e-9c49-5ea61ae4480e","4f03f330-5f91-43fc-aa61-d9dda6d26521","","null","<div style=""display: flex; justify-content: center; align-items: center;"">
                <img src=""images/causal/causal_series_13/causal_series_13_b.jpg"" style=""width: 300px; height: 300px;"" />
              </div>","null",""
"","","","","","html-keyboard-response","68","329221","0.0-47.0-0.0-1.0","B67F83AFF19D40C0930DCAEF894D052E","654e8eab-2fcc-466e-9c49-5ea61ae4480e","4f03f330-5f91-43fc-aa61-d9dda6d26521","","null","<div style=""display: flex; justify-content: center; align-items: center;"">
                <img src=""images/causal/causal_series_13/causal_series_13_c.jpg"" style=""width: 300px; height: 300px;"" />
              </div>","null",""
"","","","","","html-keyboard-response","69","332223","0.0-47.0-0.0-2.0","B67F83AFF19D40C0930DCAEF894D052E","654e8eab-2fcc-466e-9c49-5ea61ae4480e","4f03f330-5f91-43fc-aa61-d9dda6d26521","","null","<div style=""display: flex; justify-content: center; align-items: center;"">
                <img src=""images/causal/causal_series_13/causal_series_13_d.jpg"" style=""width: 300px; height: 300px;"" />
              </div>","null",""
"","","","","","html-keyboard-response","70","335227","0.0-48.0","B67F83AFF19D40C0930DCAEF894D052E","654e8eab-2fcc-466e-9c49-5ea61ae4480e","4f03f330-5f91-43fc-aa61-d9dda6d26521","","null","<div style=""display: flex; justify-content: center; align-items: center;"">
                <img src=""images/other/blank.jpg"" style=""width: 300px; height: 300px;"" />
              </div>","null",""
"","","","","","html-keyboard-response","71","338232","0.0-49.0","B67F83AFF19D40C0930DCAEF894D052E","654e8eab-2fcc-466e-9c49-5ea61ae4480e","4f03f330-5f91-43fc-aa61-d9dda6d26521","","null","<div style=""display: flex; justify-content: center; align-items: center;"">
                <img src=""images/causal/causal_series_16/causal_series_16_a.jpg"" style=""width: 300px; height: 300px;"" />
              </div>","null",""
"","","","","","html-button-response","72","340258","0.0-50.0","B67F83AFF19D40C0930DCAEF894D052E","654e8eab-2fcc-466e-9c49-5ea61ae4480e","4f03f330-5f91-43fc-aa61-d9dda6d26521","","2025","
    <div style=""display: flex; justify-content: center; align-items: center;"">
      <img src=""images/red_deck_2.png"" style=""width: 300px; height: 300px; margin-right: 10px;"" />
      <img src=""images/blue_deck_1.png"" style=""width: 300px; height: 300px;"" />
    </div>","0","0"
"","","","","","html-keyboard-response","73","343265","0.0-51.0-0.0-0.0","B67F83AFF19D40C0930DCAEF894D052E","654e8eab-2fcc-466e-9c49-5ea61ae4480e","4f03f330-5f91-43fc-aa61-d9dda6d26521","","null","<div style=""display: flex; justify-content: center; align-items: center;"">
                <img src=""images/causal/causal_series_16/causal_series_16_b.jpg"" style=""width: 300px; height: 300px;"" />
              </div>","null",""
"","","","","","html-keyboard-response","74","346273","0.0-51.0-0.0-1.0","B67F83AFF19D40C0930DCAEF894D052E","654e8eab-2fcc-466e-9c49-5ea61ae4480e","4f03f330-5f91-43fc-aa61-d9dda6d26521","","null","<div style=""display: flex; justify-content: center; align-items: center;"">
                <img src=""images/causal/causal_series_16/causal_series_16_c.jpg"" style=""width: 300px; height: 300px;"" />
              </div>","null",""
"","","","","","html-keyboard-response","75","349287","0.0-51.0-0.0-2.0","B67F83AFF19D40C0930DCAEF894D052E","654e8eab-2fcc-466e-9c49-5ea61ae4480e","4f03f330-5f91-43fc-aa61-d9dda6d26521","","null","<div style=""display: flex; justify-content: center; align-items: center;"">
                <img src=""images/causal/causal_series_16/causal_series_16_d.jpg"" style=""width: 300px; height: 300px;"" />
              </div>","null",""
"","","","","","html-keyboard-response","76","352298","0.0-52.0","B67F83AFF19D40C0930DCAEF894D052E","654e8eab-2fcc-466e-9c49-5ea61ae4480e","4f03f330-5f91-43fc-aa61-d9dda6d26521","","null","<div style=""display: flex; justify-content: center; align-items: center;"">
                <img src=""images/other/blank.jpg"" style=""width: 300px; height: 300px;"" />
              </div>","null",""
"","","","","","html-keyboard-response","77","355301","0.0-53.0","B67F83AFF19D40C0930DCAEF894D052E","654e8eab-2fcc-466e-9c49-5ea61ae4480e","4f03f330-5f91-43fc-aa61-d9dda6d26521","","null","<div style=""display: flex; justify-content: center; align-items: center;"">
                <img src=""images/causal/causal_series_5/causal_series_5_a.jpg"" style=""width: 300px; height: 300px;"" />
              </div>","null",""
"","","","","","html-button-response","78","360135","0.0-54.0","B67F83AFF19D40C0930DCAEF894D052E","654e8eab-2fcc-466e-9c49-5ea61ae4480e","4f03f330-5f91-43fc-aa61-d9dda6d26521","","4833","
    <div style=""display: flex; justify-content: center; align-items: center;"">
      <img src=""images/red_deck_2.png"" style=""width: 300px; height: 300px; margin-right: 10px;"" />
      <img src=""images/blue_deck_1.png"" style=""width: 300px; height: 300px;"" />
    </div>","0","0"
"","","","","","html-keyboard-response","79","363145","0.0-55.0-0.0-0.0","B67F83AFF19D40C0930DCAEF894D052E","654e8eab-2fcc-466e-9c49-5ea61ae4480e","4f03f330-5f91-43fc-aa61-d9dda6d26521","","null","<div style=""display: flex; justify-content: center; align-items: center;"">
                <img src=""images/causal/causal_series_5/causal_series_5_b.jpg"" style=""width: 300px; height: 300px;"" />
              </div>","null",""
"","","","","","html-keyboard-response","80","366162","0.0-55.0-0.0-1.0","B67F83AFF19D40C0930DCAEF894D052E","654e8eab-2fcc-466e-9c49-5ea61ae4480e","4f03f330-5f91-43fc-aa61-d9dda6d26521","","null","<div style=""display: flex; justify-content: center; align-items: center;"">
                <img src=""images/causal/causal_series_5/causal_series_5_c.jpg"" style=""width: 300px; height: 300px;"" />
              </div>","null",""
"","","","","","html-keyboard-response","81","369168","0.0-55.0-0.0-2.0","B67F83AFF19D40C0930DCAEF894D052E","654e8eab-2fcc-466e-9c49-5ea61ae4480e","4f03f330-5f91-43fc-aa61-d9dda6d26521","","null","<div style=""display: flex; justify-content: center; align-items: center;"">
                <img src=""images/causal/causal_series_5/causal_series_5_d.jpg"" style=""width: 300px; height: 300px;"" />
              </div>","null",""
"","","","","","html-keyboard-response","82","372174","0.0-56.0","B67F83AFF19D40C0930DCAEF894D052E","654e8eab-2fcc-466e-9c49-5ea61ae4480e","4f03f330-5f91-43fc-aa61-d9dda6d26521","","null","<div style=""display: flex; justify-content: center; align-items: center;"">
                <img src=""images/other/blank.jpg"" style=""width: 300px; height: 300px;"" />
              </div>","null",""
"","","","","","html-keyboard-response","83","375185","0.0-57.0","B67F83AFF19D40C0930DCAEF894D052E","654e8eab-2fcc-466e-9c49-5ea61ae4480e","4f03f330-5f91-43fc-aa61-d9dda6d26521","","null","<div style=""display: flex; justify-content: center; align-items: center;"">
                <img src=""images/causal/causal_series_10/causal_series_10_a.jpg"" style=""width: 300px; height: 300px;"" />
              </div>","null",""
"","","","","","html-button-response","84","377165","0.0-58.0","B67F83AFF19D40C0930DCAEF894D052E","654e8eab-2fcc-466e-9c49-5ea61ae4480e","4f03f330-5f91-43fc-aa61-d9dda6d26521","","1979","
    <div style=""display: flex; justify-content: center; align-items: center;"">
      <img src=""images/red_deck_2.png"" style=""width: 300px; height: 300px; margin-right: 10px;"" />
      <img src=""images/blue_deck_1.png"" style=""width: 300px; height: 300px;"" />
    </div>","0","0"
"","","","","","html-keyboard-response","85","380181","0.0-59.0-0.0-0.0","B67F83AFF19D40C0930DCAEF894D052E","654e8eab-2fcc-466e-9c49-5ea61ae4480e","4f03f330-5f91-43fc-aa61-d9dda6d26521","","null","<div style=""display: flex; justify-content: center; align-items: center;"">
                <img src=""images/causal/causal_series_10/causal_series_10_b.jpg"" style=""width: 300px; height: 300px;"" />
              </div>","null",""
"","","","","","html-keyboard-response","86","383198","0.0-59.0-0.0-1.0","B67F83AFF19D40C0930DCAEF894D052E","654e8eab-2fcc-466e-9c49-5ea61ae4480e","4f03f330-5f91-43fc-aa61-d9dda6d26521","","null","<div style=""display: flex; justify-content: center; align-items: center;"">
                <img src=""images/causal/causal_series_10/causal_series_10_c.jpg"" style=""width: 300px; height: 300px;"" />
              </div>","null",""
"","","","","","html-keyboard-response","87","386207","0.0-59.0-0.0-2.0","B67F83AFF19D40C0930DCAEF894D052E","654e8eab-2fcc-466e-9c49-5ea61ae4480e","4f03f330-5f91-43fc-aa61-d9dda6d26521","","null","<div style=""display: flex; justify-content: center; align-items: center;"">
                <img src=""images/causal/causal_series_10/causal_series_10_d.jpg"" style=""width: 300px; height: 300px;"" />
              </div>","null",""
"","","","","","html-keyboard-response","88","389219","0.0-60.0","B67F83AFF19D40C0930DCAEF894D052E","654e8eab-2fcc-466e-9c49-5ea61ae4480e","4f03f330-5f91-43fc-aa61-d9dda6d26521","","null","<div style=""display: flex; justify-content: center; align-items: center;"">
                <img src=""images/other/blank.jpg"" style=""width: 300px; height: 300px;"" />
              </div>","null",""
"","","","","","html-keyboard-response","89","392227","0.0-61.0","B67F83AFF19D40C0930DCAEF894D052E","654e8eab-2fcc-466e-9c49-5ea61ae4480e","4f03f330-5f91-43fc-aa61-d9dda6d26521","","null","<div style=""display: flex; justify-content: center; align-items: center;"">
                <img src=""images/causal/causal_series_6/causal_series_6_a.jpg"" style=""width: 300px; height: 300px;"" />
              </div>","null",""
"","","","","","html-button-response","90","394090","0.0-62.0","B67F83AFF19D40C0930DCAEF894D052E","654e8eab-2fcc-466e-9c49-5ea61ae4480e","4f03f330-5f91-43fc-aa61-d9dda6d26521","","1862","
    <div style=""display: flex; justify-content: center; align-items: center;"">
      <img src=""images/red_deck_2.png"" style=""width: 300px; height: 300px; margin-right: 10px;"" />
      <img src=""images/blue_deck_1.png"" style=""width: 300px; height: 300px;"" />
    </div>","0","0"
"","","","","","html-keyboard-response","91","397095","0.0-63.0-0.0-0.0","B67F83AFF19D40C0930DCAEF894D052E","654e8eab-2fcc-466e-9c49-5ea61ae4480e","4f03f330-5f91-43fc-aa61-d9dda6d26521","","null","<div style=""display: flex; justify-content: center; align-items: center;"">
                <img src=""images/causal/causal_series_6/causal_series_6_b.jpg"" style=""width: 300px; height: 300px;"" />
              </div>","null",""
"","","","","","html-keyboard-response","92","400101","0.0-63.0-0.0-1.0","B67F83AFF19D40C0930DCAEF894D052E","654e8eab-2fcc-466e-9c49-5ea61ae4480e","4f03f330-5f91-43fc-aa61-d9dda6d26521","","null","<div style=""display: flex; justify-content: center; align-items: center;"">
                <img src=""images/causal/causal_series_6/causal_series_6_c.jpg"" style=""width: 300px; height: 300px;"" />
              </div>","null",""
"","","","","","html-keyboard-response","93","403117","0.0-63.0-0.0-2.0","B67F83AFF19D40C0930DCAEF894D052E","654e8eab-2fcc-466e-9c49-5ea61ae4480e","4f03f330-5f91-43fc-aa61-d9dda6d26521","","null","<div style=""display: flex; justify-content: center; align-items: center;"">
                <img src=""images/causal/causal_series_6/causal_series_6_d.jpg"" style=""width: 300px; height: 300px;"" />
              </div>","null",""
"","","","","","html-keyboard-response","94","406127","0.0-64.0","B67F83AFF19D40C0930DCAEF894D052E","654e8eab-2fcc-466e-9c49-5ea61ae4480e","4f03f330-5f91-43fc-aa61-d9dda6d26521","","null","<div style=""display: flex; justify-content: center; align-items: center;"">
                <img src=""images/other/blank.jpg"" style=""width: 300px; height: 300px;"" />
              </div>","null",""
"","","","","","html-keyboard-response","95","409131","0.0-65.0","B67F83AFF19D40C0930DCAEF894D052E","654e8eab-2fcc-466e-9c49-5ea61ae4480e","4f03f330-5f91-43fc-aa61-d9dda6d26521","","null","<div style=""display: flex; justify-content: center; align-items: center;"">
                <img src=""images/causal/causal_series_9/causal_series_9_a.jpg"" style=""width: 300px; height: 300px;"" />
              </div>","null",""
"","","","","","html-button-response","96","411219","0.0-66.0","B67F83AFF19D40C0930DCAEF894D052E","654e8eab-2fcc-466e-9c49-5ea61ae4480e","4f03f330-5f91-43fc-aa61-d9dda6d26521","","2087","
    <div style=""display: flex; justify-content: center; align-items: center;"">
      <img src=""images/red_deck_2.png"" style=""width: 300px; height: 300px; margin-right: 10px;"" />
      <img src=""images/blue_deck_1.png"" style=""width: 300px; height: 300px;"" />
    </div>","0","0"
"","","","","","html-keyboard-response","97","414228","0.0-67.0-0.0-0.0","B67F83AFF19D40C0930DCAEF894D052E","654e8eab-2fcc-466e-9c49-5ea61ae4480e","4f03f330-5f91-43fc-aa61-d9dda6d26521","","null","<div style=""display: flex; justify-content: center; align-items: center;"">
                <img src=""images/causal/causal_series_9/causal_series_9_b.jpg"" style=""width: 300px; height: 300px;"" />
              </div>","null",""
"","","","","","html-keyboard-response","98","417233","0.0-67.0-0.0-1.0","B67F83AFF19D40C0930DCAEF894D052E","654e8eab-2fcc-466e-9c49-5ea61ae4480e","4f03f330-5f91-43fc-aa61-d9dda6d26521","","null","<div style=""display: flex; justify-content: center; align-items: center;"">
                <img src=""images/causal/causal_series_9/causal_series_9_c.jpg"" style=""width: 300px; height: 300px;"" />
              </div>","null",""
"","","","","","html-keyboard-response","99","420248","0.0-67.0-0.0-2.0","B67F83AFF19D40C0930DCAEF894D052E","654e8eab-2fcc-466e-9c49-5ea61ae4480e","4f03f330-5f91-43fc-aa61-d9dda6d26521","","null","<div style=""display: flex; justify-content: center; align-items: center;"">
                <img src=""images/causal/causal_series_9/causal_series_9_d.jpg"" style=""width: 300px; height: 300px;"" />
              </div>","null",""
"","","","","","html-keyboard-response","100","423257","0.0-68.0","B67F83AFF19D40C0930DCAEF894D052E","654e8eab-2fcc-466e-9c49-5ea61ae4480e","4f03f330-5f91-43fc-aa61-d9dda6d26521","","null","<div style=""display: flex; justify-content: center; align-items: center;"">
                <img src=""images/other/blank.jpg"" style=""width: 300px; height: 300px;"" />
              </div>","null",""
"","","","","","html-keyboard-response","101","426262","0.0-69.0","B67F83AFF19D40C0930DCAEF894D052E","654e8eab-2fcc-466e-9c49-5ea61ae4480e","4f03f330-5f91-43fc-aa61-d9dda6d26521","","null","<div style=""display: flex; justify-content: center; align-items: center;"">
                <img src=""images/causal/causal_series_12/causal_series_12_a.jpg"" style=""width: 300px; height: 300px;"" />
              </div>","null",""
"","","","","","html-button-response","102","428280","0.0-70.0","B67F83AFF19D40C0930DCAEF894D052E","654e8eab-2fcc-466e-9c49-5ea61ae4480e","4f03f330-5f91-43fc-aa61-d9dda6d26521","","2017","
    <div style=""display: flex; justify-content: center; align-items: center;"">
      <img src=""images/red_deck_2.png"" style=""width: 300px; height: 300px; margin-right: 10px;"" />
      <img src=""images/blue_deck_1.png"" style=""width: 300px; height: 300px;"" />
    </div>","1","1"
"","","","","","html-keyboard-response","103","431296","0.0-71.0-1.0-0.0","B67F83AFF19D40C0930DCAEF894D052E","654e8eab-2fcc-466e-9c49-5ea61ae4480e","4f03f330-5f91-43fc-aa61-d9dda6d26521","","null","<div style=""display: flex; justify-content: center; align-items: center;"">
                <img src=""images/semantic/semantic_series_15/semantic_series_15_d.jpg"" style=""width: 300px; height: 300px;"" />
              </div>","null",""
"","","","","","html-keyboard-response","104","434301","0.0-71.0-1.0-1.0","B67F83AFF19D40C0930DCAEF894D052E","654e8eab-2fcc-466e-9c49-5ea61ae4480e","4f03f330-5f91-43fc-aa61-d9dda6d26521","","null","<div style=""display: flex; justify-content: center; align-items: center;"">
                <img src=""images/semantic/semantic_series_16/semantic_series_16_d.jpg"" style=""width: 300px; height: 300px;"" />
              </div>","null",""
"","","","","","html-keyboard-response","105","437303","0.0-71.0-1.0-2.0","B67F83AFF19D40C0930DCAEF894D052E","654e8eab-2fcc-466e-9c49-5ea61ae4480e","4f03f330-5f91-43fc-aa61-d9dda6d26521","","null","<div style=""display: flex; justify-content: center; align-items: center;"">
                <img src=""images/semantic/semantic_series_17/semantic_series_17_d.jpg"" style=""width: 300px; height: 300px;"" />
              </div>","null",""
"","","","","","html-keyboard-response","106","440318","0.0-72.0","B67F83AFF19D40C0930DCAEF894D052E","654e8eab-2fcc-466e-9c49-5ea61ae4480e","4f03f330-5f91-43fc-aa61-d9dda6d26521","","null","<div style=""display: flex; justify-content: center; align-items: center;"">
                <img src=""images/other/blank.jpg"" style=""width: 300px; height: 300px;"" />
              </div>","null",""
"","","","","","html-keyboard-response","107","443322","0.0-73.0","B67F83AFF19D40C0930DCAEF894D052E","654e8eab-2fcc-466e-9c49-5ea61ae4480e","4f03f330-5f91-43fc-aa61-d9dda6d26521","","null","<div style=""display: flex; justify-content: center; align-items: center;"">
                <img src=""images/causal/causal_series_4/causal_series_4_a.jpg"" style=""width: 300px; height: 300px;"" />
              </div>","null",""
"","","","","","html-button-response","108","445088","0.0-74.0","B67F83AFF19D40C0930DCAEF894D052E","654e8eab-2fcc-466e-9c49-5ea61ae4480e","4f03f330-5f91-43fc-aa61-d9dda6d26521","","1765","
    <div style=""display: flex; justify-content: center; align-items: center;"">
      <img src=""images/red_deck_2.png"" style=""width: 300px; height: 300px; margin-right: 10px;"" />
      <img src=""images/blue_deck_1.png"" style=""width: 300px; height: 300px;"" />
    </div>","1","1"
"","","","","","html-keyboard-response","109","448099","0.0-75.0-1.0-0.0","B67F83AFF19D40C0930DCAEF894D052E","654e8eab-2fcc-466e-9c49-5ea61ae4480e","4f03f330-5f91-43fc-aa61-d9dda6d26521","","null","<div style=""display: flex; justify-content: center; align-items: center;"">
                <img src=""images/semantic/semantic_series_9/semantic_series_9_d.jpg"" style=""width: 300px; height: 300px;"" />
              </div>","null",""
"","","","","","html-keyboard-response","110","451116","0.0-75.0-1.0-1.0","B67F83AFF19D40C0930DCAEF894D052E","654e8eab-2fcc-466e-9c49-5ea61ae4480e","4f03f330-5f91-43fc-aa61-d9dda6d26521","","null","<div style=""display: flex; justify-content: center; align-items: center;"">
                <img src=""images/semantic/semantic_series_10/semantic_series_10_d.jpg"" style=""width: 300px; height: 300px;"" />
              </div>","null",""
"","","","","","html-keyboard-response","111","454120","0.0-75.0-1.0-2.0","B67F83AFF19D40C0930DCAEF894D052E","654e8eab-2fcc-466e-9c49-5ea61ae4480e","4f03f330-5f91-43fc-aa61-d9dda6d26521","","null","<div style=""display: flex; justify-content: center; align-items: center;"">
                <img src=""images/semantic/semantic_series_11/semantic_series_11_d.jpg"" style=""width: 300px; height: 300px;"" />
              </div>","null",""
"","","","","","html-keyboard-response","112","457135","0.0-76.0","B67F83AFF19D40C0930DCAEF894D052E","654e8eab-2fcc-466e-9c49-5ea61ae4480e","4f03f330-5f91-43fc-aa61-d9dda6d26521","","null","<div style=""display: flex; justify-content: center; align-items: center;"">
                <img src=""images/other/blank.jpg"" style=""width: 300px; height: 300px;"" />
              </div>","null",""
"","","","","","survey-text","113","508677","0.0-77.0","B67F83AFF19D40C0930DCAEF894D052E","654e8eab-2fcc-466e-9c49-5ea61ae4480e","4f03f330-5f91-43fc-aa61-d9dda6d26521","","51536","","{""Q0"":""Red continues the story sequence and blue shows unrelated images.""}",""
"","","","","","survey-text","114","537157","0.0-78.0","B67F83AFF19D40C0930DCAEF894D052E","654e8eab-2fcc-466e-9c49-5ea61ae4480e","4f03f330-5f91-43fc-aa61-d9dda6d26521","","28477","","{""Q0"":""Red was more interesting.""}",""
"","","","","","html-button-response","115","553665","0.0-79.0","B67F83AFF19D40C0930DCAEF894D052E","654e8eab-2fcc-466e-9c49-5ea61ae4480e","4f03f330-5f91-43fc-aa61-d9dda6d26521","","16508","Which color deck does the fourth image continue the story from the series?","1",""
"","","","","","html-button-response","116","558813","0.0-80.0","B67F83AFF19D40C0930DCAEF894D052E","654e8eab-2fcc-466e-9c49-5ea61ae4480e","4f03f330-5f91-43fc-aa61-d9dda6d26521","","5146","Which color deck does the fourth image not follow the story from the series?","0",""
"","","","","","survey-text","117","572467","0.0-81.0","B67F83AFF19D40C0930DCAEF894D052E","654e8eab-2fcc-466e-9c49-5ea61ae4480e","4f03f330-5f91-43fc-aa61-d9dda6d26521","","13652","","{""Q0"":""female"",""Q1"":""33""}",""
"","","","","","instructions","118","580002","0.0-82.0","B67F83AFF19D40C0930DCAEF894D052E","654e8eab-2fcc-466e-9c49-5ea61ae4480e","4f03f330-5f91-43fc-aa61-d9dda6d26521","[{""page_index"":0,""viewing_time"":7534}]","7535","","",""
