"success","timeout","failed_images","failed_audio","failed_video","trial_type","trial_index","time_elapsed","internal_node_id","subject_id","study_id","session_id","view_history","rt","stimulus","response","series","repetition","phase","choice","question_order"
"true","false","[]","[]","[]","preload","0","1133","0.0-0.0","65FDC56138894B8E9917C6CF4FD65F39","0199d612-8236-71bd-aa2c-1181da8aeccb","0199d5ef-c7d4-7cab-a194-b2c3afbaf8e8","","","","","","","","",""
"","","","","","instructions","1","3337","0.0-1.0","65FDC56138894B8E9917C6CF4FD65F39","0199d612-8236-71bd-aa2c-1181da8aeccb","0199d5ef-c7d4-7cab-a194-b2c3afbaf8e8","[{""page_index"":0,""viewing_time"":2203}]","2203","","","","","","",""
"","","","","","instructions","2","6177","0.0-2.0","65FDC56138894B8E9917C6CF4FD65F39","0199d612-8236-71bd-aa2c-1181da8aeccb","0199d5ef-c7d4-7cab-a194-b2c3afbaf8e8","[{""page_index"":0,""viewing_time"":2839}]","2839","","","","","","",""
"true","","","","","fullscreen","3","8868","0.0-3.0","65FDC56138894B8E9917C6CF4FD65F39","0199d612-8236-71bd-aa2c-1181da8aeccb","0199d5ef-c7d4-7cab-a194-b2c3afbaf8e8","","1687","","","","","","",""
"","","","","","instructions","4","17081","0.0-4.0","65FDC56138894B8E9917C6CF4FD65F39","0199d612-8236-71bd-aa2c-1181da8aeccb","0199d5ef-c7d4-7cab-a194-b2c3afbaf8e8","[{""page_index"":0,""viewing_time"":8212}]","8212","","","","","","",""
"","","","","","html-keyboard-response","5","23086","0.0-5.0","65FDC56138894B8E9917C6CF4FD65F39","0199d612-8236-71bd-aa2c-1181da8aeccb","0199d5ef-c7d4-7cab-a194-b2c3afbaf8e8","","null","<div style=""display: flex; justify-content: center; align-items: center;"">
                     <img src=""images/causal/causal_series_2/causal_series_2_a.png"" style=""width: 300px; height: 300px;"" />
                   </div>","null","2","1","A","",""
"","","","","","html-keyboard-response","6","29094","0.0-6.0","65FDC56138894B8E9917C6CF4FD65F39","0199d612-8236-71bd-aa2c-1181da8aeccb","0199d5ef-c7d4-7cab-a194-b2c3afbaf8e8","","null","<div style=""display: flex; justify-content: center; align-items: center;"">
                     <img src=""images/causal/causal_series_2/causal_series_2_b.png"" style=""width: 300px; height: 300px;"" />
                   </div>","null","2","1","B","",""
"","","","","","html-keyboard-response","7","35096","0.0-7.0","65FDC56138894B8E9917C6CF4FD65F39","0199d612-8236-71bd-aa2c-1181da8aeccb","0199d5ef-c7d4-7cab-a194-b2c3afbaf8e8","","null","<div style=""display: flex; justify-content: center; align-items: center;"">
                     <img src=""images/causal/causal_series_2/causal_series_2_c.png"" style=""width: 300px; height: 300px;"" />
                   </div>","null","2","1","C","",""
"","","","","","html-button-response","8","38832","0.0-8.0","65FDC56138894B8E9917C6CF4FD65F39","0199d612-8236-71bd-aa2c-1181da8aeccb","0199d5ef-c7d4-7cab-a194-b2c3afbaf8e8","","3734","
        <div style=""display: flex; justify-content: center; align-items: center;"">
          <img src=""images/red_deck_2.png"" style=""width: 300px; height: 300px; margin-right: 10px;"" />
          <img src=""images/blue_deck_1.png"" style=""width: 300px; height: 300px;"" />
        </div>","0","2","1","choice","0",""
"","","","","","html-keyboard-response","9","44843","0.0-9.0-0.0-0.0","65FDC56138894B8E9917C6CF4FD65F39","0199d612-8236-71bd-aa2c-1181da8aeccb","0199d5ef-c7d4-7cab-a194-b2c3afbaf8e8","","null","<div style=""display: flex; justify-content: center; align-items: center;"">
                     <img src=""images/causal/causal_series_2/causal_series_2_d.png"" style=""width: 300px; height: 300px;"" />
                   </div>","null","2","1","D","",""
"","","","","","html-keyboard-response","10","50850","0.0-9.0-0.0-1.0","65FDC56138894B8E9917C6CF4FD65F39","0199d612-8236-71bd-aa2c-1181da8aeccb","0199d5ef-c7d4-7cab-a194-b2c3afbaf8e8","","null","<div style=""display: flex; justify-content: center; align-items: center;"">
                     <img src=""images/causal/causal_series_2/causal_series_2_e.png"" style=""width: 300px; height: 300px;"" />
                   </div>","null","2","1","E","",""
"","","","","","html-keyboard-response","11","56857","0.0-9.0-0.0-2.0","65FDC56138894B8E9917C6CF4FD65F39","0199d612-8236-71bd-aa2c-1181da8aeccb","0199d5ef-c7d4-7cab-a194-b2c3afbaf8e8","","null","<div style=""display: flex; justify-content: center; align-items: center;"">
                     <img src=""images/causal/causal_series_2/causal_series_2_f.png"" style=""width: 300px; height: 300px;"" />
                   </div>","null","2","1","F","",""
"","","","","","survey-likert","12","62090","0.0-10.0","65FDC56138894B8E9917C6CF4FD65F39","0199d612-8236-71bd-aa2c-1181da8aeccb","0199d5ef-c7d4-7cab-a194-b2c3afbaf8e8","","5230","","{""Q0"":1}","2","1","surprise_rating","","[0]"
"","","","","","survey-likert","13","64433","0.0-11.0","65FDC56138894B8E9917C6CF4FD65F39","0199d612-8236-71bd-aa2c-1181da8aeccb","0199d5ef-c7d4-7cab-a194-b2c3afbaf8e8","","2342","","{""Q0"":2}","2","1","enjoyment_rating","","[0]"
"","","","","","html-keyboard-response","14","70441","0.0-12.0","65FDC56138894B8E9917C6CF4FD65F39","0199d612-8236-71bd-aa2c-1181da8aeccb","0199d5ef-c7d4-7cab-a194-b2c3afbaf8e8","","null","<div style=""display: flex; justify-content: center; align-items: center;"">
                     <img src=""images/other/blank.png"" style=""width: 300px; height: 300px;"" />
                   </div>","null","0","0","blank","",""
"","","","","","html-keyboard-response","15","76446","0.0-13.0","65FDC56138894B8E9917C6CF4FD65F39","0199d612-8236-71bd-aa2c-1181da8aeccb","0199d5ef-c7d4-7cab-a194-b2c3afbaf8e8","","null","<div style=""display: flex; justify-content: center; align-items: center;"">
                     <img src=""images/causal/causal_series_7/causal_series_7_a.png"" style=""width: 300px; height: 300px;"" />
                   </div>","null","7","2","A","",""
"","","","","","html-keyboard-response","16","82449","0.0-14.0","65FDC56138894B8E9917C6CF4FD65F39","0199d612-8236-71bd-aa2c-1181da8aeccb","0199d5ef-c7d4-7cab-a194-b2c3afbaf8e8","","null","<div style=""display: flex; justify-content: center; align-items: center;"">
                     <img src=""images/causal/causal_series_7/causal_series_7_b.png"" style=""width: 300px; height: 300px;"" />
                   </div>","null","7","2","B","",""
"","","","","","html-keyboard-response","17","88456","0.0-15.0","65FDC56138894B8E9917C6CF4FD65F39","0199d612-8236-71bd-aa2c-1181da8aeccb","0199d5ef-c7d4-7cab-a194-b2c3afbaf8e8","","null","<div style=""display: flex; justify-content: center; align-items: center;"">
                     <img src=""images/causal/causal_series_7/causal_series_7_c.png"" style=""width: 300px; height: 300px;"" />
                   </div>","null","7","2","C","",""
"","","","","","html-button-response","18","90065","0.0-16.0","65FDC56138894B8E9917C6CF4FD65F39","0199d612-8236-71bd-aa2c-1181da8aeccb","0199d5ef-c7d4-7cab-a194-b2c3afbaf8e8","","1608","
        <div style=""display: flex; justify-content: center; align-items: center;"">
          <img src=""images/red_deck_2.png"" style=""width: 300px; height: 300px; margin-right: 10px;"" />
          <img src=""images/blue_deck_1.png"" style=""width: 300px; height: 300px;"" />
        </div>","1","7","2","choice","1",""
"","","","","","html-keyboard-response","19","96068","0.0-17.0-1.0-0.0","65FDC56138894B8E9917C6CF4FD65F39","0199d612-8236-71bd-aa2c-1181da8aeccb","0199d5ef-c7d4-7cab-a194-b2c3afbaf8e8","","null","<div style=""display: flex; justify-content: center; align-items: center;"">
                     <img src=""images/semantic/semantic_series_7/semantic_series_7_d.png"" style=""width: 300px; height: 300px;"" />
                   </div>","null","7","2","D","",""
"","","","","","html-keyboard-response","20","102070","0.0-17.0-1.0-1.0","65FDC56138894B8E9917C6CF4FD65F39","0199d612-8236-71bd-aa2c-1181da8aeccb","0199d5ef-c7d4-7cab-a194-b2c3afbaf8e8","","null","<div style=""display: flex; justify-content: center; align-items: center;"">
                     <img src=""images/semantic/semantic_series_7/semantic_series_7_e.png"" style=""width: 300px; height: 300px;"" />
                   </div>","null","7","2","E","",""
"","","","","","html-keyboard-response","21","108079","0.0-17.0-1.0-2.0","65FDC56138894B8E9917C6CF4FD65F39","0199d612-8236-71bd-aa2c-1181da8aeccb","0199d5ef-c7d4-7cab-a194-b2c3afbaf8e8","","null","<div style=""display: flex; justify-content: center; align-items: center;"">
                     <img src=""images/semantic/semantic_series_7/semantic_series_7_f.png"" style=""width: 300px; height: 300px;"" />
                   </div>","null","7","2","F","",""
"","","","","","survey-likert","22","110433","0.0-18.0","65FDC56138894B8E9917C6CF4FD65F39","0199d612-8236-71bd-aa2c-1181da8aeccb","0199d5ef-c7d4-7cab-a194-b2c3afbaf8e8","","2353","","{""Q0"":3}","7","2","surprise_rating","","[0]"
"","","","","","survey-likert","23","112617","0.0-19.0","65FDC56138894B8E9917C6CF4FD65F39","0199d612-8236-71bd-aa2c-1181da8aeccb","0199d5ef-c7d4-7cab-a194-b2c3afbaf8e8","","2183","","{""Q0"":1}","7","2","enjoyment_rating","","[0]"
"","","","","","html-keyboard-response","24","118618","0.0-20.0","65FDC56138894B8E9917C6CF4FD65F39","0199d612-8236-71bd-aa2c-1181da8aeccb","0199d5ef-c7d4-7cab-a194-b2c3afbaf8e8","","null","<div style=""display: flex; justify-content: center; align-items: center;"">
                     <img src=""images/other/blank.png"" style=""width: 300px; height: 300px;"" />
                   </div>","null","0","0","blank","",""
"","","","","","html-keyboard-response","25","124630","0.0-21.0","65FDC56138894B8E9917C6CF4FD65F39","0199d612-8236-71bd-aa2c-1181da8aeccb","0199d5ef-c7d4-7cab-a194-b2c3afbaf8e8","","null","<div style=""display: flex; justify-content: center; align-items: center;"">
                     <img src=""images/causal/causal_series_9/causal_series_9_a.png"" style=""width: 300px; height: 300px;"" />
                   </div>","null","9","2","A","",""
"","","","","","html-keyboard-response","26","130643","0.0-22.0","65FDC56138894B8E9917C6CF4FD65F39","0199d612-8236-71bd-aa2c-1181da8aeccb","0199d5ef-c7d4-7cab-a194-b2c3afbaf8e8","","null","<div style=""display: flex; justify-content: center; align-items: center;"">
                     <img src=""images/causal/causal_series_9/causal_series_9_b.png"" style=""width: 300px; height: 300px;"" />
                   </div>","null","9","2","B","",""
"","","","","","html-keyboard-response","27","136646","0.0-23.0","65FDC56138894B8E9917C6CF4FD65F39","0199d612-8236-71bd-aa2c-1181da8aeccb","0199d5ef-c7d4-7cab-a194-b2c3afbaf8e8","","null","<div style=""display: flex; justify-content: center; align-items: center;"">
                     <img src=""images/causal/causal_series_9/causal_series_9_c.png"" style=""width: 300px; height: 300px;"" />
                   </div>","null","9","2","C","",""
"","","","","","html-button-response","28","138665","0.0-24.0","65FDC56138894B8E9917C6CF4FD65F39","0199d612-8236-71bd-aa2c-1181da8aeccb","0199d5ef-c7d4-7cab-a194-b2c3afbaf8e8","","2018","
        <div style=""display: flex; justify-content: center; align-items: center;"">
          <img src=""images/red_deck_2.png"" style=""width: 300px; height: 300px; margin-right: 10px;"" />
          <img src=""images/blue_deck_1.png"" style=""width: 300px; height: 300px;"" />
        </div>","0","9","2","choice","0",""
"","","","","","html-keyboard-response","29","144668","0.0-25.0-0.0-0.0","65FDC56138894B8E9917C6CF4FD65F39","0199d612-8236-71bd-aa2c-1181da8aeccb","0199d5ef-c7d4-7cab-a194-b2c3afbaf8e8","","null","<div style=""display: flex; justify-content: center; align-items: center;"">
                     <img src=""images/causal/causal_series_9/causal_series_9_d.png"" style=""width: 300px; height: 300px;"" />
                   </div>","null","9","2","D","",""
"","","","","","html-keyboard-response","30","150673","0.0-25.0-0.0-1.0","65FDC56138894B8E9917C6CF4FD65F39","0199d612-8236-71bd-aa2c-1181da8aeccb","0199d5ef-c7d4-7cab-a194-b2c3afbaf8e8","","null","<div style=""display: flex; justify-content: center; align-items: center;"">
                     <img src=""images/causal/causal_series_9/causal_series_9_e.png"" style=""width: 300px; height: 300px;"" />
                   </div>","null","9","2","E","",""
"","","","","","html-keyboard-response","31","156676","0.0-25.0-0.0-2.0","65FDC56138894B8E9917C6CF4FD65F39","0199d612-8236-71bd-aa2c-1181da8aeccb","0199d5ef-c7d4-7cab-a194-b2c3afbaf8e8","","null","<div style=""display: flex; justify-content: center; align-items: center;"">
                     <img src=""images/causal/causal_series_9/causal_series_9_f.png"" style=""width: 300px; height: 300px;"" />
                   </div>","null","9","2","F","",""
"","","","","","survey-likert","32","160001","0.0-26.0","65FDC56138894B8E9917C6CF4FD65F39","0199d612-8236-71bd-aa2c-1181da8aeccb","0199d5ef-c7d4-7cab-a194-b2c3afbaf8e8","","3324","","{""Q0"":2}","9","2","surprise_rating","","[0]"
"","","","","","survey-likert","33","162345","0.0-27.0","65FDC56138894B8E9917C6CF4FD65F39","0199d612-8236-71bd-aa2c-1181da8aeccb","0199d5ef-c7d4-7cab-a194-b2c3afbaf8e8","","2344","","{""Q0"":3}","9","2","enjoyment_rating","","[0]"
"","","","","","html-keyboard-response","34","168349","0.0-28.0","65FDC56138894B8E9917C6CF4FD65F39","0199d612-8236-71bd-aa2c-1181da8aeccb","0199d5ef-c7d4-7cab-a194-b2c3afbaf8e8","","null","<div style=""display: flex; justify-content: center; align-items: center;"">
                     <img src=""images/other/blank.png"" style=""width: 300px; height: 300px;"" />
                   </div>","null","0","0","blank","",""
"","","","","","html-keyboard-response","35","174350","0.0-29.0","65FDC56138894B8E9917C6CF4FD65F39","0199d612-8236-71bd-aa2c-1181da8aeccb","0199d5ef-c7d4-7cab-a194-b2c3afbaf8e8","","null","<div style=""display: flex; justify-content: center; align-items: center;"">
                     <img src=""images/causal/causal_series_3/causal_series_3_a.png"" style=""width: 300px; height: 300px;"" />
                   </div>","null","3","1","A","",""
"","","","","","html-keyboard-response","36","180365","0.0-30.0","65FDC56138894B8E9917C6CF4FD65F39","0199d612-8236-71bd-aa2c-1181da8aeccb","0199d5ef-c7d4-7cab-a194-b2c3afbaf8e8","","null","<div style=""display: flex; justify-content: center; align-items: center;"">
                     <img src=""images/causal/causal_series_3/causal_series_3_b.png"" style=""width: 300px; height: 300px;"" />
                   </div>","null","3","1","B","",""
"","","","","","html-keyboard-response","37","186366","0.0-31.0","65FDC56138894B8E9917C6CF4FD65F39","0199d612-8236-71bd-aa2c-1181da8aeccb","0199d5ef-c7d4-7cab-a194-b2c3afbaf8e8","","null","<div style=""display: flex; justify-content: center; align-items: center;"">
                     <img src=""images/causal/causal_series_3/causal_series_3_c.png"" style=""width: 300px; height: 300px;"" />
                   </div>","null","3","1","C","",""
"","","","","","html-button-response","38","187928","0.0-32.0","65FDC56138894B8E9917C6CF4FD65F39","0199d612-8236-71bd-aa2c-1181da8aeccb","0199d5ef-c7d4-7cab-a194-b2c3afbaf8e8","","1562","
        <div style=""display: flex; justify-content: center; align-items: center;"">
          <img src=""images/red_deck_2.png"" style=""width: 300px; height: 300px; margin-right: 10px;"" />
          <img src=""images/blue_deck_1.png"" style=""width: 300px; height: 300px;"" />
        </div>","1","3","1","choice","1",""
"","","","","","html-keyboard-response","39","193938","0.0-33.0-1.0-0.0","65FDC56138894B8E9917C6CF4FD65F39","0199d612-8236-71bd-aa2c-1181da8aeccb","0199d5ef-c7d4-7cab-a194-b2c3afbaf8e8","","null","<div style=""display: flex; justify-content: center; align-items: center;"">
                     <img src=""images/semantic/semantic_series_3/semantic_series_3_d.png"" style=""width: 300px; height: 300px;"" />
                   </div>","null","3","1","D","",""
"","","","","","html-keyboard-response","40","199945","0.0-33.0-1.0-1.0","65FDC56138894B8E9917C6CF4FD65F39","0199d612-8236-71bd-aa2c-1181da8aeccb","0199d5ef-c7d4-7cab-a194-b2c3afbaf8e8","","null","<div style=""display: flex; justify-content: center; align-items: center;"">
                     <img src=""images/semantic/semantic_series_3/semantic_series_3_e.png"" style=""width: 300px; height: 300px;"" />
                   </div>","null","3","1","E","",""
"","","","","","html-keyboard-response","41","205946","0.0-33.0-1.0-2.0","65FDC56138894B8E9917C6CF4FD65F39","0199d612-8236-71bd-aa2c-1181da8aeccb","0199d5ef-c7d4-7cab-a194-b2c3afbaf8e8","","null","<div style=""display: flex; justify-content: center; align-items: center;"">
                     <img src=""images/semantic/semantic_series_3/semantic_series_3_f.png"" style=""width: 300px; height: 300px;"" />
                   </div>","null","3","1","F","",""
"","","","","","survey-likert","42","207873","0.0-34.0","65FDC56138894B8E9917C6CF4FD65F39","0199d612-8236-71bd-aa2c-1181da8aeccb","0199d5ef-c7d4-7cab-a194-b2c3afbaf8e8","","1926","","{""Q0"":1}","3","1","surprise_rating","","[0]"
"","","","","","survey-likert","43","210801","0.0-35.0","65FDC56138894B8E9917C6CF4FD65F39","0199d612-8236-71bd-aa2c-1181da8aeccb","0199d5ef-c7d4-7cab-a194-b2c3afbaf8e8","","2927","","{""Q0"":1}","3","1","enjoyment_rating","","[0]"
"","","","","","html-keyboard-response","44","216802","0.0-36.0","65FDC56138894B8E9917C6CF4FD65F39","0199d612-8236-71bd-aa2c-1181da8aeccb","0199d5ef-c7d4-7cab-a194-b2c3afbaf8e8","","null","<div style=""display: flex; justify-content: center; align-items: center;"">
                     <img src=""images/other/blank.png"" style=""width: 300px; height: 300px;"" />
                   </div>","null","0","0","blank","",""
"","","","","","html-keyboard-response","45","222813","0.0-37.0","65FDC56138894B8E9917C6CF4FD65F39","0199d612-8236-71bd-aa2c-1181da8aeccb","0199d5ef-c7d4-7cab-a194-b2c3afbaf8e8","","null","<div style=""display: flex; justify-content: center; align-items: center;"">
                     <img src=""images/causal/causal_series_1/causal_series_1_a.png"" style=""width: 300px; height: 300px;"" />
                   </div>","null","1","1","A","",""
"","","","","","html-keyboard-response","46","228817","0.0-38.0","65FDC56138894B8E9917C6CF4FD65F39","0199d612-8236-71bd-aa2c-1181da8aeccb","0199d5ef-c7d4-7cab-a194-b2c3afbaf8e8","","null","<div style=""display: flex; justify-content: center; align-items: center;"">
                     <img src=""images/causal/causal_series_1/causal_series_1_b.png"" style=""width: 300px; height: 300px;"" />
                   </div>","null","1","1","B","",""
"","","","","","html-keyboard-response","47","234828","0.0-39.0","65FDC56138894B8E9917C6CF4FD65F39","0199d612-8236-71bd-aa2c-1181da8aeccb","0199d5ef-c7d4-7cab-a194-b2c3afbaf8e8","","null","<div style=""display: flex; justify-content: center; align-items: center;"">
                     <img src=""images/causal/causal_series_1/causal_series_1_c.png"" style=""width: 300px; height: 300px;"" />
                   </div>","null","1","1","C","",""
"","","","","","html-button-response","48","237025","0.0-40.0","65FDC56138894B8E9917C6CF4FD65F39","0199d612-8236-71bd-aa2c-1181da8aeccb","0199d5ef-c7d4-7cab-a194-b2c3afbaf8e8","","2195","
        <div style=""display: flex; justify-content: center; align-items: center;"">
          <img src=""images/red_deck_2.png"" style=""width: 300px; height: 300px; margin-right: 10px;"" />
          <img src=""images/blue_deck_1.png"" style=""width: 300px; height: 300px;"" />
        </div>","0","1","1","choice","0",""
"","","","","","html-keyboard-response","49","243037","0.0-41.0-0.0-0.0","65FDC56138894B8E9917C6CF4FD65F39","0199d612-8236-71bd-aa2c-1181da8aeccb","0199d5ef-c7d4-7cab-a194-b2c3afbaf8e8","","null","<div style=""display: flex; justify-content: center; align-items: center;"">
                     <img src=""images/causal/causal_series_1/causal_series_1_d.png"" style=""width: 300px; height: 300px;"" />
                   </div>","null","1","1","D","",""
"","","","","","html-keyboard-response","50","249043","0.0-41.0-0.0-1.0","65FDC56138894B8E9917C6CF4FD65F39","0199d612-8236-71bd-aa2c-1181da8aeccb","0199d5ef-c7d4-7cab-a194-b2c3afbaf8e8","","null","<div style=""display: flex; justify-content: center; align-items: center;"">
                     <img src=""images/causal/causal_series_1/causal_series_1_e.png"" style=""width: 300px; height: 300px;"" />
                   </div>","null","1","1","E","",""
"","","","","","html-keyboard-response","51","255053","0.0-41.0-0.0-2.0","65FDC56138894B8E9917C6CF4FD65F39","0199d612-8236-71bd-aa2c-1181da8aeccb","0199d5ef-c7d4-7cab-a194-b2c3afbaf8e8","","null","<div style=""display: flex; justify-content: center; align-items: center;"">
                     <img src=""images/causal/causal_series_1/causal_series_1_f.png"" style=""width: 300px; height: 300px;"" />
                   </div>","null","1","1","F","",""
"","","","","","survey-likert","52","260849","0.0-42.0","65FDC56138894B8E9917C6CF4FD65F39","0199d612-8236-71bd-aa2c-1181da8aeccb","0199d5ef-c7d4-7cab-a194-b2c3afbaf8e8","","5795","","{""Q0"":2}","1","1","surprise_rating","","[0]"
"","","","","","survey-likert","53","262609","0.0-43.0","65FDC56138894B8E9917C6CF4FD65F39","0199d612-8236-71bd-aa2c-1181da8aeccb","0199d5ef-c7d4-7cab-a194-b2c3afbaf8e8","","1760","","{""Q0"":3}","1","1","enjoyment_rating","","[0]"
"","","","","","html-keyboard-response","54","268617","0.0-44.0","65FDC56138894B8E9917C6CF4FD65F39","0199d612-8236-71bd-aa2c-1181da8aeccb","0199d5ef-c7d4-7cab-a194-b2c3afbaf8e8","","null","<div style=""display: flex; justify-content: center; align-items: center;"">
                     <img src=""images/other/blank.png"" style=""width: 300px; height: 300px;"" />
                   </div>","null","0","0","blank","",""
"","","","","","html-keyboard-response","55","274620","0.0-45.0","65FDC56138894B8E9917C6CF4FD65F39","0199d612-8236-71bd-aa2c-1181da8aeccb","0199d5ef-c7d4-7cab-a194-b2c3afbaf8e8","","null","<div style=""display: flex; justify-content: center; align-items: center;"">
                     <img src=""images/causal/causal_series_2/causal_series_2_a.png"" style=""width: 300px; height: 300px;"" />
                   </div>","null","2","2","A","",""
"","","","","","html-keyboard-response","56","280627","0.0-46.0","65FDC56138894B8E9917C6CF4FD65F39","0199d612-8236-71bd-aa2c-1181da8aeccb","0199d5ef-c7d4-7cab-a194-b2c3afbaf8e8","","null","<div style=""display: flex; justify-content: center; align-items: center;"">
                     <img src=""images/causal/causal_series_2/causal_series_2_b.png"" style=""width: 300px; height: 300px;"" />
                   </div>","null","2","2","B","",""
"","","","","","html-keyboard-response","57","286645","0.0-47.0","65FDC56138894B8E9917C6CF4FD65F39","0199d612-8236-71bd-aa2c-1181da8aeccb","0199d5ef-c7d4-7cab-a194-b2c3afbaf8e8","","null","<div style=""display: flex; justify-content: center; align-items: center;"">
                     <img src=""images/causal/causal_series_2/causal_series_2_c.png"" style=""width: 300px; height: 300px;"" />
                   </div>","null","2","2","C","",""
"","","","","","html-button-response","58","287873","0.0-48.0","65FDC56138894B8E9917C6CF4FD65F39","0199d612-8236-71bd-aa2c-1181da8aeccb","0199d5ef-c7d4-7cab-a194-b2c3afbaf8e8","","1227","
        <div style=""display: flex; justify-content: center; align-items: center;"">
          <img src=""images/red_deck_2.png"" style=""width: 300px; height: 300px; margin-right: 10px;"" />
          <img src=""images/blue_deck_1.png"" style=""width: 300px; height: 300px;"" />
        </div>","1","2","2","choice","1",""
"","","","","","html-keyboard-response","59","293889","0.0-49.0-1.0-0.0","65FDC56138894B8E9917C6CF4FD65F39","0199d612-8236-71bd-aa2c-1181da8aeccb","0199d5ef-c7d4-7cab-a194-b2c3afbaf8e8","","null","<div style=""display: flex; justify-content: center; align-items: center;"">
                     <img src=""images/semantic/semantic_series_2/semantic_series_2_d.png"" style=""width: 300px; height: 300px;"" />
                   </div>","null","2","2","D","",""
"","","","","","html-keyboard-response","60","299901","0.0-49.0-1.0-1.0","65FDC56138894B8E9917C6CF4FD65F39","0199d612-8236-71bd-aa2c-1181da8aeccb","0199d5ef-c7d4-7cab-a194-b2c3afbaf8e8","","null","<div style=""display: flex; justify-content: center; align-items: center;"">
                     <img src=""images/semantic/semantic_series_2/semantic_series_2_e.png"" style=""width: 300px; height: 300px;"" />
                   </div>","null","2","2","E","",""
"","","","","","html-keyboard-response","61","305906","0.0-49.0-1.0-2.0","65FDC56138894B8E9917C6CF4FD65F39","0199d612-8236-71bd-aa2c-1181da8aeccb","0199d5ef-c7d4-7cab-a194-b2c3afbaf8e8","","null","<div style=""display: flex; justify-content: center; align-items: center;"">
                     <img src=""images/semantic/semantic_series_2/semantic_series_2_f.png"" style=""width: 300px; height: 300px;"" />
                   </div>","null","2","2","F","",""
"","","","","","survey-likert","62","308937","0.0-50.0","65FDC56138894B8E9917C6CF4FD65F39","0199d612-8236-71bd-aa2c-1181da8aeccb","0199d5ef-c7d4-7cab-a194-b2c3afbaf8e8","","3030","","{""Q0"":0}","2","2","surprise_rating","","[0]"
"","","","","","survey-likert","63","312625","0.0-51.0","65FDC56138894B8E9917C6CF4FD65F39","0199d612-8236-71bd-aa2c-1181da8aeccb","0199d5ef-c7d4-7cab-a194-b2c3afbaf8e8","","3688","","{""Q0"":3}","2","2","enjoyment_rating","","[0]"
"","","","","","html-keyboard-response","64","318634","0.0-52.0","65FDC56138894B8E9917C6CF4FD65F39","0199d612-8236-71bd-aa2c-1181da8aeccb","0199d5ef-c7d4-7cab-a194-b2c3afbaf8e8","","null","<div style=""display: flex; justify-content: center; align-items: center;"">
                     <img src=""images/other/blank.png"" style=""width: 300px; height: 300px;"" />
                   </div>","null","0","0","blank","",""
"","","","","","html-keyboard-response","65","324642","0.0-53.0","65FDC56138894B8E9917C6CF4FD65F39","0199d612-8236-71bd-aa2c-1181da8aeccb","0199d5ef-c7d4-7cab-a194-b2c3afbaf8e8","","null","<div style=""display: flex; justify-content: center; align-items: center;"">
                     <img src=""images/causal/causal_series_8/causal_series_8_a.png"" style=""width: 300px; height: 300px;"" />
                   </div>","null","8","1","A","",""
"","","","","","html-keyboard-response","66","330643","0.0-54.0","65FDC56138894B8E9917C6CF4FD65F39","0199d612-8236-71bd-aa2c-1181da8aeccb","0199d5ef-c7d4-7cab-a194-b2c3afbaf8e8","","null","<div style=""display: flex; justify-content: center; align-items: center;"">
                     <img src=""images/causal/causal_series_8/causal_series_8_b.png"" style=""width: 300px; height: 300px;"" />
                   </div>","null","8","1","B","",""
"","","","","","html-keyboard-response","67","336648","0.0-55.0","65FDC56138894B8E9917C6CF4FD65F39","0199d612-8236-71bd-aa2c-1181da8aeccb","0199d5ef-c7d4-7cab-a194-b2c3afbaf8e8","","null","<div style=""display: flex; justify-content: center; align-items: center;"">
                     <img src=""images/causal/causal_series_8/causal_series_8_c.png"" style=""width: 300px; height: 300px;"" />
                   </div>","null","8","1","C","",""
"","","","","","html-button-response","68","338385","0.0-56.0","65FDC56138894B8E9917C6CF4FD65F39","0199d612-8236-71bd-aa2c-1181da8aeccb","0199d5ef-c7d4-7cab-a194-b2c3afbaf8e8","","1735","
        <div style=""display: flex; justify-content: center; align-items: center;"">
          <img src=""images/red_deck_2.png"" style=""width: 300px; height: 300px; margin-right: 10px;"" />
          <img src=""images/blue_deck_1.png"" style=""width: 300px; height: 300px;"" />
        </div>","0","8","1","choice","0",""
"","","","","","html-keyboard-response","69","344395","0.0-57.0-0.0-0.0","65FDC56138894B8E9917C6CF4FD65F39","0199d612-8236-71bd-aa2c-1181da8aeccb","0199d5ef-c7d4-7cab-a194-b2c3afbaf8e8","","null","<div style=""display: flex; justify-content: center; align-items: center;"">
                     <img src=""images/causal/causal_series_8/causal_series_8_d.png"" style=""width: 300px; height: 300px;"" />
                   </div>","null","8","1","D","",""
"","","","","","html-keyboard-response","70","350407","0.0-57.0-0.0-1.0","65FDC56138894B8E9917C6CF4FD65F39","0199d612-8236-71bd-aa2c-1181da8aeccb","0199d5ef-c7d4-7cab-a194-b2c3afbaf8e8","","null","<div style=""display: flex; justify-content: center; align-items: center;"">
                     <img src=""images/causal/causal_series_8/causal_series_8_e.png"" style=""width: 300px; height: 300px;"" />
                   </div>","null","8","1","E","",""
"","","","","","html-keyboard-response","71","356415","0.0-57.0-0.0-2.0","65FDC56138894B8E9917C6CF4FD65F39","0199d612-8236-71bd-aa2c-1181da8aeccb","0199d5ef-c7d4-7cab-a194-b2c3afbaf8e8","","null","<div style=""display: flex; justify-content: center; align-items: center;"">
                     <img src=""images/causal/causal_series_8/causal_series_8_f.png"" style=""width: 300px; height: 300px;"" />
                   </div>","null","8","1","F","",""
"","","","","","survey-likert","72","358616","0.0-58.0","65FDC56138894B8E9917C6CF4FD65F39","0199d612-8236-71bd-aa2c-1181da8aeccb","0199d5ef-c7d4-7cab-a194-b2c3afbaf8e8","","2200","","{""Q0"":4}","8","1","surprise_rating","","[0]"
"","","","","","survey-likert","73","360465","0.0-59.0","65FDC56138894B8E9917C6CF4FD65F39","0199d612-8236-71bd-aa2c-1181da8aeccb","0199d5ef-c7d4-7cab-a194-b2c3afbaf8e8","","1848","","{""Q0"":4}","8","1","enjoyment_rating","","[0]"
"","","","","","html-keyboard-response","74","366476","0.0-60.0","65FDC56138894B8E9917C6CF4FD65F39","0199d612-8236-71bd-aa2c-1181da8aeccb","0199d5ef-c7d4-7cab-a194-b2c3afbaf8e8","","null","<div style=""display: flex; justify-content: center; align-items: center;"">
                     <img src=""images/other/blank.png"" style=""width: 300px; height: 300px;"" />
                   </div>","null","0","0","blank","",""
"","","","","","html-keyboard-response","75","372491","0.0-61.0","65FDC56138894B8E9917C6CF4FD65F39","0199d612-8236-71bd-aa2c-1181da8aeccb","0199d5ef-c7d4-7cab-a194-b2c3afbaf8e8","","null","<div style=""display: flex; justify-content: center; align-items: center;"">
                     <img src=""images/causal/causal_series_9/causal_series_9_a.png"" style=""width: 300px; height: 300px;"" />
                   </div>","null","9","1","A","",""
"","","","","","html-keyboard-response","76","378507","0.0-62.0","65FDC56138894B8E9917C6CF4FD65F39","0199d612-8236-71bd-aa2c-1181da8aeccb","0199d5ef-c7d4-7cab-a194-b2c3afbaf8e8","","null","<div style=""display: flex; justify-content: center; align-items: center;"">
                     <img src=""images/causal/causal_series_9/causal_series_9_b.png"" style=""width: 300px; height: 300px;"" />
                   </div>","null","9","1","B","",""
"","","","","","html-keyboard-response","77","384510","0.0-63.0","65FDC56138894B8E9917C6CF4FD65F39","0199d612-8236-71bd-aa2c-1181da8aeccb","0199d5ef-c7d4-7cab-a194-b2c3afbaf8e8","","null","<div style=""display: flex; justify-content: center; align-items: center;"">
                     <img src=""images/causal/causal_series_9/causal_series_9_c.png"" style=""width: 300px; height: 300px;"" />
                   </div>","null","9","1","C","",""
"","","","","","html-button-response","78","387121","0.0-64.0","65FDC56138894B8E9917C6CF4FD65F39","0199d612-8236-71bd-aa2c-1181da8aeccb","0199d5ef-c7d4-7cab-a194-b2c3afbaf8e8","","2610","
        <div style=""display: flex; justify-content: center; align-items: center;"">
          <img src=""images/red_deck_2.png"" style=""width: 300px; height: 300px; margin-right: 10px;"" />
          <img src=""images/blue_deck_1.png"" style=""width: 300px; height: 300px;"" />
        </div>","0","9","1","choice","0",""
"","","","","","html-keyboard-response","79","393134","0.0-65.0-0.0-0.0","65FDC56138894B8E9917C6CF4FD65F39","0199d612-8236-71bd-aa2c-1181da8aeccb","0199d5ef-c7d4-7cab-a194-b2c3afbaf8e8","","null","<div style=""display: flex; justify-content: center; align-items: center;"">
                     <img src=""images/causal/causal_series_9/causal_series_9_d.png"" style=""width: 300px; height: 300px;"" />
                   </div>","null","9","1","D","",""
"","","","","","html-keyboard-response","80","399149","0.0-65.0-0.0-1.0","65FDC56138894B8E9917C6CF4FD65F39","0199d612-8236-71bd-aa2c-1181da8aeccb","0199d5ef-c7d4-7cab-a194-b2c3afbaf8e8","","null","<div style=""display: flex; justify-content: center; align-items: center;"">
                     <img src=""images/causal/causal_series_9/causal_series_9_e.png"" style=""width: 300px; height: 300px;"" />
                   </div>","null","9","1","E","",""
"","","","","","html-keyboard-response","81","405160","0.0-65.0-0.0-2.0","65FDC56138894B8E9917C6CF4FD65F39","0199d612-8236-71bd-aa2c-1181da8aeccb","0199d5ef-c7d4-7cab-a194-b2c3afbaf8e8","","null","<div style=""display: flex; justify-content: center; align-items: center;"">
                     <img src=""images/causal/causal_series_9/causal_series_9_f.png"" style=""width: 300px; height: 300px;"" />
                   </div>","null","9","1","F","",""
"","","","","","survey-likert","82","407721","0.0-66.0","65FDC56138894B8E9917C6CF4FD65F39","0199d612-8236-71bd-aa2c-1181da8aeccb","0199d5ef-c7d4-7cab-a194-b2c3afbaf8e8","","2559","","{""Q0"":2}","9","1","surprise_rating","","[0]"
"","","","","","survey-likert","83","409273","0.0-67.0","65FDC56138894B8E9917C6CF4FD65F39","0199d612-8236-71bd-aa2c-1181da8aeccb","0199d5ef-c7d4-7cab-a194-b2c3afbaf8e8","","1551","","{""Q0"":2}","9","1","enjoyment_rating","","[0]"
"","","","","","html-keyboard-response","84","415283","0.0-68.0","65FDC56138894B8E9917C6CF4FD65F39","0199d612-8236-71bd-aa2c-1181da8aeccb","0199d5ef-c7d4-7cab-a194-b2c3afbaf8e8","","null","<div style=""display: flex; justify-content: center; align-items: center;"">
                     <img src=""images/other/blank.png"" style=""width: 300px; height: 300px;"" />
                   </div>","null","0","0","blank","",""
"","","","","","html-keyboard-response","85","421291","0.0-69.0","65FDC56138894B8E9917C6CF4FD65F39","0199d612-8236-71bd-aa2c-1181da8aeccb","0199d5ef-c7d4-7cab-a194-b2c3afbaf8e8","","null","<div style=""display: flex; justify-content: center; align-items: center;"">
                     <img src=""images/causal/causal_series_10/causal_series_10_a.png"" style=""width: 300px; height: 300px;"" />
                   </div>","null","10","2","A","",""
"","","","","","html-keyboard-response","86","427303","0.0-70.0","65FDC56138894B8E9917C6CF4FD65F39","0199d612-8236-71bd-aa2c-1181da8aeccb","0199d5ef-c7d4-7cab-a194-b2c3afbaf8e8","","null","<div style=""display: flex; justify-content: center; align-items: center;"">
                     <img src=""images/causal/causal_series_10/causal_series_10_b.png"" style=""width: 300px; height: 300px;"" />
                   </div>","null","10","2","B","",""
"","","","","","html-keyboard-response","87","433311","0.0-71.0","65FDC56138894B8E9917C6CF4FD65F39","0199d612-8236-71bd-aa2c-1181da8aeccb","0199d5ef-c7d4-7cab-a194-b2c3afbaf8e8","","null","<div style=""display: flex; justify-content: center; align-items: center;"">
                     <img src=""images/causal/causal_series_10/causal_series_10_c.png"" style=""width: 300px; height: 300px;"" />
                   </div>","null","10","2","C","",""
"","","","","","html-button-response","88","434296","0.0-72.0","65FDC56138894B8E9917C6CF4FD65F39","0199d612-8236-71bd-aa2c-1181da8aeccb","0199d5ef-c7d4-7cab-a194-b2c3afbaf8e8","","985","
        <div style=""display: flex; justify-content: center; align-items: center;"">
          <img src=""images/red_deck_2.png"" style=""width: 300px; height: 300px; margin-right: 10px;"" />
          <img src=""images/blue_deck_1.png"" style=""width: 300px; height: 300px;"" />
        </div>","0","10","2","choice","0",""
"","","","","","html-keyboard-response","89","440313","0.0-73.0-0.0-0.0","65FDC56138894B8E9917C6CF4FD65F39","0199d612-8236-71bd-aa2c-1181da8aeccb","0199d5ef-c7d4-7cab-a194-b2c3afbaf8e8","","null","<div style=""display: flex; justify-content: center; align-items: center;"">
                     <img src=""images/causal/causal_series_10/causal_series_10_d.png"" style=""width: 300px; height: 300px;"" />
                   </div>","null","10","2","D","",""
"","","","","","html-keyboard-response","90","446318","0.0-73.0-0.0-1.0","65FDC56138894B8E9917C6CF4FD65F39","0199d612-8236-71bd-aa2c-1181da8aeccb","0199d5ef-c7d4-7cab-a194-b2c3afbaf8e8","","null","<div style=""display: flex; justify-content: center; align-items: center;"">
                     <img src=""images/causal/causal_series_10/causal_series_10_e.png"" style=""width: 300px; height: 300px;"" />
                   </div>","null","10","2","E","",""
"","","","","","html-keyboard-response","91","452334","0.0-73.0-0.0-2.0","65FDC56138894B8E9917C6CF4FD65F39","0199d612-8236-71bd-aa2c-1181da8aeccb","0199d5ef-c7d4-7cab-a194-b2c3afbaf8e8","","null","<div style=""display: flex; justify-content: center; align-items: center;"">
                     <img src=""images/causal/causal_series_10/causal_series_10_f.png"" style=""width: 300px; height: 300px;"" />
                   </div>","null","10","2","F","",""
"","","","","","survey-likert","92","454817","0.0-74.0","65FDC56138894B8E9917C6CF4FD65F39","0199d612-8236-71bd-aa2c-1181da8aeccb","0199d5ef-c7d4-7cab-a194-b2c3afbaf8e8","","2482","","{""Q0"":3}","10","2","surprise_rating","","[0]"
"","","","","","survey-likert","93","456657","0.0-75.0","65FDC56138894B8E9917C6CF4FD65F39","0199d612-8236-71bd-aa2c-1181da8aeccb","0199d5ef-c7d4-7cab-a194-b2c3afbaf8e8","","1840","","{""Q0"":4}","10","2","enjoyment_rating","","[0]"
"","","","","","html-keyboard-response","94","462666","0.0-76.0","65FDC56138894B8E9917C6CF4FD65F39","0199d612-8236-71bd-aa2c-1181da8aeccb","0199d5ef-c7d4-7cab-a194-b2c3afbaf8e8","","null","<div style=""display: flex; justify-content: center; align-items: center;"">
                     <img src=""images/other/blank.png"" style=""width: 300px; height: 300px;"" />
                   </div>","null","0","0","blank","",""
"","","","","","html-keyboard-response","95","468673","0.0-77.0","65FDC56138894B8E9917C6CF4FD65F39","0199d612-8236-71bd-aa2c-1181da8aeccb","0199d5ef-c7d4-7cab-a194-b2c3afbaf8e8","","null","<div style=""display: flex; justify-content: center; align-items: center;"">
                     <img src=""images/causal/causal_series_10/causal_series_10_a.png"" style=""width: 300px; height: 300px;"" />
                   </div>","null","10","1","A","",""
"","","","","","html-keyboard-response","96","474677","0.0-78.0","65FDC56138894B8E9917C6CF4FD65F39","0199d612-8236-71bd-aa2c-1181da8aeccb","0199d5ef-c7d4-7cab-a194-b2c3afbaf8e8","","null","<div style=""display: flex; justify-content: center; align-items: center;"">
                     <img src=""images/causal/causal_series_10/causal_series_10_b.png"" style=""width: 300px; height: 300px;"" />
                   </div>","null","10","1","B","",""
"","","","","","html-keyboard-response","97","480679","0.0-79.0","65FDC56138894B8E9917C6CF4FD65F39","0199d612-8236-71bd-aa2c-1181da8aeccb","0199d5ef-c7d4-7cab-a194-b2c3afbaf8e8","","null","<div style=""display: flex; justify-content: center; align-items: center;"">
                     <img src=""images/causal/causal_series_10/causal_series_10_c.png"" style=""width: 300px; height: 300px;"" />
                   </div>","null","10","1","C","",""
"","","","","","html-button-response","98","481992","0.0-80.0","65FDC56138894B8E9917C6CF4FD65F39","0199d612-8236-71bd-aa2c-1181da8aeccb","0199d5ef-c7d4-7cab-a194-b2c3afbaf8e8","","1312","
        <div style=""display: flex; justify-content: center; align-items: center;"">
          <img src=""images/red_deck_2.png"" style=""width: 300px; height: 300px; margin-right: 10px;"" />
          <img src=""images/blue_deck_1.png"" style=""width: 300px; height: 300px;"" />
        </div>","1","10","1","choice","1",""
"","","","","","html-keyboard-response","99","488007","0.0-81.0-1.0-0.0","65FDC56138894B8E9917C6CF4FD65F39","0199d612-8236-71bd-aa2c-1181da8aeccb","0199d5ef-c7d4-7cab-a194-b2c3afbaf8e8","","null","<div style=""display: flex; justify-content: center; align-items: center;"">
                     <img src=""images/semantic/semantic_series_10/semantic_series_10_d.png"" style=""width: 300px; height: 300px;"" />
                   </div>","null","10","1","D","",""
"","","","","","html-keyboard-response","100","494021","0.0-81.0-1.0-1.0","65FDC56138894B8E9917C6CF4FD65F39","0199d612-8236-71bd-aa2c-1181da8aeccb","0199d5ef-c7d4-7cab-a194-b2c3afbaf8e8","","null","<div style=""display: flex; justify-content: center; align-items: center;"">
                     <img src=""images/semantic/semantic_series_10/semantic_series_10_e.png"" style=""width: 300px; height: 300px;"" />
                   </div>","null","10","1","E","",""
"","","","","","html-keyboard-response","101","500030","0.0-81.0-1.0-2.0","65FDC56138894B8E9917C6CF4FD65F39","0199d612-8236-71bd-aa2c-1181da8aeccb","0199d5ef-c7d4-7cab-a194-b2c3afbaf8e8","","null","<div style=""display: flex; justify-content: center; align-items: center;"">
                     <img src=""images/semantic/semantic_series_10/semantic_series_10_f.png"" style=""width: 300px; height: 300px;"" />
                   </div>","null","10","1","F","",""
"","","","","","survey-likert","102","503041","0.0-82.0","65FDC56138894B8E9917C6CF4FD65F39","0199d612-8236-71bd-aa2c-1181da8aeccb","0199d5ef-c7d4-7cab-a194-b2c3afbaf8e8","","3010","","{""Q0"":4}","10","1","surprise_rating","","[0]"
"","","","","","survey-likert","103","506689","0.0-83.0","65FDC56138894B8E9917C6CF4FD65F39","0199d612-8236-71bd-aa2c-1181da8aeccb","0199d5ef-c7d4-7cab-a194-b2c3afbaf8e8","","3647","","{""Q0"":3}","10","1","enjoyment_rating","","[0]"
"","","","","","html-keyboard-response","104","512693","0.0-84.0","65FDC56138894B8E9917C6CF4FD65F39","0199d612-8236-71bd-aa2c-1181da8aeccb","0199d5ef-c7d4-7cab-a194-b2c3afbaf8e8","","null","<div style=""display: flex; justify-content: center; align-items: center;"">
                     <img src=""images/other/blank.png"" style=""width: 300px; height: 300px;"" />
                   </div>","null","0","0","blank","",""
"","","","","","html-keyboard-response","105","518694","0.0-85.0","65FDC56138894B8E9917C6CF4FD65F39","0199d612-8236-71bd-aa2c-1181da8aeccb","0199d5ef-c7d4-7cab-a194-b2c3afbaf8e8","","null","<div style=""display: flex; justify-content: center; align-items: center;"">
                     <img src=""images/causal/causal_series_8/causal_series_8_a.png"" style=""width: 300px; height: 300px;"" />
                   </div>","null","8","2","A","",""
"","","","","","html-keyboard-response","106","524709","0.0-86.0","65FDC56138894B8E9917C6CF4FD65F39","0199d612-8236-71bd-aa2c-1181da8aeccb","0199d5ef-c7d4-7cab-a194-b2c3afbaf8e8","","null","<div style=""display: flex; justify-content: center; align-items: center;"">
                     <img src=""images/causal/causal_series_8/causal_series_8_b.png"" style=""width: 300px; height: 300px;"" />
                   </div>","null","8","2","B","",""
"","","","","","html-keyboard-response","107","530714","0.0-87.0","65FDC56138894B8E9917C6CF4FD65F39","0199d612-8236-71bd-aa2c-1181da8aeccb","0199d5ef-c7d4-7cab-a194-b2c3afbaf8e8","","null","<div style=""display: flex; justify-content: center; align-items: center;"">
                     <img src=""images/causal/causal_series_8/causal_series_8_c.png"" style=""width: 300px; height: 300px;"" />
                   </div>","null","8","2","C","",""
"","","","","","html-button-response","108","531632","0.0-88.0","65FDC56138894B8E9917C6CF4FD65F39","0199d612-8236-71bd-aa2c-1181da8aeccb","0199d5ef-c7d4-7cab-a194-b2c3afbaf8e8","","918","
        <div style=""display: flex; justify-content: center; align-items: center;"">
          <img src=""images/red_deck_2.png"" style=""width: 300px; height: 300px; margin-right: 10px;"" />
          <img src=""images/blue_deck_1.png"" style=""width: 300px; height: 300px;"" />
        </div>","1","8","2","choice","1",""
"","","","","","html-keyboard-response","109","537647","0.0-89.0-1.0-0.0","65FDC56138894B8E9917C6CF4FD65F39","0199d612-8236-71bd-aa2c-1181da8aeccb","0199d5ef-c7d4-7cab-a194-b2c3afbaf8e8","","null","<div style=""display: flex; justify-content: center; align-items: center;"">
                     <img src=""images/semantic/semantic_series_8/semantic_series_8_d.png"" style=""width: 300px; height: 300px;"" />
                   </div>","null","8","2","D","",""
"","","","","","html-keyboard-response","110","543650","0.0-89.0-1.0-1.0","65FDC56138894B8E9917C6CF4FD65F39","0199d612-8236-71bd-aa2c-1181da8aeccb","0199d5ef-c7d4-7cab-a194-b2c3afbaf8e8","","null","<div style=""display: flex; justify-content: center; align-items: center;"">
                     <img src=""images/semantic/semantic_series_8/semantic_series_8_e.png"" style=""width: 300px; height: 300px;"" />
                   </div>","null","8","2","E","",""
"","","","","","html-keyboard-response","111","549665","0.0-89.0-1.0-2.0","65FDC56138894B8E9917C6CF4FD65F39","0199d612-8236-71bd-aa2c-1181da8aeccb","0199d5ef-c7d4-7cab-a194-b2c3afbaf8e8","","null","<div style=""display: flex; justify-content: center; align-items: center;"">
                     <img src=""images/semantic/semantic_series_8/semantic_series_8_f.png"" style=""width: 300px; height: 300px;"" />
                   </div>","null","8","2","F","",""
"","","","","","survey-likert","112","553168","0.0-90.0","65FDC56138894B8E9917C6CF4FD65F39","0199d612-8236-71bd-aa2c-1181da8aeccb","0199d5ef-c7d4-7cab-a194-b2c3afbaf8e8","","3503","","{""Q0"":4}","8","2","surprise_rating","","[0]"
"","","","","","survey-likert","113","555449","0.0-91.0","65FDC56138894B8E9917C6CF4FD65F39","0199d612-8236-71bd-aa2c-1181da8aeccb","0199d5ef-c7d4-7cab-a194-b2c3afbaf8e8","","2280","","{""Q0"":4}","8","2","enjoyment_rating","","[0]"
"","","","","","html-keyboard-response","114","561461","0.0-92.0","65FDC56138894B8E9917C6CF4FD65F39","0199d612-8236-71bd-aa2c-1181da8aeccb","0199d5ef-c7d4-7cab-a194-b2c3afbaf8e8","","null","<div style=""display: flex; justify-content: center; align-items: center;"">
                     <img src=""images/other/blank.png"" style=""width: 300px; height: 300px;"" />
                   </div>","null","0","0","blank","",""
"","","","","","html-keyboard-response","115","567475","0.0-93.0","65FDC56138894B8E9917C6CF4FD65F39","0199d612-8236-71bd-aa2c-1181da8aeccb","0199d5ef-c7d4-7cab-a194-b2c3afbaf8e8","","null","<div style=""display: flex; justify-content: center; align-items: center;"">
                     <img src=""images/causal/causal_series_1/causal_series_1_a.png"" style=""width: 300px; height: 300px;"" />
                   </div>","null","1","2","A","",""
"","","","","","html-keyboard-response","116","573488","0.0-94.0","65FDC56138894B8E9917C6CF4FD65F39","0199d612-8236-71bd-aa2c-1181da8aeccb","0199d5ef-c7d4-7cab-a194-b2c3afbaf8e8","","null","<div style=""display: flex; justify-content: center; align-items: center;"">
                     <img src=""images/causal/causal_series_1/causal_series_1_b.png"" style=""width: 300px; height: 300px;"" />
                   </div>","null","1","2","B","",""
"","","","","","html-keyboard-response","117","579491","0.0-95.0","65FDC56138894B8E9917C6CF4FD65F39","0199d612-8236-71bd-aa2c-1181da8aeccb","0199d5ef-c7d4-7cab-a194-b2c3afbaf8e8","","null","<div style=""display: flex; justify-content: center; align-items: center;"">
                     <img src=""images/causal/causal_series_1/causal_series_1_c.png"" style=""width: 300px; height: 300px;"" />
                   </div>","null","1","2","C","",""
"","","","","","html-button-response","118","580624","0.0-96.0","65FDC56138894B8E9917C6CF4FD65F39","0199d612-8236-71bd-aa2c-1181da8aeccb","0199d5ef-c7d4-7cab-a194-b2c3afbaf8e8","","1132","
        <div style=""display: flex; justify-content: center; align-items: center;"">
          <img src=""images/red_deck_2.png"" style=""width: 300px; height: 300px; margin-right: 10px;"" />
          <img src=""images/blue_deck_1.png"" style=""width: 300px; height: 300px;"" />
        </div>","0","1","2","choice","0",""
"","","","","","html-keyboard-response","119","586628","0.0-97.0-0.0-0.0","65FDC56138894B8E9917C6CF4FD65F39","0199d612-8236-71bd-aa2c-1181da8aeccb","0199d5ef-c7d4-7cab-a194-b2c3afbaf8e8","","null","<div style=""display: flex; justify-content: center; align-items: center;"">
                     <img src=""images/causal/causal_series_1/causal_series_1_d.png"" style=""width: 300px; height: 300px;"" />
                   </div>","null","1","2","D","",""
"","","","","","html-keyboard-response","120","592632","0.0-97.0-0.0-1.0","65FDC56138894B8E9917C6CF4FD65F39","0199d612-8236-71bd-aa2c-1181da8aeccb","0199d5ef-c7d4-7cab-a194-b2c3afbaf8e8","","null","<div style=""display: flex; justify-content: center; align-items: center;"">
                     <img src=""images/causal/causal_series_1/causal_series_1_e.png"" style=""width: 300px; height: 300px;"" />
                   </div>","null","1","2","E","",""
"","","","","","html-keyboard-response","121","598646","0.0-97.0-0.0-2.0","65FDC56138894B8E9917C6CF4FD65F39","0199d612-8236-71bd-aa2c-1181da8aeccb","0199d5ef-c7d4-7cab-a194-b2c3afbaf8e8","","null","<div style=""display: flex; justify-content: center; align-items: center;"">
                     <img src=""images/causal/causal_series_1/causal_series_1_f.png"" style=""width: 300px; height: 300px;"" />
                   </div>","null","1","2","F","",""
"","","","","","survey-likert","122","600784","0.0-98.0","65FDC56138894B8E9917C6CF4FD65F39","0199d612-8236-71bd-aa2c-1181da8aeccb","0199d5ef-c7d4-7cab-a194-b2c3afbaf8e8","","2137","","{""Q0"":2}","1","2","surprise_rating","","[0]"
"","","","","","survey-likert","123","602352","0.0-99.0","65FDC56138894B8E9917C6CF4FD65F39","0199d612-8236-71bd-aa2c-1181da8aeccb","0199d5ef-c7d4-7cab-a194-b2c3afbaf8e8","","1568","","{""Q0"":1}","1","2","enjoyment_rating","","[0]"
"","","","","","html-keyboard-response","124","608363","0.0-100.0","65FDC56138894B8E9917C6CF4FD65F39","0199d612-8236-71bd-aa2c-1181da8aeccb","0199d5ef-c7d4-7cab-a194-b2c3afbaf8e8","","null","<div style=""display: flex; justify-content: center; align-items: center;"">
                     <img src=""images/other/blank.png"" style=""width: 300px; height: 300px;"" />
                   </div>","null","0","0","blank","",""
"","","","","","html-keyboard-response","125","614378","0.0-101.0","65FDC56138894B8E9917C6CF4FD65F39","0199d612-8236-71bd-aa2c-1181da8aeccb","0199d5ef-c7d4-7cab-a194-b2c3afbaf8e8","","null","<div style=""display: flex; justify-content: center; align-items: center;"">
                     <img src=""images/causal/causal_series_6/causal_series_6_a.png"" style=""width: 300px; height: 300px;"" />
                   </div>","null","6","2","A","",""
"","","","","","html-keyboard-response","126","620381","0.0-102.0","65FDC56138894B8E9917C6CF4FD65F39","0199d612-8236-71bd-aa2c-1181da8aeccb","0199d5ef-c7d4-7cab-a194-b2c3afbaf8e8","","null","<div style=""display: flex; justify-content: center; align-items: center;"">
                     <img src=""images/causal/causal_series_6/causal_series_6_b.png"" style=""width: 300px; height: 300px;"" />
                   </div>","null","6","2","B","",""
"","","","","","html-keyboard-response","127","626383","0.0-103.0","65FDC56138894B8E9917C6CF4FD65F39","0199d612-8236-71bd-aa2c-1181da8aeccb","0199d5ef-c7d4-7cab-a194-b2c3afbaf8e8","","null","<div style=""display: flex; justify-content: center; align-items: center;"">
                     <img src=""images/causal/causal_series_6/causal_series_6_c.png"" style=""width: 300px; height: 300px;"" />
                   </div>","null","6","2","C","",""
"","","","","","html-button-response","128","627896","0.0-104.0","65FDC56138894B8E9917C6CF4FD65F39","0199d612-8236-71bd-aa2c-1181da8aeccb","0199d5ef-c7d4-7cab-a194-b2c3afbaf8e8","","1512","
        <div style=""display: flex; justify-content: center; align-items: center;"">
          <img src=""images/red_deck_2.png"" style=""width: 300px; height: 300px; margin-right: 10px;"" />
          <img src=""images/blue_deck_1.png"" style=""width: 300px; height: 300px;"" />
        </div>","1","6","2","choice","1",""
"","","","","","html-keyboard-response","129","633897","0.0-105.0-1.0-0.0","65FDC56138894B8E9917C6CF4FD65F39","0199d612-8236-71bd-aa2c-1181da8aeccb","0199d5ef-c7d4-7cab-a194-b2c3afbaf8e8","","null","<div style=""display: flex; justify-content: center; align-items: center;"">
                     <img src=""images/semantic/semantic_series_6/semantic_series_6_d.png"" style=""width: 300px; height: 300px;"" />
                   </div>","null","6","2","D","",""
"","","","","","html-keyboard-response","130","639906","0.0-105.0-1.0-1.0","65FDC56138894B8E9917C6CF4FD65F39","0199d612-8236-71bd-aa2c-1181da8aeccb","0199d5ef-c7d4-7cab-a194-b2c3afbaf8e8","","null","<div style=""display: flex; justify-content: center; align-items: center;"">
                     <img src=""images/semantic/semantic_series_6/semantic_series_6_e.png"" style=""width: 300px; height: 300px;"" />
                   </div>","null","6","2","E","",""
"","","","","","html-keyboard-response","131","645921","0.0-105.0-1.0-2.0","65FDC56138894B8E9917C6CF4FD65F39","0199d612-8236-71bd-aa2c-1181da8aeccb","0199d5ef-c7d4-7cab-a194-b2c3afbaf8e8","","null","<div style=""display: flex; justify-content: center; align-items: center;"">
                     <img src=""images/semantic/semantic_series_6/semantic_series_6_f.png"" style=""width: 300px; height: 300px;"" />
                   </div>","null","6","2","F","",""
"","","","","","survey-likert","132","648176","0.0-106.0","65FDC56138894B8E9917C6CF4FD65F39","0199d612-8236-71bd-aa2c-1181da8aeccb","0199d5ef-c7d4-7cab-a194-b2c3afbaf8e8","","2254","","{""Q0"":2}","6","2","surprise_rating","","[0]"
"","","","","","survey-likert","133","649968","0.0-107.0","65FDC56138894B8E9917C6CF4FD65F39","0199d612-8236-71bd-aa2c-1181da8aeccb","0199d5ef-c7d4-7cab-a194-b2c3afbaf8e8","","1792","","{""Q0"":2}","6","2","enjoyment_rating","","[0]"
"","","","","","html-keyboard-response","134","655970","0.0-108.0","65FDC56138894B8E9917C6CF4FD65F39","0199d612-8236-71bd-aa2c-1181da8aeccb","0199d5ef-c7d4-7cab-a194-b2c3afbaf8e8","","null","<div style=""display: flex; justify-content: center; align-items: center;"">
                     <img src=""images/other/blank.png"" style=""width: 300px; height: 300px;"" />
                   </div>","null","0","0","blank","",""
"","","","","","html-keyboard-response","135","661973","0.0-109.0","65FDC56138894B8E9917C6CF4FD65F39","0199d612-8236-71bd-aa2c-1181da8aeccb","0199d5ef-c7d4-7cab-a194-b2c3afbaf8e8","","null","<div style=""display: flex; justify-content: center; align-items: center;"">
                     <img src=""images/causal/causal_series_5/causal_series_5_a.png"" style=""width: 300px; height: 300px;"" />
                   </div>","null","5","1","A","",""
"","","","","","html-keyboard-response","136","667978","0.0-110.0","65FDC56138894B8E9917C6CF4FD65F39","0199d612-8236-71bd-aa2c-1181da8aeccb","0199d5ef-c7d4-7cab-a194-b2c3afbaf8e8","","null","<div style=""display: flex; justify-content: center; align-items: center;"">
                     <img src=""images/causal/causal_series_5/causal_series_5_b.png"" style=""width: 300px; height: 300px;"" />
                   </div>","null","5","1","B","",""
"","","","","","html-keyboard-response","137","673987","0.0-111.0","65FDC56138894B8E9917C6CF4FD65F39","0199d612-8236-71bd-aa2c-1181da8aeccb","0199d5ef-c7d4-7cab-a194-b2c3afbaf8e8","","null","<div style=""display: flex; justify-content: center; align-items: center;"">
                     <img src=""images/causal/causal_series_5/causal_series_5_c.png"" style=""width: 300px; height: 300px;"" />
                   </div>","null","5","1","C","",""
"","","","","","html-button-response","138","675392","0.0-112.0","65FDC56138894B8E9917C6CF4FD65F39","0199d612-8236-71bd-aa2c-1181da8aeccb","0199d5ef-c7d4-7cab-a194-b2c3afbaf8e8","","1404","
        <div style=""display: flex; justify-content: center; align-items: center;"">
          <img src=""images/red_deck_2.png"" style=""width: 300px; height: 300px; margin-right: 10px;"" />
          <img src=""images/blue_deck_1.png"" style=""width: 300px; height: 300px;"" />
        </div>","1","5","1","choice","1",""
"","","","","","html-keyboard-response","139","681398","0.0-113.0-1.0-0.0","65FDC56138894B8E9917C6CF4FD65F39","0199d612-8236-71bd-aa2c-1181da8aeccb","0199d5ef-c7d4-7cab-a194-b2c3afbaf8e8","","null","<div style=""display: flex; justify-content: center; align-items: center;"">
                     <img src=""images/semantic/semantic_series_5/semantic_series_5_d.png"" style=""width: 300px; height: 300px;"" />
                   </div>","null","5","1","D","",""
"","","","","","html-keyboard-response","140","687408","0.0-113.0-1.0-1.0","65FDC56138894B8E9917C6CF4FD65F39","0199d612-8236-71bd-aa2c-1181da8aeccb","0199d5ef-c7d4-7cab-a194-b2c3afbaf8e8","","null","<div style=""display: flex; justify-content: center; align-items: center;"">
                     <img src=""images/semantic/semantic_series_5/semantic_series_5_e.png"" style=""width: 300px; height: 300px;"" />
                   </div>","null","5","1","E","",""
"","","","","","html-keyboard-response","141","693411","0.0-113.0-1.0-2.0","65FDC56138894B8E9917C6CF4FD65F39","0199d612-8236-71bd-aa2c-1181da8aeccb","0199d5ef-c7d4-7cab-a194-b2c3afbaf8e8","","null","<div style=""display: flex; justify-content: center; align-items: center;"">
                     <img src=""images/semantic/semantic_series_5/semantic_series_5_f.png"" style=""width: 300px; height: 300px;"" />
                   </div>","null","5","1","F","",""
"","","","","","survey-likert","142","695544","0.0-114.0","65FDC56138894B8E9917C6CF4FD65F39","0199d612-8236-71bd-aa2c-1181da8aeccb","0199d5ef-c7d4-7cab-a194-b2c3afbaf8e8","","2132","","{""Q0"":2}","5","1","surprise_rating","","[0]"
"","","","","","survey-likert","143","697944","0.0-115.0","65FDC56138894B8E9917C6CF4FD65F39","0199d612-8236-71bd-aa2c-1181da8aeccb","0199d5ef-c7d4-7cab-a194-b2c3afbaf8e8","","2400","","{""Q0"":1}","5","1","enjoyment_rating","","[0]"
"","","","","","html-keyboard-response","144","703946","0.0-116.0","65FDC56138894B8E9917C6CF4FD65F39","0199d612-8236-71bd-aa2c-1181da8aeccb","0199d5ef-c7d4-7cab-a194-b2c3afbaf8e8","","null","<div style=""display: flex; justify-content: center; align-items: center;"">
                     <img src=""images/other/blank.png"" style=""width: 300px; height: 300px;"" />
                   </div>","null","0","0","blank","",""
"","","","","","html-keyboard-response","145","709958","0.0-117.0","65FDC56138894B8E9917C6CF4FD65F39","0199d612-8236-71bd-aa2c-1181da8aeccb","0199d5ef-c7d4-7cab-a194-b2c3afbaf8e8","","null","<div style=""display: flex; justify-content: center; align-items: center;"">
                     <img src=""images/causal/causal_series_7/causal_series_7_a.png"" style=""width: 300px; height: 300px;"" />
                   </div>","null","7","1","A","",""
"","","","","","html-keyboard-response","146","715960","0.0-118.0","65FDC56138894B8E9917C6CF4FD65F39","0199d612-8236-71bd-aa2c-1181da8aeccb","0199d5ef-c7d4-7cab-a194-b2c3afbaf8e8","","null","<div style=""display: flex; justify-content: center; align-items: center;"">
                     <img src=""images/causal/causal_series_7/causal_series_7_b.png"" style=""width: 300px; height: 300px;"" />
                   </div>","null","7","1","B","",""
"","","","","","html-keyboard-response","147","721964","0.0-119.0","65FDC56138894B8E9917C6CF4FD65F39","0199d612-8236-71bd-aa2c-1181da8aeccb","0199d5ef-c7d4-7cab-a194-b2c3afbaf8e8","","null","<div style=""display: flex; justify-content: center; align-items: center;"">
                     <img src=""images/causal/causal_series_7/causal_series_7_c.png"" style=""width: 300px; height: 300px;"" />
                   </div>","null","7","1","C","",""
"","","","","","html-button-response","148","724144","0.0-120.0","65FDC56138894B8E9917C6CF4FD65F39","0199d612-8236-71bd-aa2c-1181da8aeccb","0199d5ef-c7d4-7cab-a194-b2c3afbaf8e8","","2179","
        <div style=""display: flex; justify-content: center; align-items: center;"">
          <img src=""images/red_deck_2.png"" style=""width: 300px; height: 300px; margin-right: 10px;"" />
          <img src=""images/blue_deck_1.png"" style=""width: 300px; height: 300px;"" />
        </div>","0","7","1","choice","0",""
"","","","","","html-keyboard-response","149","730148","0.0-121.0-0.0-0.0","65FDC56138894B8E9917C6CF4FD65F39","0199d612-8236-71bd-aa2c-1181da8aeccb","0199d5ef-c7d4-7cab-a194-b2c3afbaf8e8","","null","<div style=""display: flex; justify-content: center; align-items: center;"">
                     <img src=""images/causal/causal_series_7/causal_series_7_d.png"" style=""width: 300px; height: 300px;"" />
                   </div>","null","7","1","D","",""
"","","","","","html-keyboard-response","150","736159","0.0-121.0-0.0-1.0","65FDC56138894B8E9917C6CF4FD65F39","0199d612-8236-71bd-aa2c-1181da8aeccb","0199d5ef-c7d4-7cab-a194-b2c3afbaf8e8","","null","<div style=""display: flex; justify-content: center; align-items: center;"">
                     <img src=""images/causal/causal_series_7/causal_series_7_e.png"" style=""width: 300px; height: 300px;"" />
                   </div>","null","7","1","E","",""
"","","","","","html-keyboard-response","151","742160","0.0-121.0-0.0-2.0","65FDC56138894B8E9917C6CF4FD65F39","0199d612-8236-71bd-aa2c-1181da8aeccb","0199d5ef-c7d4-7cab-a194-b2c3afbaf8e8","","null","<div style=""display: flex; justify-content: center; align-items: center;"">
                     <img src=""images/causal/causal_series_7/causal_series_7_f.png"" style=""width: 300px; height: 300px;"" />
                   </div>","null","7","1","F","",""
"","","","","","survey-likert","152","743568","0.0-122.0","65FDC56138894B8E9917C6CF4FD65F39","0199d612-8236-71bd-aa2c-1181da8aeccb","0199d5ef-c7d4-7cab-a194-b2c3afbaf8e8","","1407","","{""Q0"":4}","7","1","surprise_rating","","[0]"
"","","","","","survey-likert","153","745608","0.0-123.0","65FDC56138894B8E9917C6CF4FD65F39","0199d612-8236-71bd-aa2c-1181da8aeccb","0199d5ef-c7d4-7cab-a194-b2c3afbaf8e8","","2040","","{""Q0"":4}","7","1","enjoyment_rating","","[0]"
"","","","","","html-keyboard-response","154","751624","0.0-124.0","65FDC56138894B8E9917C6CF4FD65F39","0199d612-8236-71bd-aa2c-1181da8aeccb","0199d5ef-c7d4-7cab-a194-b2c3afbaf8e8","","null","<div style=""display: flex; justify-content: center; align-items: center;"">
                     <img src=""images/other/blank.png"" style=""width: 300px; height: 300px;"" />
                   </div>","null","0","0","blank","",""
"","","","","","html-keyboard-response","155","757627","0.0-125.0","65FDC56138894B8E9917C6CF4FD65F39","0199d612-8236-71bd-aa2c-1181da8aeccb","0199d5ef-c7d4-7cab-a194-b2c3afbaf8e8","","null","<div style=""display: flex; justify-content: center; align-items: center;"">
                     <img src=""images/causal/causal_series_6/causal_series_6_a.png"" style=""width: 300px; height: 300px;"" />
                   </div>","null","6","1","A","",""
"","","","","","html-keyboard-response","156","763631","0.0-126.0","65FDC56138894B8E9917C6CF4FD65F39","0199d612-8236-71bd-aa2c-1181da8aeccb","0199d5ef-c7d4-7cab-a194-b2c3afbaf8e8","","null","<div style=""display: flex; justify-content: center; align-items: center;"">
                     <img src=""images/causal/causal_series_6/causal_series_6_b.png"" style=""width: 300px; height: 300px;"" />
                   </div>","null","6","1","B","",""
"","","","","","html-keyboard-response","157","769640","0.0-127.0","65FDC56138894B8E9917C6CF4FD65F39","0199d612-8236-71bd-aa2c-1181da8aeccb","0199d5ef-c7d4-7cab-a194-b2c3afbaf8e8","","null","<div style=""display: flex; justify-content: center; align-items: center;"">
                     <img src=""images/causal/causal_series_6/causal_series_6_c.png"" style=""width: 300px; height: 300px;"" />
                   </div>","null","6","1","C","",""
"","","","","","html-button-response","158","770944","0.0-128.0","65FDC56138894B8E9917C6CF4FD65F39","0199d612-8236-71bd-aa2c-1181da8aeccb","0199d5ef-c7d4-7cab-a194-b2c3afbaf8e8","","1303","
        <div style=""display: flex; justify-content: center; align-items: center;"">
          <img src=""images/red_deck_2.png"" style=""width: 300px; height: 300px; margin-right: 10px;"" />
          <img src=""images/blue_deck_1.png"" style=""width: 300px; height: 300px;"" />
        </div>","0","6","1","choice","0",""
"","","","","","html-keyboard-response","159","776958","0.0-129.0-0.0-0.0","65FDC56138894B8E9917C6CF4FD65F39","0199d612-8236-71bd-aa2c-1181da8aeccb","0199d5ef-c7d4-7cab-a194-b2c3afbaf8e8","","null","<div style=""display: flex; justify-content: center; align-items: center;"">
                     <img src=""images/causal/causal_series_6/causal_series_6_d.png"" style=""width: 300px; height: 300px;"" />
                   </div>","null","6","1","D","",""
"","","","","","html-keyboard-response","160","782961","0.0-129.0-0.0-1.0","65FDC56138894B8E9917C6CF4FD65F39","0199d612-8236-71bd-aa2c-1181da8aeccb","0199d5ef-c7d4-7cab-a194-b2c3afbaf8e8","","null","<div style=""display: flex; justify-content: center; align-items: center;"">
                     <img src=""images/causal/causal_series_6/causal_series_6_e.png"" style=""width: 300px; height: 300px;"" />
                   </div>","null","6","1","E","",""
"","","","","","html-keyboard-response","161","788973","0.0-129.0-0.0-2.0","65FDC56138894B8E9917C6CF4FD65F39","0199d612-8236-71bd-aa2c-1181da8aeccb","0199d5ef-c7d4-7cab-a194-b2c3afbaf8e8","","null","<div style=""display: flex; justify-content: center; align-items: center;"">
                     <img src=""images/causal/causal_series_6/causal_series_6_f.png"" style=""width: 300px; height: 300px;"" />
                   </div>","null","6","1","F","",""
"","","","","","survey-likert","162","790568","0.0-130.0","65FDC56138894B8E9917C6CF4FD65F39","0199d612-8236-71bd-aa2c-1181da8aeccb","0199d5ef-c7d4-7cab-a194-b2c3afbaf8e8","","1594","","{""Q0"":0}","6","1","surprise_rating","","[0]"
"","","","","","survey-likert","163","791897","0.0-131.0","65FDC56138894B8E9917C6CF4FD65F39","0199d612-8236-71bd-aa2c-1181da8aeccb","0199d5ef-c7d4-7cab-a194-b2c3afbaf8e8","","1328","","{""Q0"":3}","6","1","enjoyment_rating","","[0]"
"","","","","","html-keyboard-response","164","797901","0.0-132.0","65FDC56138894B8E9917C6CF4FD65F39","0199d612-8236-71bd-aa2c-1181da8aeccb","0199d5ef-c7d4-7cab-a194-b2c3afbaf8e8","","null","<div style=""display: flex; justify-content: center; align-items: center;"">
                     <img src=""images/other/blank.png"" style=""width: 300px; height: 300px;"" />
                   </div>","null","0","0","blank","",""
"","","","","","html-keyboard-response","165","803909","0.0-133.0","65FDC56138894B8E9917C6CF4FD65F39","0199d612-8236-71bd-aa2c-1181da8aeccb","0199d5ef-c7d4-7cab-a194-b2c3afbaf8e8","","null","<div style=""display: flex; justify-content: center; align-items: center;"">
                     <img src=""images/causal/causal_series_4/causal_series_4_a.png"" style=""width: 300px; height: 300px;"" />
                   </div>","null","4","2","A","",""
"","","","","","html-keyboard-response","166","809913","0.0-134.0","65FDC56138894B8E9917C6CF4FD65F39","0199d612-8236-71bd-aa2c-1181da8aeccb","0199d5ef-c7d4-7cab-a194-b2c3afbaf8e8","","null","<div style=""display: flex; justify-content: center; align-items: center;"">
                     <img src=""images/causal/causal_series_4/causal_series_4_b.png"" style=""width: 300px; height: 300px;"" />
                   </div>","null","4","2","B","",""
"","","","","","html-keyboard-response","167","815923","0.0-135.0","65FDC56138894B8E9917C6CF4FD65F39","0199d612-8236-71bd-aa2c-1181da8aeccb","0199d5ef-c7d4-7cab-a194-b2c3afbaf8e8","","null","<div style=""display: flex; justify-content: center; align-items: center;"">
                     <img src=""images/causal/causal_series_4/causal_series_4_c.png"" style=""width: 300px; height: 300px;"" />
                   </div>","null","4","2","C","",""
"","","","","","html-button-response","168","817728","0.0-136.0","65FDC56138894B8E9917C6CF4FD65F39","0199d612-8236-71bd-aa2c-1181da8aeccb","0199d5ef-c7d4-7cab-a194-b2c3afbaf8e8","","1803","
        <div style=""display: flex; justify-content: center; align-items: center;"">
          <img src=""images/red_deck_2.png"" style=""width: 300px; height: 300px; margin-right: 10px;"" />
          <img src=""images/blue_deck_1.png"" style=""width: 300px; height: 300px;"" />
        </div>","1","4","2","choice","1",""
"","","","","","html-keyboard-response","169","823737","0.0-137.0-1.0-0.0","65FDC56138894B8E9917C6CF4FD65F39","0199d612-8236-71bd-aa2c-1181da8aeccb","0199d5ef-c7d4-7cab-a194-b2c3afbaf8e8","","null","<div style=""display: flex; justify-content: center; align-items: center;"">
                     <img src=""images/semantic/semantic_series_4/semantic_series_4_d.png"" style=""width: 300px; height: 300px;"" />
                   </div>","null","4","2","D","",""
"","","","","","html-keyboard-response","170","829740","0.0-137.0-1.0-1.0","65FDC56138894B8E9917C6CF4FD65F39","0199d612-8236-71bd-aa2c-1181da8aeccb","0199d5ef-c7d4-7cab-a194-b2c3afbaf8e8","","null","<div style=""display: flex; justify-content: center; align-items: center;"">
                     <img src=""images/semantic/semantic_series_4/semantic_series_4_e.png"" style=""width: 300px; height: 300px;"" />
                   </div>","null","4","2","E","",""
"","","","","","html-keyboard-response","171","835748","0.0-137.0-1.0-2.0","65FDC56138894B8E9917C6CF4FD65F39","0199d612-8236-71bd-aa2c-1181da8aeccb","0199d5ef-c7d4-7cab-a194-b2c3afbaf8e8","","null","<div style=""display: flex; justify-content: center; align-items: center;"">
                     <img src=""images/semantic/semantic_series_4/semantic_series_4_f.png"" style=""width: 300px; height: 300px;"" />
                   </div>","null","4","2","F","",""
"","","","","","survey-likert","172","838352","0.0-138.0","65FDC56138894B8E9917C6CF4FD65F39","0199d612-8236-71bd-aa2c-1181da8aeccb","0199d5ef-c7d4-7cab-a194-b2c3afbaf8e8","","2603","","{""Q0"":2}","4","2","surprise_rating","","[0]"
"","","","","","survey-likert","173","839856","0.0-139.0","65FDC56138894B8E9917C6CF4FD65F39","0199d612-8236-71bd-aa2c-1181da8aeccb","0199d5ef-c7d4-7cab-a194-b2c3afbaf8e8","","1503","","{""Q0"":1}","4","2","enjoyment_rating","","[0]"
"","","","","","html-keyboard-response","174","845866","0.0-140.0","65FDC56138894B8E9917C6CF4FD65F39","0199d612-8236-71bd-aa2c-1181da8aeccb","0199d5ef-c7d4-7cab-a194-b2c3afbaf8e8","","null","<div style=""display: flex; justify-content: center; align-items: center;"">
                     <img src=""images/other/blank.png"" style=""width: 300px; height: 300px;"" />
                   </div>","null","0","0","blank","",""
"","","","","","html-keyboard-response","175","851867","0.0-141.0","65FDC56138894B8E9917C6CF4FD65F39","0199d612-8236-71bd-aa2c-1181da8aeccb","0199d5ef-c7d4-7cab-a194-b2c3afbaf8e8","","null","<div style=""display: flex; justify-content: center; align-items: center;"">
                     <img src=""images/causal/causal_series_5/causal_series_5_a.png"" style=""width: 300px; height: 300px;"" />
                   </div>","null","5","2","A","",""
"","","","","","html-keyboard-response","176","857869","0.0-142.0","65FDC56138894B8E9917C6CF4FD65F39","0199d612-8236-71bd-aa2c-1181da8aeccb","0199d5ef-c7d4-7cab-a194-b2c3afbaf8e8","","null","<div style=""display: flex; justify-content: center; align-items: center;"">
                     <img src=""images/causal/causal_series_5/causal_series_5_b.png"" style=""width: 300px; height: 300px;"" />
                   </div>","null","5","2","B","",""
"","","","","","html-keyboard-response","177","863880","0.0-143.0","65FDC56138894B8E9917C6CF4FD65F39","0199d612-8236-71bd-aa2c-1181da8aeccb","0199d5ef-c7d4-7cab-a194-b2c3afbaf8e8","","null","<div style=""display: flex; justify-content: center; align-items: center;"">
                     <img src=""images/causal/causal_series_5/causal_series_5_c.png"" style=""width: 300px; height: 300px;"" />
                   </div>","null","5","2","C","",""
"","","","","","html-button-response","178","864968","0.0-144.0","65FDC56138894B8E9917C6CF4FD65F39","0199d612-8236-71bd-aa2c-1181da8aeccb","0199d5ef-c7d4-7cab-a194-b2c3afbaf8e8","","1088","
        <div style=""display: flex; justify-content: center; align-items: center;"">
          <img src=""images/red_deck_2.png"" style=""width: 300px; height: 300px; margin-right: 10px;"" />
          <img src=""images/blue_deck_1.png"" style=""width: 300px; height: 300px;"" />
        </div>","1","5","2","choice","1",""
"","","","","","html-keyboard-response","179","870969","0.0-145.0-1.0-0.0","65FDC56138894B8E9917C6CF4FD65F39","0199d612-8236-71bd-aa2c-1181da8aeccb","0199d5ef-c7d4-7cab-a194-b2c3afbaf8e8","","null","<div style=""display: flex; justify-content: center; align-items: center;"">
                     <img src=""images/semantic/semantic_series_5/semantic_series_5_d.png"" style=""width: 300px; height: 300px;"" />
                   </div>","null","5","2","D","",""
"","","","","","html-keyboard-response","180","876982","0.0-145.0-1.0-1.0","65FDC56138894B8E9917C6CF4FD65F39","0199d612-8236-71bd-aa2c-1181da8aeccb","0199d5ef-c7d4-7cab-a194-b2c3afbaf8e8","","null","<div style=""display: flex; justify-content: center; align-items: center;"">
                     <img src=""images/semantic/semantic_series_5/semantic_series_5_e.png"" style=""width: 300px; height: 300px;"" />
                   </div>","null","5","2","E","",""
"","","","","","html-keyboard-response","181","882988","0.0-145.0-1.0-2.0","65FDC56138894B8E9917C6CF4FD65F39","0199d612-8236-71bd-aa2c-1181da8aeccb","0199d5ef-c7d4-7cab-a194-b2c3afbaf8e8","","null","<div style=""display: flex; justify-content: center; align-items: center;"">
                     <img src=""images/semantic/semantic_series_5/semantic_series_5_f.png"" style=""width: 300px; height: 300px;"" />
                   </div>","null","5","2","F","",""
"","","","","","survey-likert","182","884704","0.0-146.0","65FDC56138894B8E9917C6CF4FD65F39","0199d612-8236-71bd-aa2c-1181da8aeccb","0199d5ef-c7d4-7cab-a194-b2c3afbaf8e8","","1716","","{""Q0"":0}","5","2","surprise_rating","","[0]"
"","","","","","survey-likert","183","886416","0.0-147.0","65FDC56138894B8E9917C6CF4FD65F39","0199d612-8236-71bd-aa2c-1181da8aeccb","0199d5ef-c7d4-7cab-a194-b2c3afbaf8e8","","1712","","{""Q0"":2}","5","2","enjoyment_rating","","[0]"
"","","","","","html-keyboard-response","184","892430","0.0-148.0","65FDC56138894B8E9917C6CF4FD65F39","0199d612-8236-71bd-aa2c-1181da8aeccb","0199d5ef-c7d4-7cab-a194-b2c3afbaf8e8","","null","<div style=""display: flex; justify-content: center; align-items: center;"">
                     <img src=""images/other/blank.png"" style=""width: 300px; height: 300px;"" />
                   </div>","null","0","0","blank","",""
"","","","","","html-keyboard-response","185","898435","0.0-149.0","65FDC56138894B8E9917C6CF4FD65F39","0199d612-8236-71bd-aa2c-1181da8aeccb","0199d5ef-c7d4-7cab-a194-b2c3afbaf8e8","","null","<div style=""display: flex; justify-content: center; align-items: center;"">
                     <img src=""images/causal/causal_series_3/causal_series_3_a.png"" style=""width: 300px; height: 300px;"" />
                   </div>","null","3","2","A","",""
"","","","","","html-keyboard-response","186","904448","0.0-150.0","65FDC56138894B8E9917C6CF4FD65F39","0199d612-8236-71bd-aa2c-1181da8aeccb","0199d5ef-c7d4-7cab-a194-b2c3afbaf8e8","","null","<div style=""display: flex; justify-content: center; align-items: center;"">
                     <img src=""images/causal/causal_series_3/causal_series_3_b.png"" style=""width: 300px; height: 300px;"" />
                   </div>","null","3","2","B","",""
"","","","","","html-keyboard-response","187","910457","0.0-151.0","65FDC56138894B8E9917C6CF4FD65F39","0199d612-8236-71bd-aa2c-1181da8aeccb","0199d5ef-c7d4-7cab-a194-b2c3afbaf8e8","","null","<div style=""display: flex; justify-content: center; align-items: center;"">
                     <img src=""images/causal/causal_series_3/causal_series_3_c.png"" style=""width: 300px; height: 300px;"" />
                   </div>","null","3","2","C","",""
"","","","","","html-button-response","188","911280","0.0-152.0","65FDC56138894B8E9917C6CF4FD65F39","0199d612-8236-71bd-aa2c-1181da8aeccb","0199d5ef-c7d4-7cab-a194-b2c3afbaf8e8","","822","
        <div style=""display: flex; justify-content: center; align-items: center;"">
          <img src=""images/red_deck_2.png"" style=""width: 300px; height: 300px; margin-right: 10px;"" />
          <img src=""images/blue_deck_1.png"" style=""width: 300px; height: 300px;"" />
        </div>","1","3","2","choice","1",""
"","","","","","html-keyboard-response","189","917286","0.0-153.0-1.0-0.0","65FDC56138894B8E9917C6CF4FD65F39","0199d612-8236-71bd-aa2c-1181da8aeccb","0199d5ef-c7d4-7cab-a194-b2c3afbaf8e8","","null","<div style=""display: flex; justify-content: center; align-items: center;"">
                     <img src=""images/semantic/semantic_series_3/semantic_series_3_d.png"" style=""width: 300px; height: 300px;"" />
                   </div>","null","3","2","D","",""
"","","","","","html-keyboard-response","190","923291","0.0-153.0-1.0-1.0","65FDC56138894B8E9917C6CF4FD65F39","0199d612-8236-71bd-aa2c-1181da8aeccb","0199d5ef-c7d4-7cab-a194-b2c3afbaf8e8","","null","<div style=""display: flex; justify-content: center; align-items: center;"">
                     <img src=""images/semantic/semantic_series_3/semantic_series_3_e.png"" style=""width: 300px; height: 300px;"" />
                   </div>","null","3","2","E","",""
"","","","","","html-keyboard-response","191","929298","0.0-153.0-1.0-2.0","65FDC56138894B8E9917C6CF4FD65F39","0199d612-8236-71bd-aa2c-1181da8aeccb","0199d5ef-c7d4-7cab-a194-b2c3afbaf8e8","","null","<div style=""display: flex; justify-content: center; align-items: center;"">
                     <img src=""images/semantic/semantic_series_3/semantic_series_3_f.png"" style=""width: 300px; height: 300px;"" />
                   </div>","null","3","2","F","",""
"","","","","","survey-likert","192","931432","0.0-154.0","65FDC56138894B8E9917C6CF4FD65F39","0199d612-8236-71bd-aa2c-1181da8aeccb","0199d5ef-c7d4-7cab-a194-b2c3afbaf8e8","","2134","","{""Q0"":2}","3","2","surprise_rating","","[0]"
"","","","","","survey-likert","193","932664","0.0-155.0","65FDC56138894B8E9917C6CF4FD65F39","0199d612-8236-71bd-aa2c-1181da8aeccb","0199d5ef-c7d4-7cab-a194-b2c3afbaf8e8","","1232","","{""Q0"":1}","3","2","enjoyment_rating","","[0]"
"","","","","","html-keyboard-response","194","938676","0.0-156.0","65FDC56138894B8E9917C6CF4FD65F39","0199d612-8236-71bd-aa2c-1181da8aeccb","0199d5ef-c7d4-7cab-a194-b2c3afbaf8e8","","null","<div style=""display: flex; justify-content: center; align-items: center;"">
                     <img src=""images/other/blank.png"" style=""width: 300px; height: 300px;"" />
                   </div>","null","0","0","blank","",""
"","","","","","html-keyboard-response","195","944693","0.0-157.0","65FDC56138894B8E9917C6CF4FD65F39","0199d612-8236-71bd-aa2c-1181da8aeccb","0199d5ef-c7d4-7cab-a194-b2c3afbaf8e8","","null","<div style=""display: flex; justify-content: center; align-items: center;"">
                     <img src=""images/causal/causal_series_4/causal_series_4_a.png"" style=""width: 300px; height: 300px;"" />
                   </div>","null","4","1","A","",""
"","","","","","html-keyboard-response","196","950703","0.0-158.0","65FDC56138894B8E9917C6CF4FD65F39","0199d612-8236-71bd-aa2c-1181da8aeccb","0199d5ef-c7d4-7cab-a194-b2c3afbaf8e8","","null","<div style=""display: flex; justify-content: center; align-items: center;"">
                     <img src=""images/causal/causal_series_4/causal_series_4_b.png"" style=""width: 300px; height: 300px;"" />
                   </div>","null","4","1","B","",""
"","","","","","html-keyboard-response","197","956713","0.0-159.0","65FDC56138894B8E9917C6CF4FD65F39","0199d612-8236-71bd-aa2c-1181da8aeccb","0199d5ef-c7d4-7cab-a194-b2c3afbaf8e8","","null","<div style=""display: flex; justify-content: center; align-items: center;"">
                     <img src=""images/causal/causal_series_4/causal_series_4_c.png"" style=""width: 300px; height: 300px;"" />
                   </div>","null","4","1","C","",""
"","","","","","html-button-response","198","957576","0.0-160.0","65FDC56138894B8E9917C6CF4FD65F39","0199d612-8236-71bd-aa2c-1181da8aeccb","0199d5ef-c7d4-7cab-a194-b2c3afbaf8e8","","861","
        <div style=""display: flex; justify-content: center; align-items: center;"">
          <img src=""images/red_deck_2.png"" style=""width: 300px; height: 300px; margin-right: 10px;"" />
          <img src=""images/blue_deck_1.png"" style=""width: 300px; height: 300px;"" />
        </div>","0","4","1","choice","0",""
"","","","","","html-keyboard-response","199","963577","0.0-161.0-0.0-0.0","65FDC56138894B8E9917C6CF4FD65F39","0199d612-8236-71bd-aa2c-1181da8aeccb","0199d5ef-c7d4-7cab-a194-b2c3afbaf8e8","","null","<div style=""display: flex; justify-content: center; align-items: center;"">
                     <img src=""images/causal/causal_series_4/causal_series_4_d.png"" style=""width: 300px; height: 300px;"" />
                   </div>","null","4","1","D","",""
"","","","","","html-keyboard-response","200","969588","0.0-161.0-0.0-1.0","65FDC56138894B8E9917C6CF4FD65F39","0199d612-8236-71bd-aa2c-1181da8aeccb","0199d5ef-c7d4-7cab-a194-b2c3afbaf8e8","","null","<div style=""display: flex; justify-content: center; align-items: center;"">
                     <img src=""images/causal/causal_series_4/causal_series_4_e.png"" style=""width: 300px; height: 300px;"" />
                   </div>","null","4","1","E","",""
"","","","","","html-keyboard-response","201","975591","0.0-161.0-0.0-2.0","65FDC56138894B8E9917C6CF4FD65F39","0199d612-8236-71bd-aa2c-1181da8aeccb","0199d5ef-c7d4-7cab-a194-b2c3afbaf8e8","","null","<div style=""display: flex; justify-content: center; align-items: center;"">
                     <img src=""images/causal/causal_series_4/causal_series_4_f.png"" style=""width: 300px; height: 300px;"" />
                   </div>","null","4","1","F","",""
"","","","","","survey-likert","202","977752","0.0-162.0","65FDC56138894B8E9917C6CF4FD65F39","0199d612-8236-71bd-aa2c-1181da8aeccb","0199d5ef-c7d4-7cab-a194-b2c3afbaf8e8","","2160","","{""Q0"":4}","4","1","surprise_rating","","[0]"
"","","","","","survey-likert","203","980624","0.0-163.0","65FDC56138894B8E9917C6CF4FD65F39","0199d612-8236-71bd-aa2c-1181da8aeccb","0199d5ef-c7d4-7cab-a194-b2c3afbaf8e8","","2872","","{""Q0"":4}","4","1","enjoyment_rating","","[0]"
"","","","","","html-keyboard-response","204","986635","0.0-164.0","65FDC56138894B8E9917C6CF4FD65F39","0199d612-8236-71bd-aa2c-1181da8aeccb","0199d5ef-c7d4-7cab-a194-b2c3afbaf8e8","","null","<div style=""display: flex; justify-content: center; align-items: center;"">
                     <img src=""images/other/blank.png"" style=""width: 300px; height: 300px;"" />
                   </div>","null","0","0","blank","",""
"","","","","","survey-text","205","1027880","0.0-165.0","65FDC56138894B8E9917C6CF4FD65F39","0199d612-8236-71bd-aa2c-1181da8aeccb","0199d5ef-c7d4-7cab-a194-b2c3afbaf8e8","","41240","","{""Q0"":""They each had two different options to progress the story, I suppose the red one were more realistic?""}","","","","",""
"","","","","","html-button-response","206","1042008","0.0-166.0","65FDC56138894B8E9917C6CF4FD65F39","0199d612-8236-71bd-aa2c-1181da8aeccb","0199d5ef-c7d4-7cab-a194-b2c3afbaf8e8","","14127","Which color deck do the following sentences continue the story from?","0","","","","",""
"","","","","","html-button-response","207","1050376","0.0-167.0","65FDC56138894B8E9917C6CF4FD65F39","0199d612-8236-71bd-aa2c-1181da8aeccb","0199d5ef-c7d4-7cab-a194-b2c3afbaf8e8","","8368","Which color deck do the following sentences NOT follow the story from?","1","","","","",""
"","","","","","html-button-response","208","1063120","0.0-168.0","65FDC56138894B8E9917C6CF4FD65F39","0199d612-8236-71bd-aa2c-1181da8aeccb","0199d5ef-c7d4-7cab-a194-b2c3afbaf8e8","","12744","Which type of deck did you prefer overall?","1","","","","",""
"","","","","","survey-text","209","1070416","0.0-169.0","65FDC56138894B8E9917C6CF4FD65F39","0199d612-8236-71bd-aa2c-1181da8aeccb","0199d5ef-c7d4-7cab-a194-b2c3afbaf8e8","","7294","","{""Q0"":""OTHER"",""Q1"":""28""}","","","","",""
"","","","","","instructions","210","1075064","0.0-170.0","65FDC56138894B8E9917C6CF4FD65F39","0199d612-8236-71bd-aa2c-1181da8aeccb","0199d5ef-c7d4-7cab-a194-b2c3afbaf8e8","[{""page_index"":0,""viewing_time"":4647}]","4647","","","","","","",""
