"success","timeout","failed_images","failed_audio","failed_video","trial_type","trial_index","time_elapsed","internal_node_id","subject_id","study_id","session_id","view_history","rt","stimulus","response","series","repetition","phase","choice","question_order"
"true","false","[]","[]","[]","preload","0","1200","0.0-0.0","757A0F561B334FA1880A22D268D6861B","0199db6e-beb7-7429-bb4b-9a99a688046b","0199db60-0c70-7be3-948d-e21afdfd0731","","","","","","","","",""
"","","","","","instructions","1","124607","0.0-1.0","757A0F561B334FA1880A22D268D6861B","0199db6e-beb7-7429-bb4b-9a99a688046b","0199db60-0c70-7be3-948d-e21afdfd0731","[{""page_index"":0,""viewing_time"":123403}]","123406","","","","","","",""
"","","","","","instructions","2","132856","0.0-2.0","757A0F561B334FA1880A22D268D6861B","0199db6e-beb7-7429-bb4b-9a99a688046b","0199db60-0c70-7be3-948d-e21afdfd0731","[{""page_index"":0,""viewing_time"":8247}]","8247","","","","","","",""
"true","","","","","fullscreen","3","151798","0.0-3.0","757A0F561B334FA1880A22D268D6861B","0199db6e-beb7-7429-bb4b-9a99a688046b","0199db60-0c70-7be3-948d-e21afdfd0731","","17937","","","","","","",""
"","","","","","instructions","4","213825","0.0-4.0","757A0F561B334FA1880A22D268D6861B","0199db6e-beb7-7429-bb4b-9a99a688046b","0199db60-0c70-7be3-948d-e21afdfd0731","[{""page_index"":0,""viewing_time"":62025}]","62026","","","","","","",""
"","","","","","html-keyboard-response","5","219840","0.0-5.0","757A0F561B334FA1880A22D268D6861B","0199db6e-beb7-7429-bb4b-9a99a688046b","0199db60-0c70-7be3-948d-e21afdfd0731","","null","<div style=""display: flex; justify-content: center; align-items: center;"">
                     <img src=""images/causal/causal_series_10/causal_series_10_a.png"" style=""width: 300px; height: 300px;"" />
                   </div>","null","10","1","A","",""
"","","","","","html-keyboard-response","6","225844","0.0-6.0","757A0F561B334FA1880A22D268D6861B","0199db6e-beb7-7429-bb4b-9a99a688046b","0199db60-0c70-7be3-948d-e21afdfd0731","","null","<div style=""display: flex; justify-content: center; align-items: center;"">
                     <img src=""images/causal/causal_series_10/causal_series_10_b.png"" style=""width: 300px; height: 300px;"" />
                   </div>","null","10","1","B","",""
"","","","","","html-keyboard-response","7","231845","0.0-7.0","757A0F561B334FA1880A22D268D6861B","0199db6e-beb7-7429-bb4b-9a99a688046b","0199db60-0c70-7be3-948d-e21afdfd0731","","null","<div style=""display: flex; justify-content: center; align-items: center;"">
                     <img src=""images/causal/causal_series_10/causal_series_10_c.png"" style=""width: 300px; height: 300px;"" />
                   </div>","null","10","1","C","",""
"","","","","","html-button-response","8","256860","0.0-8.0","757A0F561B334FA1880A22D268D6861B","0199db6e-beb7-7429-bb4b-9a99a688046b","0199db60-0c70-7be3-948d-e21afdfd0731","","25011","
        <div style=""display: flex; justify-content: center; align-items: center;"">
          <img src=""images/red_deck_2.png"" style=""width: 300px; height: 300px; margin-right: 10px;"" />
          <img src=""images/blue_deck_1.png"" style=""width: 300px; height: 300px;"" />
        </div>","1","10","1","choice","1",""
"","","","","","html-keyboard-response","9","262872","0.0-9.0-1.0-0.0","757A0F561B334FA1880A22D268D6861B","0199db6e-beb7-7429-bb4b-9a99a688046b","0199db60-0c70-7be3-948d-e21afdfd0731","","null","<div style=""display: flex; justify-content: center; align-items: center;"">
                     <img src=""images/semantic/semantic_series_10/semantic_series_10_d.png"" style=""width: 300px; height: 300px;"" />
                   </div>","null","10","1","D","",""
"","","","","","survey-likert","10","267680","0.0-10.0","757A0F561B334FA1880A22D268D6861B","0199db6e-beb7-7429-bb4b-9a99a688046b","0199db60-0c70-7be3-948d-e21afdfd0731","","4803","","{""Q0"":4}","10","1","surprise_rating","","[0]"
"","","","","","survey-likert","11","270114","0.0-11.0","757A0F561B334FA1880A22D268D6861B","0199db6e-beb7-7429-bb4b-9a99a688046b","0199db60-0c70-7be3-948d-e21afdfd0731","","2431","","{""Q0"":4}","10","1","enjoyment_rating","","[0]"
"","","","","","html-keyboard-response","12","276131","0.0-12.0","757A0F561B334FA1880A22D268D6861B","0199db6e-beb7-7429-bb4b-9a99a688046b","0199db60-0c70-7be3-948d-e21afdfd0731","","null","<div style=""display: flex; justify-content: center; align-items: center;"">
                     <img src=""images/other/blank.png"" style=""width: 300px; height: 300px;"" />
                   </div>","null","0","0","blank","",""
"","","","","","html-keyboard-response","13","282147","0.0-13.0","757A0F561B334FA1880A22D268D6861B","0199db6e-beb7-7429-bb4b-9a99a688046b","0199db60-0c70-7be3-948d-e21afdfd0731","","null","<div style=""display: flex; justify-content: center; align-items: center;"">
                     <img src=""images/causal/causal_series_8/causal_series_8_a.png"" style=""width: 300px; height: 300px;"" />
                   </div>","null","8","1","A","",""
"","","","","","html-keyboard-response","14","288153","0.0-14.0","757A0F561B334FA1880A22D268D6861B","0199db6e-beb7-7429-bb4b-9a99a688046b","0199db60-0c70-7be3-948d-e21afdfd0731","","null","<div style=""display: flex; justify-content: center; align-items: center;"">
                     <img src=""images/causal/causal_series_8/causal_series_8_b.png"" style=""width: 300px; height: 300px;"" />
                   </div>","null","8","1","B","",""
"","","","","","html-keyboard-response","15","294164","0.0-15.0","757A0F561B334FA1880A22D268D6861B","0199db6e-beb7-7429-bb4b-9a99a688046b","0199db60-0c70-7be3-948d-e21afdfd0731","","null","<div style=""display: flex; justify-content: center; align-items: center;"">
                     <img src=""images/causal/causal_series_8/causal_series_8_c.png"" style=""width: 300px; height: 300px;"" />
                   </div>","null","8","1","C","",""
"","","","","","html-button-response","16","311035","0.0-16.0","757A0F561B334FA1880A22D268D6861B","0199db6e-beb7-7429-bb4b-9a99a688046b","0199db60-0c70-7be3-948d-e21afdfd0731","","16869","
        <div style=""display: flex; justify-content: center; align-items: center;"">
          <img src=""images/red_deck_2.png"" style=""width: 300px; height: 300px; margin-right: 10px;"" />
          <img src=""images/blue_deck_1.png"" style=""width: 300px; height: 300px;"" />
        </div>","1","8","1","choice","1",""
"","","","","","html-keyboard-response","17","317051","0.0-17.0-1.0-0.0","757A0F561B334FA1880A22D268D6861B","0199db6e-beb7-7429-bb4b-9a99a688046b","0199db60-0c70-7be3-948d-e21afdfd0731","","null","<div style=""display: flex; justify-content: center; align-items: center;"">
                     <img src=""images/semantic/semantic_series_8/semantic_series_8_d.png"" style=""width: 300px; height: 300px;"" />
                   </div>","null","8","1","D","",""
"","","","","","survey-likert","18","319877","0.0-18.0","757A0F561B334FA1880A22D268D6861B","0199db6e-beb7-7429-bb4b-9a99a688046b","0199db60-0c70-7be3-948d-e21afdfd0731","","2824","","{""Q0"":3}","8","1","surprise_rating","","[0]"
"","","","","","survey-likert","19","322293","0.0-19.0","757A0F561B334FA1880A22D268D6861B","0199db6e-beb7-7429-bb4b-9a99a688046b","0199db60-0c70-7be3-948d-e21afdfd0731","","2413","","{""Q0"":2}","8","1","enjoyment_rating","","[0]"
"","","","","","html-keyboard-response","20","328310","0.0-20.0","757A0F561B334FA1880A22D268D6861B","0199db6e-beb7-7429-bb4b-9a99a688046b","0199db60-0c70-7be3-948d-e21afdfd0731","","null","<div style=""display: flex; justify-content: center; align-items: center;"">
                     <img src=""images/other/blank.png"" style=""width: 300px; height: 300px;"" />
                   </div>","null","0","0","blank","",""
"","","","","","html-keyboard-response","21","334322","0.0-21.0","757A0F561B334FA1880A22D268D6861B","0199db6e-beb7-7429-bb4b-9a99a688046b","0199db60-0c70-7be3-948d-e21afdfd0731","","null","<div style=""display: flex; justify-content: center; align-items: center;"">
                     <img src=""images/causal/causal_series_2/causal_series_2_a.png"" style=""width: 300px; height: 300px;"" />
                   </div>","null","2","1","A","",""
"","","","","","html-keyboard-response","22","340327","0.0-22.0","757A0F561B334FA1880A22D268D6861B","0199db6e-beb7-7429-bb4b-9a99a688046b","0199db60-0c70-7be3-948d-e21afdfd0731","","null","<div style=""display: flex; justify-content: center; align-items: center;"">
                     <img src=""images/causal/causal_series_2/causal_series_2_b.png"" style=""width: 300px; height: 300px;"" />
                   </div>","null","2","1","B","",""
"","","","","","html-keyboard-response","23","346341","0.0-23.0","757A0F561B334FA1880A22D268D6861B","0199db6e-beb7-7429-bb4b-9a99a688046b","0199db60-0c70-7be3-948d-e21afdfd0731","","null","<div style=""display: flex; justify-content: center; align-items: center;"">
                     <img src=""images/causal/causal_series_2/causal_series_2_c.png"" style=""width: 300px; height: 300px;"" />
                   </div>","null","2","1","C","",""
"","","","","","html-button-response","24","350198","0.0-24.0","757A0F561B334FA1880A22D268D6861B","0199db6e-beb7-7429-bb4b-9a99a688046b","0199db60-0c70-7be3-948d-e21afdfd0731","","3854","
        <div style=""display: flex; justify-content: center; align-items: center;"">
          <img src=""images/red_deck_2.png"" style=""width: 300px; height: 300px; margin-right: 10px;"" />
          <img src=""images/blue_deck_1.png"" style=""width: 300px; height: 300px;"" />
        </div>","1","2","1","choice","1",""
"","","","","","html-keyboard-response","25","356210","0.0-25.0-1.0-0.0","757A0F561B334FA1880A22D268D6861B","0199db6e-beb7-7429-bb4b-9a99a688046b","0199db60-0c70-7be3-948d-e21afdfd0731","","null","<div style=""display: flex; justify-content: center; align-items: center;"">
                     <img src=""images/semantic/semantic_series_2/semantic_series_2_d.png"" style=""width: 300px; height: 300px;"" />
                   </div>","null","2","1","D","",""
"","","","","","survey-likert","26","368370","0.0-26.0","757A0F561B334FA1880A22D268D6861B","0199db6e-beb7-7429-bb4b-9a99a688046b","0199db60-0c70-7be3-948d-e21afdfd0731","","12158","","{""Q0"":4}","2","1","surprise_rating","","[0]"
"","","","","","survey-likert","27","371119","0.0-27.0","757A0F561B334FA1880A22D268D6861B","0199db6e-beb7-7429-bb4b-9a99a688046b","0199db60-0c70-7be3-948d-e21afdfd0731","","2748","","{""Q0"":3}","2","1","enjoyment_rating","","[0]"
"","","","","","html-keyboard-response","28","377125","0.0-28.0","757A0F561B334FA1880A22D268D6861B","0199db6e-beb7-7429-bb4b-9a99a688046b","0199db60-0c70-7be3-948d-e21afdfd0731","","null","<div style=""display: flex; justify-content: center; align-items: center;"">
                     <img src=""images/other/blank.png"" style=""width: 300px; height: 300px;"" />
                   </div>","null","0","0","blank","",""
"","","","","","html-keyboard-response","29","383141","0.0-29.0","757A0F561B334FA1880A22D268D6861B","0199db6e-beb7-7429-bb4b-9a99a688046b","0199db60-0c70-7be3-948d-e21afdfd0731","","null","<div style=""display: flex; justify-content: center; align-items: center;"">
                     <img src=""images/causal/causal_series_3/causal_series_3_a.png"" style=""width: 300px; height: 300px;"" />
                   </div>","null","3","1","A","",""
"","","","","","html-keyboard-response","30","389147","0.0-30.0","757A0F561B334FA1880A22D268D6861B","0199db6e-beb7-7429-bb4b-9a99a688046b","0199db60-0c70-7be3-948d-e21afdfd0731","","null","<div style=""display: flex; justify-content: center; align-items: center;"">
                     <img src=""images/causal/causal_series_3/causal_series_3_b.png"" style=""width: 300px; height: 300px;"" />
                   </div>","null","3","1","B","",""
"","","","","","html-keyboard-response","31","395153","0.0-31.0","757A0F561B334FA1880A22D268D6861B","0199db6e-beb7-7429-bb4b-9a99a688046b","0199db60-0c70-7be3-948d-e21afdfd0731","","null","<div style=""display: flex; justify-content: center; align-items: center;"">
                     <img src=""images/causal/causal_series_3/causal_series_3_c.png"" style=""width: 300px; height: 300px;"" />
                   </div>","null","3","1","C","",""
"","","","","","html-button-response","32","397193","0.0-32.0","757A0F561B334FA1880A22D268D6861B","0199db6e-beb7-7429-bb4b-9a99a688046b","0199db60-0c70-7be3-948d-e21afdfd0731","","2037","
        <div style=""display: flex; justify-content: center; align-items: center;"">
          <img src=""images/red_deck_2.png"" style=""width: 300px; height: 300px; margin-right: 10px;"" />
          <img src=""images/blue_deck_1.png"" style=""width: 300px; height: 300px;"" />
        </div>","0","3","1","choice","0",""
"","","","","","html-keyboard-response","33","403197","0.0-33.0-0.0-0.0","757A0F561B334FA1880A22D268D6861B","0199db6e-beb7-7429-bb4b-9a99a688046b","0199db60-0c70-7be3-948d-e21afdfd0731","","null","<div style=""display: flex; justify-content: center; align-items: center;"">
                     <img src=""images/causal/causal_series_3/causal_series_3_d.png"" style=""width: 300px; height: 300px;"" />
                   </div>","null","3","1","D","",""
"","","","","","survey-likert","34","405740","0.0-34.0","757A0F561B334FA1880A22D268D6861B","0199db6e-beb7-7429-bb4b-9a99a688046b","0199db60-0c70-7be3-948d-e21afdfd0731","","2541","","{""Q0"":4}","3","1","surprise_rating","","[0]"
"","","","","","survey-likert","35","407406","0.0-35.0","757A0F561B334FA1880A22D268D6861B","0199db6e-beb7-7429-bb4b-9a99a688046b","0199db60-0c70-7be3-948d-e21afdfd0731","","1664","","{""Q0"":4}","3","1","enjoyment_rating","","[0]"
"","","","","","html-keyboard-response","36","413422","0.0-36.0","757A0F561B334FA1880A22D268D6861B","0199db6e-beb7-7429-bb4b-9a99a688046b","0199db60-0c70-7be3-948d-e21afdfd0731","","null","<div style=""display: flex; justify-content: center; align-items: center;"">
                     <img src=""images/other/blank.png"" style=""width: 300px; height: 300px;"" />
                   </div>","null","0","0","blank","",""
"","","","","","html-keyboard-response","37","419429","0.0-37.0","757A0F561B334FA1880A22D268D6861B","0199db6e-beb7-7429-bb4b-9a99a688046b","0199db60-0c70-7be3-948d-e21afdfd0731","","null","<div style=""display: flex; justify-content: center; align-items: center;"">
                     <img src=""images/causal/causal_series_5/causal_series_5_a.png"" style=""width: 300px; height: 300px;"" />
                   </div>","null","5","1","A","",""
"","","","","","html-keyboard-response","38","425436","0.0-38.0","757A0F561B334FA1880A22D268D6861B","0199db6e-beb7-7429-bb4b-9a99a688046b","0199db60-0c70-7be3-948d-e21afdfd0731","","null","<div style=""display: flex; justify-content: center; align-items: center;"">
                     <img src=""images/causal/causal_series_5/causal_series_5_b.png"" style=""width: 300px; height: 300px;"" />
                   </div>","null","5","1","B","",""
"","","","","","html-keyboard-response","39","431442","0.0-39.0","757A0F561B334FA1880A22D268D6861B","0199db6e-beb7-7429-bb4b-9a99a688046b","0199db60-0c70-7be3-948d-e21afdfd0731","","null","<div style=""display: flex; justify-content: center; align-items: center;"">
                     <img src=""images/causal/causal_series_5/causal_series_5_c.png"" style=""width: 300px; height: 300px;"" />
                   </div>","null","5","1","C","",""
"","","","","","html-button-response","40","432908","0.0-40.0","757A0F561B334FA1880A22D268D6861B","0199db6e-beb7-7429-bb4b-9a99a688046b","0199db60-0c70-7be3-948d-e21afdfd0731","","1464","
        <div style=""display: flex; justify-content: center; align-items: center;"">
          <img src=""images/red_deck_2.png"" style=""width: 300px; height: 300px; margin-right: 10px;"" />
          <img src=""images/blue_deck_1.png"" style=""width: 300px; height: 300px;"" />
        </div>","0","5","1","choice","0",""
"","","","","","html-keyboard-response","41","438911","0.0-41.0-0.0-0.0","757A0F561B334FA1880A22D268D6861B","0199db6e-beb7-7429-bb4b-9a99a688046b","0199db60-0c70-7be3-948d-e21afdfd0731","","null","<div style=""display: flex; justify-content: center; align-items: center;"">
                     <img src=""images/causal/causal_series_5/causal_series_5_d.png"" style=""width: 300px; height: 300px;"" />
                   </div>","null","5","1","D","",""
"","","","","","survey-likert","42","450493","0.0-42.0","757A0F561B334FA1880A22D268D6861B","0199db6e-beb7-7429-bb4b-9a99a688046b","0199db60-0c70-7be3-948d-e21afdfd0731","","11581","","{""Q0"":4}","5","1","surprise_rating","","[0]"
"","","","","","survey-likert","43","452292","0.0-43.0","757A0F561B334FA1880A22D268D6861B","0199db6e-beb7-7429-bb4b-9a99a688046b","0199db60-0c70-7be3-948d-e21afdfd0731","","1797","","{""Q0"":4}","5","1","enjoyment_rating","","[0]"
"","","","","","html-keyboard-response","44","458300","0.0-44.0","757A0F561B334FA1880A22D268D6861B","0199db6e-beb7-7429-bb4b-9a99a688046b","0199db60-0c70-7be3-948d-e21afdfd0731","","null","<div style=""display: flex; justify-content: center; align-items: center;"">
                     <img src=""images/other/blank.png"" style=""width: 300px; height: 300px;"" />
                   </div>","null","0","0","blank","",""
"","","","","","html-keyboard-response","45","464312","0.0-45.0","757A0F561B334FA1880A22D268D6861B","0199db6e-beb7-7429-bb4b-9a99a688046b","0199db60-0c70-7be3-948d-e21afdfd0731","","null","<div style=""display: flex; justify-content: center; align-items: center;"">
                     <img src=""images/causal/causal_series_7/causal_series_7_a.png"" style=""width: 300px; height: 300px;"" />
                   </div>","null","7","1","A","",""
"","","","","","html-keyboard-response","46","470323","0.0-46.0","757A0F561B334FA1880A22D268D6861B","0199db6e-beb7-7429-bb4b-9a99a688046b","0199db60-0c70-7be3-948d-e21afdfd0731","","null","<div style=""display: flex; justify-content: center; align-items: center;"">
                     <img src=""images/causal/causal_series_7/causal_series_7_b.png"" style=""width: 300px; height: 300px;"" />
                   </div>","null","7","1","B","",""
"","","","","","html-keyboard-response","47","476330","0.0-47.0","757A0F561B334FA1880A22D268D6861B","0199db6e-beb7-7429-bb4b-9a99a688046b","0199db60-0c70-7be3-948d-e21afdfd0731","","null","<div style=""display: flex; justify-content: center; align-items: center;"">
                     <img src=""images/causal/causal_series_7/causal_series_7_c.png"" style=""width: 300px; height: 300px;"" />
                   </div>","null","7","1","C","",""
"","","","","","html-button-response","48","484160","0.0-48.0","757A0F561B334FA1880A22D268D6861B","0199db6e-beb7-7429-bb4b-9a99a688046b","0199db60-0c70-7be3-948d-e21afdfd0731","","7827","
        <div style=""display: flex; justify-content: center; align-items: center;"">
          <img src=""images/red_deck_2.png"" style=""width: 300px; height: 300px; margin-right: 10px;"" />
          <img src=""images/blue_deck_1.png"" style=""width: 300px; height: 300px;"" />
        </div>","0","7","1","choice","0",""
"","","","","","html-keyboard-response","49","490172","0.0-49.0-0.0-0.0","757A0F561B334FA1880A22D268D6861B","0199db6e-beb7-7429-bb4b-9a99a688046b","0199db60-0c70-7be3-948d-e21afdfd0731","","null","<div style=""display: flex; justify-content: center; align-items: center;"">
                     <img src=""images/causal/causal_series_7/causal_series_7_d.png"" style=""width: 300px; height: 300px;"" />
                   </div>","null","7","1","D","",""
"","","","","","survey-likert","50","491966","0.0-50.0","757A0F561B334FA1880A22D268D6861B","0199db6e-beb7-7429-bb4b-9a99a688046b","0199db60-0c70-7be3-948d-e21afdfd0731","","1791","","{""Q0"":4}","7","1","surprise_rating","","[0]"
"","","","","","survey-likert","51","494645","0.0-51.0","757A0F561B334FA1880A22D268D6861B","0199db6e-beb7-7429-bb4b-9a99a688046b","0199db60-0c70-7be3-948d-e21afdfd0731","","2677","","{""Q0"":2}","7","1","enjoyment_rating","","[0]"
"","","","","","html-keyboard-response","52","500661","0.0-52.0","757A0F561B334FA1880A22D268D6861B","0199db6e-beb7-7429-bb4b-9a99a688046b","0199db60-0c70-7be3-948d-e21afdfd0731","","null","<div style=""display: flex; justify-content: center; align-items: center;"">
                     <img src=""images/other/blank.png"" style=""width: 300px; height: 300px;"" />
                   </div>","null","0","0","blank","",""
"","","","","","html-keyboard-response","53","506664","0.0-53.0","757A0F561B334FA1880A22D268D6861B","0199db6e-beb7-7429-bb4b-9a99a688046b","0199db60-0c70-7be3-948d-e21afdfd0731","","null","<div style=""display: flex; justify-content: center; align-items: center;"">
                     <img src=""images/causal/causal_series_1/causal_series_1_a.png"" style=""width: 300px; height: 300px;"" />
                   </div>","null","1","1","A","",""
"","","","","","html-keyboard-response","54","512669","0.0-54.0","757A0F561B334FA1880A22D268D6861B","0199db6e-beb7-7429-bb4b-9a99a688046b","0199db60-0c70-7be3-948d-e21afdfd0731","","null","<div style=""display: flex; justify-content: center; align-items: center;"">
                     <img src=""images/causal/causal_series_1/causal_series_1_b.png"" style=""width: 300px; height: 300px;"" />
                   </div>","null","1","1","B","",""
"","","","","","html-keyboard-response","55","518671","0.0-55.0","757A0F561B334FA1880A22D268D6861B","0199db6e-beb7-7429-bb4b-9a99a688046b","0199db60-0c70-7be3-948d-e21afdfd0731","","null","<div style=""display: flex; justify-content: center; align-items: center;"">
                     <img src=""images/causal/causal_series_1/causal_series_1_c.png"" style=""width: 300px; height: 300px;"" />
                   </div>","null","1","1","C","",""
"","","","","","html-button-response","56","524609","0.0-56.0","757A0F561B334FA1880A22D268D6861B","0199db6e-beb7-7429-bb4b-9a99a688046b","0199db60-0c70-7be3-948d-e21afdfd0731","","5935","
        <div style=""display: flex; justify-content: center; align-items: center;"">
          <img src=""images/red_deck_2.png"" style=""width: 300px; height: 300px; margin-right: 10px;"" />
          <img src=""images/blue_deck_1.png"" style=""width: 300px; height: 300px;"" />
        </div>","1","1","1","choice","1",""
"","","","","","html-keyboard-response","57","530612","0.0-57.0-1.0-0.0","757A0F561B334FA1880A22D268D6861B","0199db6e-beb7-7429-bb4b-9a99a688046b","0199db60-0c70-7be3-948d-e21afdfd0731","","null","<div style=""display: flex; justify-content: center; align-items: center;"">
                     <img src=""images/semantic/semantic_series_1/semantic_series_1_d.png"" style=""width: 300px; height: 300px;"" />
                   </div>","null","1","1","D","",""
"","","","","","survey-likert","58","532606","0.0-58.0","757A0F561B334FA1880A22D268D6861B","0199db6e-beb7-7429-bb4b-9a99a688046b","0199db60-0c70-7be3-948d-e21afdfd0731","","1992","","{""Q0"":4}","1","1","surprise_rating","","[0]"
"","","","","","survey-likert","59","534382","0.0-59.0","757A0F561B334FA1880A22D268D6861B","0199db6e-beb7-7429-bb4b-9a99a688046b","0199db60-0c70-7be3-948d-e21afdfd0731","","1774","","{""Q0"":3}","1","1","enjoyment_rating","","[0]"
"","","","","","html-keyboard-response","60","540389","0.0-60.0","757A0F561B334FA1880A22D268D6861B","0199db6e-beb7-7429-bb4b-9a99a688046b","0199db60-0c70-7be3-948d-e21afdfd0731","","null","<div style=""display: flex; justify-content: center; align-items: center;"">
                     <img src=""images/other/blank.png"" style=""width: 300px; height: 300px;"" />
                   </div>","null","0","0","blank","",""
"","","","","","html-keyboard-response","61","546394","0.0-61.0","757A0F561B334FA1880A22D268D6861B","0199db6e-beb7-7429-bb4b-9a99a688046b","0199db60-0c70-7be3-948d-e21afdfd0731","","null","<div style=""display: flex; justify-content: center; align-items: center;"">
                     <img src=""images/causal/causal_series_4/causal_series_4_a.png"" style=""width: 300px; height: 300px;"" />
                   </div>","null","4","1","A","",""
"","","","","","html-keyboard-response","62","552397","0.0-62.0","757A0F561B334FA1880A22D268D6861B","0199db6e-beb7-7429-bb4b-9a99a688046b","0199db60-0c70-7be3-948d-e21afdfd0731","","null","<div style=""display: flex; justify-content: center; align-items: center;"">
                     <img src=""images/causal/causal_series_4/causal_series_4_b.png"" style=""width: 300px; height: 300px;"" />
                   </div>","null","4","1","B","",""
"","","","","","html-keyboard-response","63","558407","0.0-63.0","757A0F561B334FA1880A22D268D6861B","0199db6e-beb7-7429-bb4b-9a99a688046b","0199db60-0c70-7be3-948d-e21afdfd0731","","null","<div style=""display: flex; justify-content: center; align-items: center;"">
                     <img src=""images/causal/causal_series_4/causal_series_4_c.png"" style=""width: 300px; height: 300px;"" />
                   </div>","null","4","1","C","",""
"","","","","","html-button-response","64","559886","0.0-64.0","757A0F561B334FA1880A22D268D6861B","0199db6e-beb7-7429-bb4b-9a99a688046b","0199db60-0c70-7be3-948d-e21afdfd0731","","1477","
        <div style=""display: flex; justify-content: center; align-items: center;"">
          <img src=""images/red_deck_2.png"" style=""width: 300px; height: 300px; margin-right: 10px;"" />
          <img src=""images/blue_deck_1.png"" style=""width: 300px; height: 300px;"" />
        </div>","0","4","1","choice","0",""
"","","","","","html-keyboard-response","65","565889","0.0-65.0-0.0-0.0","757A0F561B334FA1880A22D268D6861B","0199db6e-beb7-7429-bb4b-9a99a688046b","0199db60-0c70-7be3-948d-e21afdfd0731","","null","<div style=""display: flex; justify-content: center; align-items: center;"">
                     <img src=""images/causal/causal_series_4/causal_series_4_d.png"" style=""width: 300px; height: 300px;"" />
                   </div>","null","4","1","D","",""
"","","","","","survey-likert","66","569587","0.0-66.0","757A0F561B334FA1880A22D268D6861B","0199db6e-beb7-7429-bb4b-9a99a688046b","0199db60-0c70-7be3-948d-e21afdfd0731","","3697","","{""Q0"":4}","4","1","surprise_rating","","[0]"
"","","","","","survey-likert","67","570938","0.0-67.0","757A0F561B334FA1880A22D268D6861B","0199db6e-beb7-7429-bb4b-9a99a688046b","0199db60-0c70-7be3-948d-e21afdfd0731","","1349","","{""Q0"":4}","4","1","enjoyment_rating","","[0]"
"","","","","","html-keyboard-response","68","576940","0.0-68.0","757A0F561B334FA1880A22D268D6861B","0199db6e-beb7-7429-bb4b-9a99a688046b","0199db60-0c70-7be3-948d-e21afdfd0731","","null","<div style=""display: flex; justify-content: center; align-items: center;"">
                     <img src=""images/other/blank.png"" style=""width: 300px; height: 300px;"" />
                   </div>","null","0","0","blank","",""
"","","","","","html-keyboard-response","69","582953","0.0-69.0","757A0F561B334FA1880A22D268D6861B","0199db6e-beb7-7429-bb4b-9a99a688046b","0199db60-0c70-7be3-948d-e21afdfd0731","","null","<div style=""display: flex; justify-content: center; align-items: center;"">
                     <img src=""images/causal/causal_series_6/causal_series_6_a.png"" style=""width: 300px; height: 300px;"" />
                   </div>","null","6","1","A","",""
"","","","","","html-keyboard-response","70","588960","0.0-70.0","757A0F561B334FA1880A22D268D6861B","0199db6e-beb7-7429-bb4b-9a99a688046b","0199db60-0c70-7be3-948d-e21afdfd0731","","null","<div style=""display: flex; justify-content: center; align-items: center;"">
                     <img src=""images/causal/causal_series_6/causal_series_6_b.png"" style=""width: 300px; height: 300px;"" />
                   </div>","null","6","1","B","",""
"","","","","","html-keyboard-response","71","594976","0.0-71.0","757A0F561B334FA1880A22D268D6861B","0199db6e-beb7-7429-bb4b-9a99a688046b","0199db60-0c70-7be3-948d-e21afdfd0731","","null","<div style=""display: flex; justify-content: center; align-items: center;"">
                     <img src=""images/causal/causal_series_6/causal_series_6_c.png"" style=""width: 300px; height: 300px;"" />
                   </div>","null","6","1","C","",""
"","","","","","html-button-response","72","601724","0.0-72.0","757A0F561B334FA1880A22D268D6861B","0199db6e-beb7-7429-bb4b-9a99a688046b","0199db60-0c70-7be3-948d-e21afdfd0731","","6747","
        <div style=""display: flex; justify-content: center; align-items: center;"">
          <img src=""images/red_deck_2.png"" style=""width: 300px; height: 300px; margin-right: 10px;"" />
          <img src=""images/blue_deck_1.png"" style=""width: 300px; height: 300px;"" />
        </div>","0","6","1","choice","0",""
"","","","","","html-keyboard-response","73","607741","0.0-73.0-0.0-0.0","757A0F561B334FA1880A22D268D6861B","0199db6e-beb7-7429-bb4b-9a99a688046b","0199db60-0c70-7be3-948d-e21afdfd0731","","null","<div style=""display: flex; justify-content: center; align-items: center;"">
                     <img src=""images/causal/causal_series_6/causal_series_6_d.png"" style=""width: 300px; height: 300px;"" />
                   </div>","null","6","1","D","",""
"","","","","","survey-likert","74","609926","0.0-74.0","757A0F561B334FA1880A22D268D6861B","0199db6e-beb7-7429-bb4b-9a99a688046b","0199db60-0c70-7be3-948d-e21afdfd0731","","2183","","{""Q0"":0}","6","1","surprise_rating","","[0]"
"","","","","","survey-likert","75","612512","0.0-75.0","757A0F561B334FA1880A22D268D6861B","0199db6e-beb7-7429-bb4b-9a99a688046b","0199db60-0c70-7be3-948d-e21afdfd0731","","2584","","{""Q0"":1}","6","1","enjoyment_rating","","[0]"
"","","","","","html-keyboard-response","76","618520","0.0-76.0","757A0F561B334FA1880A22D268D6861B","0199db6e-beb7-7429-bb4b-9a99a688046b","0199db60-0c70-7be3-948d-e21afdfd0731","","null","<div style=""display: flex; justify-content: center; align-items: center;"">
                     <img src=""images/other/blank.png"" style=""width: 300px; height: 300px;"" />
                   </div>","null","0","0","blank","",""
"","","","","","html-keyboard-response","77","624536","0.0-77.0","757A0F561B334FA1880A22D268D6861B","0199db6e-beb7-7429-bb4b-9a99a688046b","0199db60-0c70-7be3-948d-e21afdfd0731","","null","<div style=""display: flex; justify-content: center; align-items: center;"">
                     <img src=""images/causal/causal_series_9/causal_series_9_a.png"" style=""width: 300px; height: 300px;"" />
                   </div>","null","9","1","A","",""
"","","","","","html-keyboard-response","78","630547","0.0-78.0","757A0F561B334FA1880A22D268D6861B","0199db6e-beb7-7429-bb4b-9a99a688046b","0199db60-0c70-7be3-948d-e21afdfd0731","","null","<div style=""display: flex; justify-content: center; align-items: center;"">
                     <img src=""images/causal/causal_series_9/causal_series_9_b.png"" style=""width: 300px; height: 300px;"" />
                   </div>","null","9","1","B","",""
"","","","","","html-keyboard-response","79","636557","0.0-79.0","757A0F561B334FA1880A22D268D6861B","0199db6e-beb7-7429-bb4b-9a99a688046b","0199db60-0c70-7be3-948d-e21afdfd0731","","null","<div style=""display: flex; justify-content: center; align-items: center;"">
                     <img src=""images/causal/causal_series_9/causal_series_9_c.png"" style=""width: 300px; height: 300px;"" />
                   </div>","null","9","1","C","",""
"","","","","","html-button-response","80","639053","0.0-80.0","757A0F561B334FA1880A22D268D6861B","0199db6e-beb7-7429-bb4b-9a99a688046b","0199db60-0c70-7be3-948d-e21afdfd0731","","2493","
        <div style=""display: flex; justify-content: center; align-items: center;"">
          <img src=""images/red_deck_2.png"" style=""width: 300px; height: 300px; margin-right: 10px;"" />
          <img src=""images/blue_deck_1.png"" style=""width: 300px; height: 300px;"" />
        </div>","1","9","1","choice","1",""
"","","","","","html-keyboard-response","81","645067","0.0-81.0-1.0-0.0","757A0F561B334FA1880A22D268D6861B","0199db6e-beb7-7429-bb4b-9a99a688046b","0199db60-0c70-7be3-948d-e21afdfd0731","","null","<div style=""display: flex; justify-content: center; align-items: center;"">
                     <img src=""images/semantic/semantic_series_9/semantic_series_9_d.png"" style=""width: 300px; height: 300px;"" />
                   </div>","null","9","1","D","",""
"","","","","","survey-likert","82","649202","0.0-82.0","757A0F561B334FA1880A22D268D6861B","0199db6e-beb7-7429-bb4b-9a99a688046b","0199db60-0c70-7be3-948d-e21afdfd0731","","4134","","{""Q0"":1}","9","1","surprise_rating","","[0]"
"","","","","","survey-likert","83","652610","0.0-83.0","757A0F561B334FA1880A22D268D6861B","0199db6e-beb7-7429-bb4b-9a99a688046b","0199db60-0c70-7be3-948d-e21afdfd0731","","3406","","{""Q0"":0}","9","1","enjoyment_rating","","[0]"
"","","","","","html-keyboard-response","84","658617","0.0-84.0","757A0F561B334FA1880A22D268D6861B","0199db6e-beb7-7429-bb4b-9a99a688046b","0199db60-0c70-7be3-948d-e21afdfd0731","","null","<div style=""display: flex; justify-content: center; align-items: center;"">
                     <img src=""images/other/blank.png"" style=""width: 300px; height: 300px;"" />
                   </div>","null","0","0","blank","",""
"","","","","","survey-text","85","738682","0.0-85.0","757A0F561B334FA1880A22D268D6861B","0199db6e-beb7-7429-bb4b-9a99a688046b","0199db60-0c70-7be3-948d-e21afdfd0731","","80055","","{""Q0"":""They both seem to be random events, I think the blue deck has more outrageous random events but it's not like that every time.""}","","","","",""
"","","","","","html-button-response","86","746834","0.0-86.0","757A0F561B334FA1880A22D268D6861B","0199db6e-beb7-7429-bb4b-9a99a688046b","0199db60-0c70-7be3-948d-e21afdfd0731","","8150","Which color deck do the following sentences continue the story from?","0","","","","",""
"","","","","","html-button-response","87","763730","0.0-87.0","757A0F561B334FA1880A22D268D6861B","0199db6e-beb7-7429-bb4b-9a99a688046b","0199db60-0c70-7be3-948d-e21afdfd0731","","16895","Which color deck do the following sentences NOT follow the story from?","1","","","","",""
"","","","","","html-button-response","88","777174","0.0-88.0","757A0F561B334FA1880A22D268D6861B","0199db6e-beb7-7429-bb4b-9a99a688046b","0199db60-0c70-7be3-948d-e21afdfd0731","","13441","Which type of deck did you prefer overall?","1","","","","",""
"","","","","","survey-text","89","788925","0.0-89.0","757A0F561B334FA1880A22D268D6861B","0199db6e-beb7-7429-bb4b-9a99a688046b","0199db60-0c70-7be3-948d-e21afdfd0731","","11737","","{""Q0"":""Male"",""Q1"":""29""}","","","","",""
"","","","","","instructions","90","794125","0.0-90.0","757A0F561B334FA1880A22D268D6861B","0199db6e-beb7-7429-bb4b-9a99a688046b","0199db60-0c70-7be3-948d-e21afdfd0731","[{""page_index"":0,""viewing_time"":5197}]","5198","","","","","","",""
