"success","timeout","failed_images","failed_audio","failed_video","trial_type","trial_index","time_elapsed","internal_node_id","subject_id","study_id","session_id","view_history","rt","stimulus","response","choice"
"true","false","[]","[]","[]","preload","0","6642","0.0-0.0","EE073602913B4312AD895C6467A80BF1","1f1d3af7-4777-46d5-965c-b7378dec091e","4f03f330-5f91-43fc-aa61-d9dda6d26521","","","","",""
"","","","","","instructions","1","8877","0.0-1.0","EE073602913B4312AD895C6467A80BF1","1f1d3af7-4777-46d5-965c-b7378dec091e","4f03f330-5f91-43fc-aa61-d9dda6d26521","[{""page_index"":0,""viewing_time"":2235}]","2235","","",""
"","","","","","instructions","2","11292","0.0-2.0","EE073602913B4312AD895C6467A80BF1","1f1d3af7-4777-46d5-965c-b7378dec091e","4f03f330-5f91-43fc-aa61-d9dda6d26521","[{""page_index"":0,""viewing_time"":2415}]","2415","","",""
"true","","","","","fullscreen","3","14009","0.0-3.0","EE073602913B4312AD895C6467A80BF1","1f1d3af7-4777-46d5-965c-b7378dec091e","4f03f330-5f91-43fc-aa61-d9dda6d26521","","1716","","",""
"","","","","","instructions","4","27135","0.0-4.0","EE073602913B4312AD895C6467A80BF1","1f1d3af7-4777-46d5-965c-b7378dec091e","4f03f330-5f91-43fc-aa61-d9dda6d26521","[{""page_index"":0,""viewing_time"":13125}]","13125","","",""
"","","","","","html-keyboard-response","5","30135","0.0-5.0","EE073602913B4312AD895C6467A80BF1","1f1d3af7-4777-46d5-965c-b7378dec091e","4f03f330-5f91-43fc-aa61-d9dda6d26521","","null","<div style=""display: flex; justify-content: center; align-items: center;"">
                <img src=""images/causal/causal_series_14/causal_series_14_a.jpg"" style=""width: 300px; height: 300px;"" />
              </div>","null",""
"","","","","","html-button-response","6","31278","0.0-6.0","EE073602913B4312AD895C6467A80BF1","1f1d3af7-4777-46d5-965c-b7378dec091e","4f03f330-5f91-43fc-aa61-d9dda6d26521","","1142","
    <div style=""display: flex; justify-content: center; align-items: center;"">
      <img src=""images/red_deck_2.png"" style=""width: 300px; height: 300px; margin-right: 10px;"" />
      <img src=""images/blue_deck_1.png"" style=""width: 300px; height: 300px;"" />
    </div>","1","1"
"","","","","","html-keyboard-response","7","34279","0.0-7.0-1.0-0.0","EE073602913B4312AD895C6467A80BF1","1f1d3af7-4777-46d5-965c-b7378dec091e","4f03f330-5f91-43fc-aa61-d9dda6d26521","","null","<div style=""display: flex; justify-content: center; align-items: center;"">
                <img src=""images/semantic/semantic_series_3/semantic_series_3_d.jpg"" style=""width: 300px; height: 300px;"" />
              </div>","null",""
"","","","","","html-keyboard-response","8","37279","0.0-7.0-1.0-1.0","EE073602913B4312AD895C6467A80BF1","1f1d3af7-4777-46d5-965c-b7378dec091e","4f03f330-5f91-43fc-aa61-d9dda6d26521","","null","<div style=""display: flex; justify-content: center; align-items: center;"">
                <img src=""images/semantic/semantic_series_4/semantic_series_4_d.jpg"" style=""width: 300px; height: 300px;"" />
              </div>","null",""
"","","","","","html-keyboard-response","9","40280","0.0-7.0-1.0-2.0","EE073602913B4312AD895C6467A80BF1","1f1d3af7-4777-46d5-965c-b7378dec091e","4f03f330-5f91-43fc-aa61-d9dda6d26521","","null","<div style=""display: flex; justify-content: center; align-items: center;"">
                <img src=""images/semantic/semantic_series_5/semantic_series_5_d.jpg"" style=""width: 300px; height: 300px;"" />
              </div>","null",""
"","","","","","html-keyboard-response","10","43280","0.0-8.0","EE073602913B4312AD895C6467A80BF1","1f1d3af7-4777-46d5-965c-b7378dec091e","4f03f330-5f91-43fc-aa61-d9dda6d26521","","null","<div style=""display: flex; justify-content: center; align-items: center;"">
                <img src=""images/other/blank.jpg"" style=""width: 300px; height: 300px;"" />
              </div>","null",""
"","","","","","html-keyboard-response","11","46280","0.0-9.0","EE073602913B4312AD895C6467A80BF1","1f1d3af7-4777-46d5-965c-b7378dec091e","4f03f330-5f91-43fc-aa61-d9dda6d26521","","null","<div style=""display: flex; justify-content: center; align-items: center;"">
                <img src=""images/causal/causal_series_7/causal_series_7_a.jpg"" style=""width: 300px; height: 300px;"" />
              </div>","null",""
"","","","","","html-button-response","12","48291","0.0-10.0","EE073602913B4312AD895C6467A80BF1","1f1d3af7-4777-46d5-965c-b7378dec091e","4f03f330-5f91-43fc-aa61-d9dda6d26521","","2010","
    <div style=""display: flex; justify-content: center; align-items: center;"">
      <img src=""images/red_deck_2.png"" style=""width: 300px; height: 300px; margin-right: 10px;"" />
      <img src=""images/blue_deck_1.png"" style=""width: 300px; height: 300px;"" />
    </div>","0","0"
"","","","","","html-keyboard-response","13","51291","0.0-11.0-0.0-0.0","EE073602913B4312AD895C6467A80BF1","1f1d3af7-4777-46d5-965c-b7378dec091e","4f03f330-5f91-43fc-aa61-d9dda6d26521","","null","<div style=""display: flex; justify-content: center; align-items: center;"">
                <img src=""images/causal/causal_series_7/causal_series_7_b.jpg"" style=""width: 300px; height: 300px;"" />
              </div>","null",""
"","","","","","html-keyboard-response","14","54291","0.0-11.0-0.0-1.0","EE073602913B4312AD895C6467A80BF1","1f1d3af7-4777-46d5-965c-b7378dec091e","4f03f330-5f91-43fc-aa61-d9dda6d26521","","null","<div style=""display: flex; justify-content: center; align-items: center;"">
                <img src=""images/causal/causal_series_7/causal_series_7_c.jpg"" style=""width: 300px; height: 300px;"" />
              </div>","null",""
"","","","","","html-keyboard-response","15","57292","0.0-11.0-0.0-2.0","EE073602913B4312AD895C6467A80BF1","1f1d3af7-4777-46d5-965c-b7378dec091e","4f03f330-5f91-43fc-aa61-d9dda6d26521","","null","<div style=""display: flex; justify-content: center; align-items: center;"">
                <img src=""images/causal/causal_series_7/causal_series_7_d.jpg"" style=""width: 300px; height: 300px;"" />
              </div>","null",""
"","","","","","html-keyboard-response","16","60292","0.0-12.0","EE073602913B4312AD895C6467A80BF1","1f1d3af7-4777-46d5-965c-b7378dec091e","4f03f330-5f91-43fc-aa61-d9dda6d26521","","null","<div style=""display: flex; justify-content: center; align-items: center;"">
                <img src=""images/other/blank.jpg"" style=""width: 300px; height: 300px;"" />
              </div>","null",""
"","","","","","html-keyboard-response","17","63292","0.0-13.0","EE073602913B4312AD895C6467A80BF1","1f1d3af7-4777-46d5-965c-b7378dec091e","4f03f330-5f91-43fc-aa61-d9dda6d26521","","null","<div style=""display: flex; justify-content: center; align-items: center;"">
                <img src=""images/causal/causal_series_6/causal_series_6_a.jpg"" style=""width: 300px; height: 300px;"" />
              </div>","null",""
"","","","","","html-button-response","18","65517","0.0-14.0","EE073602913B4312AD895C6467A80BF1","1f1d3af7-4777-46d5-965c-b7378dec091e","4f03f330-5f91-43fc-aa61-d9dda6d26521","","2224","
    <div style=""display: flex; justify-content: center; align-items: center;"">
      <img src=""images/red_deck_2.png"" style=""width: 300px; height: 300px; margin-right: 10px;"" />
      <img src=""images/blue_deck_1.png"" style=""width: 300px; height: 300px;"" />
    </div>","1","1"
"","","","","","html-keyboard-response","19","68518","0.0-15.0-1.0-0.0","EE073602913B4312AD895C6467A80BF1","1f1d3af7-4777-46d5-965c-b7378dec091e","4f03f330-5f91-43fc-aa61-d9dda6d26521","","null","<div style=""display: flex; justify-content: center; align-items: center;"">
                <img src=""images/semantic/semantic_series_15/semantic_series_15_d.jpg"" style=""width: 300px; height: 300px;"" />
              </div>","null",""
"","","","","","html-keyboard-response","20","71518","0.0-15.0-1.0-1.0","EE073602913B4312AD895C6467A80BF1","1f1d3af7-4777-46d5-965c-b7378dec091e","4f03f330-5f91-43fc-aa61-d9dda6d26521","","null","<div style=""display: flex; justify-content: center; align-items: center;"">
                <img src=""images/semantic/semantic_series_16/semantic_series_16_d.jpg"" style=""width: 300px; height: 300px;"" />
              </div>","null",""
"","","","","","html-keyboard-response","21","74518","0.0-15.0-1.0-2.0","EE073602913B4312AD895C6467A80BF1","1f1d3af7-4777-46d5-965c-b7378dec091e","4f03f330-5f91-43fc-aa61-d9dda6d26521","","null","<div style=""display: flex; justify-content: center; align-items: center;"">
                <img src=""images/semantic/semantic_series_17/semantic_series_17_d.jpg"" style=""width: 300px; height: 300px;"" />
              </div>","null",""
"","","","","","html-keyboard-response","22","77519","0.0-16.0","EE073602913B4312AD895C6467A80BF1","1f1d3af7-4777-46d5-965c-b7378dec091e","4f03f330-5f91-43fc-aa61-d9dda6d26521","","null","<div style=""display: flex; justify-content: center; align-items: center;"">
                <img src=""images/other/blank.jpg"" style=""width: 300px; height: 300px;"" />
              </div>","null",""
"","","","","","html-keyboard-response","23","80519","0.0-17.0","EE073602913B4312AD895C6467A80BF1","1f1d3af7-4777-46d5-965c-b7378dec091e","4f03f330-5f91-43fc-aa61-d9dda6d26521","","null","<div style=""display: flex; justify-content: center; align-items: center;"">
                <img src=""images/causal/causal_series_16/causal_series_16_a.jpg"" style=""width: 300px; height: 300px;"" />
              </div>","null",""
"","","","","","html-button-response","24","83123","0.0-18.0","EE073602913B4312AD895C6467A80BF1","1f1d3af7-4777-46d5-965c-b7378dec091e","4f03f330-5f91-43fc-aa61-d9dda6d26521","","2604","
    <div style=""display: flex; justify-content: center; align-items: center;"">
      <img src=""images/red_deck_2.png"" style=""width: 300px; height: 300px; margin-right: 10px;"" />
      <img src=""images/blue_deck_1.png"" style=""width: 300px; height: 300px;"" />
    </div>","0","0"
"","","","","","html-keyboard-response","25","86124","0.0-19.0-0.0-0.0","EE073602913B4312AD895C6467A80BF1","1f1d3af7-4777-46d5-965c-b7378dec091e","4f03f330-5f91-43fc-aa61-d9dda6d26521","","null","<div style=""display: flex; justify-content: center; align-items: center;"">
                <img src=""images/causal/causal_series_16/causal_series_16_b.jpg"" style=""width: 300px; height: 300px;"" />
              </div>","null",""
"","","","","","html-keyboard-response","26","89124","0.0-19.0-0.0-1.0","EE073602913B4312AD895C6467A80BF1","1f1d3af7-4777-46d5-965c-b7378dec091e","4f03f330-5f91-43fc-aa61-d9dda6d26521","","null","<div style=""display: flex; justify-content: center; align-items: center;"">
                <img src=""images/causal/causal_series_16/causal_series_16_c.jpg"" style=""width: 300px; height: 300px;"" />
              </div>","null",""
"","","","","","html-keyboard-response","27","92124","0.0-19.0-0.0-2.0","EE073602913B4312AD895C6467A80BF1","1f1d3af7-4777-46d5-965c-b7378dec091e","4f03f330-5f91-43fc-aa61-d9dda6d26521","","null","<div style=""display: flex; justify-content: center; align-items: center;"">
                <img src=""images/causal/causal_series_16/causal_series_16_d.jpg"" style=""width: 300px; height: 300px;"" />
              </div>","null",""
"","","","","","html-keyboard-response","28","95125","0.0-20.0","EE073602913B4312AD895C6467A80BF1","1f1d3af7-4777-46d5-965c-b7378dec091e","4f03f330-5f91-43fc-aa61-d9dda6d26521","","null","<div style=""display: flex; justify-content: center; align-items: center;"">
                <img src=""images/other/blank.jpg"" style=""width: 300px; height: 300px;"" />
              </div>","null",""
"","","","","","html-keyboard-response","29","98125","0.0-21.0","EE073602913B4312AD895C6467A80BF1","1f1d3af7-4777-46d5-965c-b7378dec091e","4f03f330-5f91-43fc-aa61-d9dda6d26521","","null","<div style=""display: flex; justify-content: center; align-items: center;"">
                <img src=""images/causal/causal_series_12/causal_series_12_a.jpg"" style=""width: 300px; height: 300px;"" />
              </div>","null",""
"","","","","","html-button-response","30","99098","0.0-22.0","EE073602913B4312AD895C6467A80BF1","1f1d3af7-4777-46d5-965c-b7378dec091e","4f03f330-5f91-43fc-aa61-d9dda6d26521","","972","
    <div style=""display: flex; justify-content: center; align-items: center;"">
      <img src=""images/red_deck_2.png"" style=""width: 300px; height: 300px; margin-right: 10px;"" />
      <img src=""images/blue_deck_1.png"" style=""width: 300px; height: 300px;"" />
    </div>","0","0"
"","","","","","html-keyboard-response","31","102098","0.0-23.0-0.0-0.0","EE073602913B4312AD895C6467A80BF1","1f1d3af7-4777-46d5-965c-b7378dec091e","4f03f330-5f91-43fc-aa61-d9dda6d26521","","null","<div style=""display: flex; justify-content: center; align-items: center;"">
                <img src=""images/causal/causal_series_12/causal_series_12_b.jpg"" style=""width: 300px; height: 300px;"" />
              </div>","null",""
"","","","","","html-keyboard-response","32","105099","0.0-23.0-0.0-1.0","EE073602913B4312AD895C6467A80BF1","1f1d3af7-4777-46d5-965c-b7378dec091e","4f03f330-5f91-43fc-aa61-d9dda6d26521","","null","<div style=""display: flex; justify-content: center; align-items: center;"">
                <img src=""images/causal/causal_series_12/causal_series_12_c.jpg"" style=""width: 300px; height: 300px;"" />
              </div>","null",""
"","","","","","html-keyboard-response","33","108099","0.0-23.0-0.0-2.0","EE073602913B4312AD895C6467A80BF1","1f1d3af7-4777-46d5-965c-b7378dec091e","4f03f330-5f91-43fc-aa61-d9dda6d26521","","null","<div style=""display: flex; justify-content: center; align-items: center;"">
                <img src=""images/causal/causal_series_12/causal_series_12_d.jpg"" style=""width: 300px; height: 300px;"" />
              </div>","null",""
"","","","","","html-keyboard-response","34","111100","0.0-24.0","EE073602913B4312AD895C6467A80BF1","1f1d3af7-4777-46d5-965c-b7378dec091e","4f03f330-5f91-43fc-aa61-d9dda6d26521","","null","<div style=""display: flex; justify-content: center; align-items: center;"">
                <img src=""images/other/blank.jpg"" style=""width: 300px; height: 300px;"" />
              </div>","null",""
"","","","","","html-keyboard-response","35","114100","0.0-25.0","EE073602913B4312AD895C6467A80BF1","1f1d3af7-4777-46d5-965c-b7378dec091e","4f03f330-5f91-43fc-aa61-d9dda6d26521","","null","<div style=""display: flex; justify-content: center; align-items: center;"">
                <img src=""images/causal/causal_series_3/causal_series_3_a.jpg"" style=""width: 300px; height: 300px;"" />
              </div>","null",""
"","","","","","html-button-response","36","115628","0.0-26.0","EE073602913B4312AD895C6467A80BF1","1f1d3af7-4777-46d5-965c-b7378dec091e","4f03f330-5f91-43fc-aa61-d9dda6d26521","","1527","
    <div style=""display: flex; justify-content: center; align-items: center;"">
      <img src=""images/red_deck_2.png"" style=""width: 300px; height: 300px; margin-right: 10px;"" />
      <img src=""images/blue_deck_1.png"" style=""width: 300px; height: 300px;"" />
    </div>","0","0"
"","","","","","html-keyboard-response","37","118628","0.0-27.0-0.0-0.0","EE073602913B4312AD895C6467A80BF1","1f1d3af7-4777-46d5-965c-b7378dec091e","4f03f330-5f91-43fc-aa61-d9dda6d26521","","null","<div style=""display: flex; justify-content: center; align-items: center;"">
                <img src=""images/causal/causal_series_3/causal_series_3_b.jpg"" style=""width: 300px; height: 300px;"" />
              </div>","null",""
"","","","","","html-keyboard-response","38","121629","0.0-27.0-0.0-1.0","EE073602913B4312AD895C6467A80BF1","1f1d3af7-4777-46d5-965c-b7378dec091e","4f03f330-5f91-43fc-aa61-d9dda6d26521","","null","<div style=""display: flex; justify-content: center; align-items: center;"">
                <img src=""images/causal/causal_series_3/causal_series_3_c.jpg"" style=""width: 300px; height: 300px;"" />
              </div>","null",""
"","","","","","html-keyboard-response","39","124629","0.0-27.0-0.0-2.0","EE073602913B4312AD895C6467A80BF1","1f1d3af7-4777-46d5-965c-b7378dec091e","4f03f330-5f91-43fc-aa61-d9dda6d26521","","null","<div style=""display: flex; justify-content: center; align-items: center;"">
                <img src=""images/causal/causal_series_3/causal_series_3_d.jpg"" style=""width: 300px; height: 300px;"" />
              </div>","null",""
"","","","","","html-keyboard-response","40","127630","0.0-28.0","EE073602913B4312AD895C6467A80BF1","1f1d3af7-4777-46d5-965c-b7378dec091e","4f03f330-5f91-43fc-aa61-d9dda6d26521","","null","<div style=""display: flex; justify-content: center; align-items: center;"">
                <img src=""images/other/blank.jpg"" style=""width: 300px; height: 300px;"" />
              </div>","null",""
"","","","","","html-keyboard-response","41","130630","0.0-29.0","EE073602913B4312AD895C6467A80BF1","1f1d3af7-4777-46d5-965c-b7378dec091e","4f03f330-5f91-43fc-aa61-d9dda6d26521","","null","<div style=""display: flex; justify-content: center; align-items: center;"">
                <img src=""images/causal/causal_series_15/causal_series_15_a.jpg"" style=""width: 300px; height: 300px;"" />
              </div>","null",""
"","","","","","html-button-response","42","142971","0.0-30.0","EE073602913B4312AD895C6467A80BF1","1f1d3af7-4777-46d5-965c-b7378dec091e","4f03f330-5f91-43fc-aa61-d9dda6d26521","","12341","
    <div style=""display: flex; justify-content: center; align-items: center;"">
      <img src=""images/red_deck_2.png"" style=""width: 300px; height: 300px; margin-right: 10px;"" />
      <img src=""images/blue_deck_1.png"" style=""width: 300px; height: 300px;"" />
    </div>","0","0"
"","","","","","html-keyboard-response","43","145972","0.0-31.0-0.0-0.0","EE073602913B4312AD895C6467A80BF1","1f1d3af7-4777-46d5-965c-b7378dec091e","4f03f330-5f91-43fc-aa61-d9dda6d26521","","null","<div style=""display: flex; justify-content: center; align-items: center;"">
                <img src=""images/causal/causal_series_15/causal_series_15_b.jpg"" style=""width: 300px; height: 300px;"" />
              </div>","null",""
"","","","","","html-keyboard-response","44","148972","0.0-31.0-0.0-1.0","EE073602913B4312AD895C6467A80BF1","1f1d3af7-4777-46d5-965c-b7378dec091e","4f03f330-5f91-43fc-aa61-d9dda6d26521","","null","<div style=""display: flex; justify-content: center; align-items: center;"">
                <img src=""images/causal/causal_series_15/causal_series_15_c.jpg"" style=""width: 300px; height: 300px;"" />
              </div>","null",""
"","","","","","html-keyboard-response","45","151972","0.0-31.0-0.0-2.0","EE073602913B4312AD895C6467A80BF1","1f1d3af7-4777-46d5-965c-b7378dec091e","4f03f330-5f91-43fc-aa61-d9dda6d26521","","null","<div style=""display: flex; justify-content: center; align-items: center;"">
                <img src=""images/causal/causal_series_15/causal_series_15_d.jpg"" style=""width: 300px; height: 300px;"" />
              </div>","null",""
"","","","","","html-keyboard-response","46","154973","0.0-32.0","EE073602913B4312AD895C6467A80BF1","1f1d3af7-4777-46d5-965c-b7378dec091e","4f03f330-5f91-43fc-aa61-d9dda6d26521","","null","<div style=""display: flex; justify-content: center; align-items: center;"">
                <img src=""images/other/blank.jpg"" style=""width: 300px; height: 300px;"" />
              </div>","null",""
"","","","","","html-keyboard-response","47","157973","0.0-33.0","EE073602913B4312AD895C6467A80BF1","1f1d3af7-4777-46d5-965c-b7378dec091e","4f03f330-5f91-43fc-aa61-d9dda6d26521","","null","<div style=""display: flex; justify-content: center; align-items: center;"">
                <img src=""images/causal/causal_series_18/causal_series_18_a.jpg"" style=""width: 300px; height: 300px;"" />
              </div>","null",""
"","","","","","html-button-response","48","165626","0.0-34.0","EE073602913B4312AD895C6467A80BF1","1f1d3af7-4777-46d5-965c-b7378dec091e","4f03f330-5f91-43fc-aa61-d9dda6d26521","","7652","
    <div style=""display: flex; justify-content: center; align-items: center;"">
      <img src=""images/red_deck_2.png"" style=""width: 300px; height: 300px; margin-right: 10px;"" />
      <img src=""images/blue_deck_1.png"" style=""width: 300px; height: 300px;"" />
    </div>","1","1"
"","","","","","html-keyboard-response","49","168626","0.0-35.0-1.0-0.0","EE073602913B4312AD895C6467A80BF1","1f1d3af7-4777-46d5-965c-b7378dec091e","4f03f330-5f91-43fc-aa61-d9dda6d26521","","null","<div style=""display: flex; justify-content: center; align-items: center;"">
                <img src=""images/semantic/semantic_series_15/semantic_series_15_d.jpg"" style=""width: 300px; height: 300px;"" />
              </div>","null",""
"","","","","","html-keyboard-response","50","171627","0.0-35.0-1.0-1.0","EE073602913B4312AD895C6467A80BF1","1f1d3af7-4777-46d5-965c-b7378dec091e","4f03f330-5f91-43fc-aa61-d9dda6d26521","","null","<div style=""display: flex; justify-content: center; align-items: center;"">
                <img src=""images/semantic/semantic_series_16/semantic_series_16_d.jpg"" style=""width: 300px; height: 300px;"" />
              </div>","null",""
"","","","","","html-keyboard-response","51","174627","0.0-35.0-1.0-2.0","EE073602913B4312AD895C6467A80BF1","1f1d3af7-4777-46d5-965c-b7378dec091e","4f03f330-5f91-43fc-aa61-d9dda6d26521","","null","<div style=""display: flex; justify-content: center; align-items: center;"">
                <img src=""images/semantic/semantic_series_17/semantic_series_17_d.jpg"" style=""width: 300px; height: 300px;"" />
              </div>","null",""
"","","","","","html-keyboard-response","52","177628","0.0-36.0","EE073602913B4312AD895C6467A80BF1","1f1d3af7-4777-46d5-965c-b7378dec091e","4f03f330-5f91-43fc-aa61-d9dda6d26521","","null","<div style=""display: flex; justify-content: center; align-items: center;"">
                <img src=""images/other/blank.jpg"" style=""width: 300px; height: 300px;"" />
              </div>","null",""
"","","","","","html-keyboard-response","53","180628","0.0-37.0","EE073602913B4312AD895C6467A80BF1","1f1d3af7-4777-46d5-965c-b7378dec091e","4f03f330-5f91-43fc-aa61-d9dda6d26521","","null","<div style=""display: flex; justify-content: center; align-items: center;"">
                <img src=""images/causal/causal_series_10/causal_series_10_a.jpg"" style=""width: 300px; height: 300px;"" />
              </div>","null",""
"","","","","","html-button-response","54","188782","0.0-38.0","EE073602913B4312AD895C6467A80BF1","1f1d3af7-4777-46d5-965c-b7378dec091e","4f03f330-5f91-43fc-aa61-d9dda6d26521","","8153","
    <div style=""display: flex; justify-content: center; align-items: center;"">
      <img src=""images/red_deck_2.png"" style=""width: 300px; height: 300px; margin-right: 10px;"" />
      <img src=""images/blue_deck_1.png"" style=""width: 300px; height: 300px;"" />
    </div>","0","0"
"","","","","","html-keyboard-response","55","191782","0.0-39.0-0.0-0.0","EE073602913B4312AD895C6467A80BF1","1f1d3af7-4777-46d5-965c-b7378dec091e","4f03f330-5f91-43fc-aa61-d9dda6d26521","","null","<div style=""display: flex; justify-content: center; align-items: center;"">
                <img src=""images/causal/causal_series_10/causal_series_10_b.jpg"" style=""width: 300px; height: 300px;"" />
              </div>","null",""
"","","","","","html-keyboard-response","56","194782","0.0-39.0-0.0-1.0","EE073602913B4312AD895C6467A80BF1","1f1d3af7-4777-46d5-965c-b7378dec091e","4f03f330-5f91-43fc-aa61-d9dda6d26521","","null","<div style=""display: flex; justify-content: center; align-items: center;"">
                <img src=""images/causal/causal_series_10/causal_series_10_c.jpg"" style=""width: 300px; height: 300px;"" />
              </div>","null",""
"","","","","","html-keyboard-response","57","197783","0.0-39.0-0.0-2.0","EE073602913B4312AD895C6467A80BF1","1f1d3af7-4777-46d5-965c-b7378dec091e","4f03f330-5f91-43fc-aa61-d9dda6d26521","","null","<div style=""display: flex; justify-content: center; align-items: center;"">
                <img src=""images/causal/causal_series_10/causal_series_10_d.jpg"" style=""width: 300px; height: 300px;"" />
              </div>","null",""
"","","","","","html-keyboard-response","58","200783","0.0-40.0","EE073602913B4312AD895C6467A80BF1","1f1d3af7-4777-46d5-965c-b7378dec091e","4f03f330-5f91-43fc-aa61-d9dda6d26521","","null","<div style=""display: flex; justify-content: center; align-items: center;"">
                <img src=""images/other/blank.jpg"" style=""width: 300px; height: 300px;"" />
              </div>","null",""
"","","","","","html-keyboard-response","59","203783","0.0-41.0","EE073602913B4312AD895C6467A80BF1","1f1d3af7-4777-46d5-965c-b7378dec091e","4f03f330-5f91-43fc-aa61-d9dda6d26521","","null","<div style=""display: flex; justify-content: center; align-items: center;"">
                <img src=""images/causal/causal_series_1/causal_series_1_a.jpg"" style=""width: 300px; height: 300px;"" />
              </div>","null",""
"","","","","","html-button-response","60","207003","0.0-42.0","EE073602913B4312AD895C6467A80BF1","1f1d3af7-4777-46d5-965c-b7378dec091e","4f03f330-5f91-43fc-aa61-d9dda6d26521","","3220","
    <div style=""display: flex; justify-content: center; align-items: center;"">
      <img src=""images/red_deck_2.png"" style=""width: 300px; height: 300px; margin-right: 10px;"" />
      <img src=""images/blue_deck_1.png"" style=""width: 300px; height: 300px;"" />
    </div>","0","0"
"","","","","","html-keyboard-response","61","210004","0.0-43.0-0.0-0.0","EE073602913B4312AD895C6467A80BF1","1f1d3af7-4777-46d5-965c-b7378dec091e","4f03f330-5f91-43fc-aa61-d9dda6d26521","","null","<div style=""display: flex; justify-content: center; align-items: center;"">
                <img src=""images/causal/causal_series_1/causal_series_1_b.jpg"" style=""width: 300px; height: 300px;"" />
              </div>","null",""
"","","","","","html-keyboard-response","62","213004","0.0-43.0-0.0-1.0","EE073602913B4312AD895C6467A80BF1","1f1d3af7-4777-46d5-965c-b7378dec091e","4f03f330-5f91-43fc-aa61-d9dda6d26521","","null","<div style=""display: flex; justify-content: center; align-items: center;"">
                <img src=""images/causal/causal_series_1/causal_series_1_c.jpg"" style=""width: 300px; height: 300px;"" />
              </div>","null",""
"","","","","","html-keyboard-response","63","216005","0.0-43.0-0.0-2.0","EE073602913B4312AD895C6467A80BF1","1f1d3af7-4777-46d5-965c-b7378dec091e","4f03f330-5f91-43fc-aa61-d9dda6d26521","","null","<div style=""display: flex; justify-content: center; align-items: center;"">
                <img src=""images/causal/causal_series_1/causal_series_1_d.jpg"" style=""width: 300px; height: 300px;"" />
              </div>","null",""
"","","","","","html-keyboard-response","64","219005","0.0-44.0","EE073602913B4312AD895C6467A80BF1","1f1d3af7-4777-46d5-965c-b7378dec091e","4f03f330-5f91-43fc-aa61-d9dda6d26521","","null","<div style=""display: flex; justify-content: center; align-items: center;"">
                <img src=""images/other/blank.jpg"" style=""width: 300px; height: 300px;"" />
              </div>","null",""
"","","","","","html-keyboard-response","65","222005","0.0-45.0","EE073602913B4312AD895C6467A80BF1","1f1d3af7-4777-46d5-965c-b7378dec091e","4f03f330-5f91-43fc-aa61-d9dda6d26521","","null","<div style=""display: flex; justify-content: center; align-items: center;"">
                <img src=""images/causal/causal_series_13/causal_series_13_a.jpg"" style=""width: 300px; height: 300px;"" />
              </div>","null",""
"","","","","","html-button-response","66","228147","0.0-46.0","EE073602913B4312AD895C6467A80BF1","1f1d3af7-4777-46d5-965c-b7378dec091e","4f03f330-5f91-43fc-aa61-d9dda6d26521","","6141","
    <div style=""display: flex; justify-content: center; align-items: center;"">
      <img src=""images/red_deck_2.png"" style=""width: 300px; height: 300px; margin-right: 10px;"" />
      <img src=""images/blue_deck_1.png"" style=""width: 300px; height: 300px;"" />
    </div>","1","1"
"","","","","","html-keyboard-response","67","231147","0.0-47.0-1.0-0.0","EE073602913B4312AD895C6467A80BF1","1f1d3af7-4777-46d5-965c-b7378dec091e","4f03f330-5f91-43fc-aa61-d9dda6d26521","","null","<div style=""display: flex; justify-content: center; align-items: center;"">
                <img src=""images/semantic/semantic_series_18/semantic_series_18_d.jpg"" style=""width: 300px; height: 300px;"" />
              </div>","null",""
"","","","","","html-keyboard-response","68","234148","0.0-47.0-1.0-1.0","EE073602913B4312AD895C6467A80BF1","1f1d3af7-4777-46d5-965c-b7378dec091e","4f03f330-5f91-43fc-aa61-d9dda6d26521","","null","<div style=""display: flex; justify-content: center; align-items: center;"">
                <img src=""images/semantic/semantic_series_1/semantic_series_1_d.jpg"" style=""width: 300px; height: 300px;"" />
              </div>","null",""
"","","","","","html-keyboard-response","69","237148","0.0-47.0-1.0-2.0","EE073602913B4312AD895C6467A80BF1","1f1d3af7-4777-46d5-965c-b7378dec091e","4f03f330-5f91-43fc-aa61-d9dda6d26521","","null","<div style=""display: flex; justify-content: center; align-items: center;"">
                <img src=""images/semantic/semantic_series_2/semantic_series_2_d.jpg"" style=""width: 300px; height: 300px;"" />
              </div>","null",""
"","","","","","html-keyboard-response","70","240148","0.0-48.0","EE073602913B4312AD895C6467A80BF1","1f1d3af7-4777-46d5-965c-b7378dec091e","4f03f330-5f91-43fc-aa61-d9dda6d26521","","null","<div style=""display: flex; justify-content: center; align-items: center;"">
                <img src=""images/other/blank.jpg"" style=""width: 300px; height: 300px;"" />
              </div>","null",""
"","","","","","html-keyboard-response","71","243149","0.0-49.0","EE073602913B4312AD895C6467A80BF1","1f1d3af7-4777-46d5-965c-b7378dec091e","4f03f330-5f91-43fc-aa61-d9dda6d26521","","null","<div style=""display: flex; justify-content: center; align-items: center;"">
                <img src=""images/causal/causal_series_11/causal_series_11_a.jpg"" style=""width: 300px; height: 300px;"" />
              </div>","null",""
"","","","","","html-button-response","72","247615","0.0-50.0","EE073602913B4312AD895C6467A80BF1","1f1d3af7-4777-46d5-965c-b7378dec091e","4f03f330-5f91-43fc-aa61-d9dda6d26521","","4465","
    <div style=""display: flex; justify-content: center; align-items: center;"">
      <img src=""images/red_deck_2.png"" style=""width: 300px; height: 300px; margin-right: 10px;"" />
      <img src=""images/blue_deck_1.png"" style=""width: 300px; height: 300px;"" />
    </div>","0","0"
"","","","","","html-keyboard-response","73","250615","0.0-51.0-0.0-0.0","EE073602913B4312AD895C6467A80BF1","1f1d3af7-4777-46d5-965c-b7378dec091e","4f03f330-5f91-43fc-aa61-d9dda6d26521","","null","<div style=""display: flex; justify-content: center; align-items: center;"">
                <img src=""images/causal/causal_series_11/causal_series_11_b.jpg"" style=""width: 300px; height: 300px;"" />
              </div>","null",""
"","","","","","html-keyboard-response","74","253615","0.0-51.0-0.0-1.0","EE073602913B4312AD895C6467A80BF1","1f1d3af7-4777-46d5-965c-b7378dec091e","4f03f330-5f91-43fc-aa61-d9dda6d26521","","null","<div style=""display: flex; justify-content: center; align-items: center;"">
                <img src=""images/causal/causal_series_11/causal_series_11_c.jpg"" style=""width: 300px; height: 300px;"" />
              </div>","null",""
"","","","","","html-keyboard-response","75","256616","0.0-51.0-0.0-2.0","EE073602913B4312AD895C6467A80BF1","1f1d3af7-4777-46d5-965c-b7378dec091e","4f03f330-5f91-43fc-aa61-d9dda6d26521","","null","<div style=""display: flex; justify-content: center; align-items: center;"">
                <img src=""images/causal/causal_series_11/causal_series_11_d.jpg"" style=""width: 300px; height: 300px;"" />
              </div>","null",""
"","","","","","html-keyboard-response","76","259616","0.0-52.0","EE073602913B4312AD895C6467A80BF1","1f1d3af7-4777-46d5-965c-b7378dec091e","4f03f330-5f91-43fc-aa61-d9dda6d26521","","null","<div style=""display: flex; justify-content: center; align-items: center;"">
                <img src=""images/other/blank.jpg"" style=""width: 300px; height: 300px;"" />
              </div>","null",""
"","","","","","html-keyboard-response","77","262617","0.0-53.0","EE073602913B4312AD895C6467A80BF1","1f1d3af7-4777-46d5-965c-b7378dec091e","4f03f330-5f91-43fc-aa61-d9dda6d26521","","null","<div style=""display: flex; justify-content: center; align-items: center;"">
                <img src=""images/causal/causal_series_2/causal_series_2_a.jpg"" style=""width: 300px; height: 300px;"" />
              </div>","null",""
"","","","","","html-button-response","78","263741","0.0-54.0","EE073602913B4312AD895C6467A80BF1","1f1d3af7-4777-46d5-965c-b7378dec091e","4f03f330-5f91-43fc-aa61-d9dda6d26521","","1124","
    <div style=""display: flex; justify-content: center; align-items: center;"">
      <img src=""images/red_deck_2.png"" style=""width: 300px; height: 300px; margin-right: 10px;"" />
      <img src=""images/blue_deck_1.png"" style=""width: 300px; height: 300px;"" />
    </div>","1","1"
"","","","","","html-keyboard-response","79","266742","0.0-55.0-1.0-0.0","EE073602913B4312AD895C6467A80BF1","1f1d3af7-4777-46d5-965c-b7378dec091e","4f03f330-5f91-43fc-aa61-d9dda6d26521","","null","<div style=""display: flex; justify-content: center; align-items: center;"">
                <img src=""images/semantic/semantic_series_3/semantic_series_3_d.jpg"" style=""width: 300px; height: 300px;"" />
              </div>","null",""
"","","","","","html-keyboard-response","80","269742","0.0-55.0-1.0-1.0","EE073602913B4312AD895C6467A80BF1","1f1d3af7-4777-46d5-965c-b7378dec091e","4f03f330-5f91-43fc-aa61-d9dda6d26521","","null","<div style=""display: flex; justify-content: center; align-items: center;"">
                <img src=""images/semantic/semantic_series_4/semantic_series_4_d.jpg"" style=""width: 300px; height: 300px;"" />
              </div>","null",""
"","","","","","html-keyboard-response","81","272743","0.0-55.0-1.0-2.0","EE073602913B4312AD895C6467A80BF1","1f1d3af7-4777-46d5-965c-b7378dec091e","4f03f330-5f91-43fc-aa61-d9dda6d26521","","null","<div style=""display: flex; justify-content: center; align-items: center;"">
                <img src=""images/semantic/semantic_series_5/semantic_series_5_d.jpg"" style=""width: 300px; height: 300px;"" />
              </div>","null",""
"","","","","","html-keyboard-response","82","275743","0.0-56.0","EE073602913B4312AD895C6467A80BF1","1f1d3af7-4777-46d5-965c-b7378dec091e","4f03f330-5f91-43fc-aa61-d9dda6d26521","","null","<div style=""display: flex; justify-content: center; align-items: center;"">
                <img src=""images/other/blank.jpg"" style=""width: 300px; height: 300px;"" />
              </div>","null",""
"","","","","","html-keyboard-response","83","278743","0.0-57.0","EE073602913B4312AD895C6467A80BF1","1f1d3af7-4777-46d5-965c-b7378dec091e","4f03f330-5f91-43fc-aa61-d9dda6d26521","","null","<div style=""display: flex; justify-content: center; align-items: center;"">
                <img src=""images/causal/causal_series_5/causal_series_5_a.jpg"" style=""width: 300px; height: 300px;"" />
              </div>","null",""
"","","","","","html-button-response","84","284221","0.0-58.0","EE073602913B4312AD895C6467A80BF1","1f1d3af7-4777-46d5-965c-b7378dec091e","4f03f330-5f91-43fc-aa61-d9dda6d26521","","5478","
    <div style=""display: flex; justify-content: center; align-items: center;"">
      <img src=""images/red_deck_2.png"" style=""width: 300px; height: 300px; margin-right: 10px;"" />
      <img src=""images/blue_deck_1.png"" style=""width: 300px; height: 300px;"" />
    </div>","0","0"
"","","","","","html-keyboard-response","85","287222","0.0-59.0-0.0-0.0","EE073602913B4312AD895C6467A80BF1","1f1d3af7-4777-46d5-965c-b7378dec091e","4f03f330-5f91-43fc-aa61-d9dda6d26521","","null","<div style=""display: flex; justify-content: center; align-items: center;"">
                <img src=""images/causal/causal_series_5/causal_series_5_b.jpg"" style=""width: 300px; height: 300px;"" />
              </div>","null",""
"","","","","","html-keyboard-response","86","290222","0.0-59.0-0.0-1.0","EE073602913B4312AD895C6467A80BF1","1f1d3af7-4777-46d5-965c-b7378dec091e","4f03f330-5f91-43fc-aa61-d9dda6d26521","","null","<div style=""display: flex; justify-content: center; align-items: center;"">
                <img src=""images/causal/causal_series_5/causal_series_5_c.jpg"" style=""width: 300px; height: 300px;"" />
              </div>","null",""
"","","","","","html-keyboard-response","87","293222","0.0-59.0-0.0-2.0","EE073602913B4312AD895C6467A80BF1","1f1d3af7-4777-46d5-965c-b7378dec091e","4f03f330-5f91-43fc-aa61-d9dda6d26521","","null","<div style=""display: flex; justify-content: center; align-items: center;"">
                <img src=""images/causal/causal_series_5/causal_series_5_d.jpg"" style=""width: 300px; height: 300px;"" />
              </div>","null",""
"","","","","","html-keyboard-response","88","296223","0.0-60.0","EE073602913B4312AD895C6467A80BF1","1f1d3af7-4777-46d5-965c-b7378dec091e","4f03f330-5f91-43fc-aa61-d9dda6d26521","","null","<div style=""display: flex; justify-content: center; align-items: center;"">
                <img src=""images/other/blank.jpg"" style=""width: 300px; height: 300px;"" />
              </div>","null",""
"","","","","","html-keyboard-response","89","299223","0.0-61.0","EE073602913B4312AD895C6467A80BF1","1f1d3af7-4777-46d5-965c-b7378dec091e","4f03f330-5f91-43fc-aa61-d9dda6d26521","","null","<div style=""display: flex; justify-content: center; align-items: center;"">
                <img src=""images/causal/causal_series_4/causal_series_4_a.jpg"" style=""width: 300px; height: 300px;"" />
              </div>","null",""
"","","","","","html-button-response","90","305103","0.0-62.0","EE073602913B4312AD895C6467A80BF1","1f1d3af7-4777-46d5-965c-b7378dec091e","4f03f330-5f91-43fc-aa61-d9dda6d26521","","5879","
    <div style=""display: flex; justify-content: center; align-items: center;"">
      <img src=""images/red_deck_2.png"" style=""width: 300px; height: 300px; margin-right: 10px;"" />
      <img src=""images/blue_deck_1.png"" style=""width: 300px; height: 300px;"" />
    </div>","0","0"
"","","","","","html-keyboard-response","91","308104","0.0-63.0-0.0-0.0","EE073602913B4312AD895C6467A80BF1","1f1d3af7-4777-46d5-965c-b7378dec091e","4f03f330-5f91-43fc-aa61-d9dda6d26521","","null","<div style=""display: flex; justify-content: center; align-items: center;"">
                <img src=""images/causal/causal_series_4/causal_series_4_b.jpg"" style=""width: 300px; height: 300px;"" />
              </div>","null",""
"","","","","","html-keyboard-response","92","311104","0.0-63.0-0.0-1.0","EE073602913B4312AD895C6467A80BF1","1f1d3af7-4777-46d5-965c-b7378dec091e","4f03f330-5f91-43fc-aa61-d9dda6d26521","","null","<div style=""display: flex; justify-content: center; align-items: center;"">
                <img src=""images/causal/causal_series_4/causal_series_4_c.jpg"" style=""width: 300px; height: 300px;"" />
              </div>","null",""
"","","","","","html-keyboard-response","93","314104","0.0-63.0-0.0-2.0","EE073602913B4312AD895C6467A80BF1","1f1d3af7-4777-46d5-965c-b7378dec091e","4f03f330-5f91-43fc-aa61-d9dda6d26521","","null","<div style=""display: flex; justify-content: center; align-items: center;"">
                <img src=""images/causal/causal_series_4/causal_series_4_d.jpg"" style=""width: 300px; height: 300px;"" />
              </div>","null",""
"","","","","","html-keyboard-response","94","317105","0.0-64.0","EE073602913B4312AD895C6467A80BF1","1f1d3af7-4777-46d5-965c-b7378dec091e","4f03f330-5f91-43fc-aa61-d9dda6d26521","","null","<div style=""display: flex; justify-content: center; align-items: center;"">
                <img src=""images/other/blank.jpg"" style=""width: 300px; height: 300px;"" />
              </div>","null",""
"","","","","","html-keyboard-response","95","320105","0.0-65.0","EE073602913B4312AD895C6467A80BF1","1f1d3af7-4777-46d5-965c-b7378dec091e","4f03f330-5f91-43fc-aa61-d9dda6d26521","","null","<div style=""display: flex; justify-content: center; align-items: center;"">
                <img src=""images/causal/causal_series_8/causal_series_8_a.jpg"" style=""width: 300px; height: 300px;"" />
              </div>","null",""
"","","","","","html-button-response","96","332167","0.0-66.0","EE073602913B4312AD895C6467A80BF1","1f1d3af7-4777-46d5-965c-b7378dec091e","4f03f330-5f91-43fc-aa61-d9dda6d26521","","12061","
    <div style=""display: flex; justify-content: center; align-items: center;"">
      <img src=""images/red_deck_2.png"" style=""width: 300px; height: 300px; margin-right: 10px;"" />
      <img src=""images/blue_deck_1.png"" style=""width: 300px; height: 300px;"" />
    </div>","0","0"
"","","","","","html-keyboard-response","97","335167","0.0-67.0-0.0-0.0","EE073602913B4312AD895C6467A80BF1","1f1d3af7-4777-46d5-965c-b7378dec091e","4f03f330-5f91-43fc-aa61-d9dda6d26521","","null","<div style=""display: flex; justify-content: center; align-items: center;"">
                <img src=""images/causal/causal_series_8/causal_series_8_b.jpg"" style=""width: 300px; height: 300px;"" />
              </div>","null",""
"","","","","","html-keyboard-response","98","338168","0.0-67.0-0.0-1.0","EE073602913B4312AD895C6467A80BF1","1f1d3af7-4777-46d5-965c-b7378dec091e","4f03f330-5f91-43fc-aa61-d9dda6d26521","","null","<div style=""display: flex; justify-content: center; align-items: center;"">
                <img src=""images/causal/causal_series_8/causal_series_8_c.jpg"" style=""width: 300px; height: 300px;"" />
              </div>","null",""
"","","","","","html-keyboard-response","99","341168","0.0-67.0-0.0-2.0","EE073602913B4312AD895C6467A80BF1","1f1d3af7-4777-46d5-965c-b7378dec091e","4f03f330-5f91-43fc-aa61-d9dda6d26521","","null","<div style=""display: flex; justify-content: center; align-items: center;"">
                <img src=""images/causal/causal_series_8/causal_series_8_d.jpg"" style=""width: 300px; height: 300px;"" />
              </div>","null",""
"","","","","","html-keyboard-response","100","344168","0.0-68.0","EE073602913B4312AD895C6467A80BF1","1f1d3af7-4777-46d5-965c-b7378dec091e","4f03f330-5f91-43fc-aa61-d9dda6d26521","","null","<div style=""display: flex; justify-content: center; align-items: center;"">
                <img src=""images/other/blank.jpg"" style=""width: 300px; height: 300px;"" />
              </div>","null",""
"","","","","","html-keyboard-response","101","347169","0.0-69.0","EE073602913B4312AD895C6467A80BF1","1f1d3af7-4777-46d5-965c-b7378dec091e","4f03f330-5f91-43fc-aa61-d9dda6d26521","","null","<div style=""display: flex; justify-content: center; align-items: center;"">
                <img src=""images/causal/causal_series_9/causal_series_9_a.jpg"" style=""width: 300px; height: 300px;"" />
              </div>","null",""
"","","","","","html-button-response","102","354046","0.0-70.0","EE073602913B4312AD895C6467A80BF1","1f1d3af7-4777-46d5-965c-b7378dec091e","4f03f330-5f91-43fc-aa61-d9dda6d26521","","6877","
    <div style=""display: flex; justify-content: center; align-items: center;"">
      <img src=""images/red_deck_2.png"" style=""width: 300px; height: 300px; margin-right: 10px;"" />
      <img src=""images/blue_deck_1.png"" style=""width: 300px; height: 300px;"" />
    </div>","0","0"
"","","","","","html-keyboard-response","103","357047","0.0-71.0-0.0-0.0","EE073602913B4312AD895C6467A80BF1","1f1d3af7-4777-46d5-965c-b7378dec091e","4f03f330-5f91-43fc-aa61-d9dda6d26521","","null","<div style=""display: flex; justify-content: center; align-items: center;"">
                <img src=""images/causal/causal_series_9/causal_series_9_b.jpg"" style=""width: 300px; height: 300px;"" />
              </div>","null",""
"","","","","","html-keyboard-response","104","360047","0.0-71.0-0.0-1.0","EE073602913B4312AD895C6467A80BF1","1f1d3af7-4777-46d5-965c-b7378dec091e","4f03f330-5f91-43fc-aa61-d9dda6d26521","","null","<div style=""display: flex; justify-content: center; align-items: center;"">
                <img src=""images/causal/causal_series_9/causal_series_9_c.jpg"" style=""width: 300px; height: 300px;"" />
              </div>","null",""
"","","","","","html-keyboard-response","105","363047","0.0-71.0-0.0-2.0","EE073602913B4312AD895C6467A80BF1","1f1d3af7-4777-46d5-965c-b7378dec091e","4f03f330-5f91-43fc-aa61-d9dda6d26521","","null","<div style=""display: flex; justify-content: center; align-items: center;"">
                <img src=""images/causal/causal_series_9/causal_series_9_d.jpg"" style=""width: 300px; height: 300px;"" />
              </div>","null",""
"","","","","","html-keyboard-response","106","366048","0.0-72.0","EE073602913B4312AD895C6467A80BF1","1f1d3af7-4777-46d5-965c-b7378dec091e","4f03f330-5f91-43fc-aa61-d9dda6d26521","","null","<div style=""display: flex; justify-content: center; align-items: center;"">
                <img src=""images/other/blank.jpg"" style=""width: 300px; height: 300px;"" />
              </div>","null",""
"","","","","","html-keyboard-response","107","369048","0.0-73.0","EE073602913B4312AD895C6467A80BF1","1f1d3af7-4777-46d5-965c-b7378dec091e","4f03f330-5f91-43fc-aa61-d9dda6d26521","","null","<div style=""display: flex; justify-content: center; align-items: center;"">
                <img src=""images/causal/causal_series_17/causal_series_17_a.jpg"" style=""width: 300px; height: 300px;"" />
              </div>","null",""
"","","","","","html-button-response","108","370128","0.0-74.0","EE073602913B4312AD895C6467A80BF1","1f1d3af7-4777-46d5-965c-b7378dec091e","4f03f330-5f91-43fc-aa61-d9dda6d26521","","1080","
    <div style=""display: flex; justify-content: center; align-items: center;"">
      <img src=""images/red_deck_2.png"" style=""width: 300px; height: 300px; margin-right: 10px;"" />
      <img src=""images/blue_deck_1.png"" style=""width: 300px; height: 300px;"" />
    </div>","0","0"
"","","","","","html-keyboard-response","109","373129","0.0-75.0-0.0-0.0","EE073602913B4312AD895C6467A80BF1","1f1d3af7-4777-46d5-965c-b7378dec091e","4f03f330-5f91-43fc-aa61-d9dda6d26521","","null","<div style=""display: flex; justify-content: center; align-items: center;"">
                <img src=""images/causal/causal_series_17/causal_series_17_b.jpg"" style=""width: 300px; height: 300px;"" />
              </div>","null",""
"","","","","","html-keyboard-response","110","376129","0.0-75.0-0.0-1.0","EE073602913B4312AD895C6467A80BF1","1f1d3af7-4777-46d5-965c-b7378dec091e","4f03f330-5f91-43fc-aa61-d9dda6d26521","","null","<div style=""display: flex; justify-content: center; align-items: center;"">
                <img src=""images/causal/causal_series_17/causal_series_17_c.jpg"" style=""width: 300px; height: 300px;"" />
              </div>","null",""
"","","","","","html-keyboard-response","111","379129","0.0-75.0-0.0-2.0","EE073602913B4312AD895C6467A80BF1","1f1d3af7-4777-46d5-965c-b7378dec091e","4f03f330-5f91-43fc-aa61-d9dda6d26521","","null","<div style=""display: flex; justify-content: center; align-items: center;"">
                <img src=""images/causal/causal_series_17/causal_series_17_d.jpg"" style=""width: 300px; height: 300px;"" />
              </div>","null",""
"","","","","","html-keyboard-response","112","382130","0.0-76.0","EE073602913B4312AD895C6467A80BF1","1f1d3af7-4777-46d5-965c-b7378dec091e","4f03f330-5f91-43fc-aa61-d9dda6d26521","","null","<div style=""display: flex; justify-content: center; align-items: center;"">
                <img src=""images/other/blank.jpg"" style=""width: 300px; height: 300px;"" />
              </div>","null",""
"","","","","","survey-text","113","414705","0.0-77.0","EE073602913B4312AD895C6467A80BF1","1f1d3af7-4777-46d5-965c-b7378dec091e","4f03f330-5f91-43fc-aa61-d9dda6d26521","","32574","","{""Q0"":""one was random different scenarios and the other would continue on the one I was already looking at""}",""
"","","","","","survey-text","114","423308","0.0-78.0","EE073602913B4312AD895C6467A80BF1","1f1d3af7-4777-46d5-965c-b7378dec091e","4f03f330-5f91-43fc-aa61-d9dda6d26521","","8603","","{""Q0"":""both were pretty interesting""}",""
"","","","","","html-button-response","115","448335","0.0-79.0","EE073602913B4312AD895C6467A80BF1","1f1d3af7-4777-46d5-965c-b7378dec091e","4f03f330-5f91-43fc-aa61-d9dda6d26521","","25026","Which color deck does the fourth image continue the story from the series?","1",""
"","","","","","html-button-response","116","452495","0.0-80.0","EE073602913B4312AD895C6467A80BF1","1f1d3af7-4777-46d5-965c-b7378dec091e","4f03f330-5f91-43fc-aa61-d9dda6d26521","","4159","Which color deck does the fourth image not follow the story from the series?","0",""
"","","","","","survey-text","117","456364","0.0-81.0","EE073602913B4312AD895C6467A80BF1","1f1d3af7-4777-46d5-965c-b7378dec091e","4f03f330-5f91-43fc-aa61-d9dda6d26521","","3868","","{""Q0"":""female"",""Q1"":""20""}",""
"","","","","","instructions","118","460744","0.0-82.0","EE073602913B4312AD895C6467A80BF1","1f1d3af7-4777-46d5-965c-b7378dec091e","4f03f330-5f91-43fc-aa61-d9dda6d26521","[{""page_index"":0,""viewing_time"":4379}]","4379","","",""
