"success","timeout","failed_images","failed_audio","failed_video","trial_type","trial_index","time_elapsed","internal_node_id","subject_id","study_id","session_id","view_history","rt","stimulus","response","series","repetition","phase","choice","question_order"
"true","false","[]","[]","[]","preload","0","2124","0.0-0.0","D8E5BB54CE4041CD8158E557CC204C4C","0199d5f2-07fd-71fa-b279-a065badb0ad9","0199d5ef-c7d4-7cab-a194-b2c3afbaf8e8","","","","","","","","",""
"","","","","","instructions","1","3490","0.0-1.0","D8E5BB54CE4041CD8158E557CC204C4C","0199d5f2-07fd-71fa-b279-a065badb0ad9","0199d5ef-c7d4-7cab-a194-b2c3afbaf8e8","[{""page_index"":0,""viewing_time"":1363}]","1364","","","","","","",""
"","","","","","instructions","2","5906","0.0-2.0","D8E5BB54CE4041CD8158E557CC204C4C","0199d5f2-07fd-71fa-b279-a065badb0ad9","0199d5ef-c7d4-7cab-a194-b2c3afbaf8e8","[{""page_index"":0,""viewing_time"":2415}]","2415","","","","","","",""
"true","","","","","fullscreen","3","8462","0.0-3.0","D8E5BB54CE4041CD8158E557CC204C4C","0199d5f2-07fd-71fa-b279-a065badb0ad9","0199d5ef-c7d4-7cab-a194-b2c3afbaf8e8","","1548","","","","","","",""
"","","","","","instructions","4","21639","0.0-4.0","D8E5BB54CE4041CD8158E557CC204C4C","0199d5f2-07fd-71fa-b279-a065badb0ad9","0199d5ef-c7d4-7cab-a194-b2c3afbaf8e8","[{""page_index"":0,""viewing_time"":13172}]","13172","","","","","","",""
"","","","","","html-keyboard-response","5","27647","0.0-5.0","D8E5BB54CE4041CD8158E557CC204C4C","0199d5f2-07fd-71fa-b279-a065badb0ad9","0199d5ef-c7d4-7cab-a194-b2c3afbaf8e8","","null","<div style=""display: flex; justify-content: center; align-items: center;"">
                     <img src=""images/causal/causal_series_1/causal_series_1_a.png"" style=""width: 300px; height: 300px;"" />
                   </div>","null","1","2","A","",""
"","","","","","html-keyboard-response","6","33696","0.0-6.0","D8E5BB54CE4041CD8158E557CC204C4C","0199d5f2-07fd-71fa-b279-a065badb0ad9","0199d5ef-c7d4-7cab-a194-b2c3afbaf8e8","","null","<div style=""display: flex; justify-content: center; align-items: center;"">
                     <img src=""images/causal/causal_series_1/causal_series_1_b.png"" style=""width: 300px; height: 300px;"" />
                   </div>","null","1","2","B","",""
"","","","","","html-keyboard-response","7","39702","0.0-7.0","D8E5BB54CE4041CD8158E557CC204C4C","0199d5f2-07fd-71fa-b279-a065badb0ad9","0199d5ef-c7d4-7cab-a194-b2c3afbaf8e8","","null","<div style=""display: flex; justify-content: center; align-items: center;"">
                     <img src=""images/causal/causal_series_1/causal_series_1_c.png"" style=""width: 300px; height: 300px;"" />
                   </div>","null","1","2","C","",""
"","","","","","html-button-response","8","41673","0.0-8.0","D8E5BB54CE4041CD8158E557CC204C4C","0199d5f2-07fd-71fa-b279-a065badb0ad9","0199d5ef-c7d4-7cab-a194-b2c3afbaf8e8","","1968","
        <div style=""display: flex; justify-content: center; align-items: center;"">
          <img src=""images/red_deck_2.png"" style=""width: 300px; height: 300px; margin-right: 10px;"" />
          <img src=""images/blue_deck_1.png"" style=""width: 300px; height: 300px;"" />
        </div>","1","1","2","choice","1",""
"","","","","","html-keyboard-response","9","47710","0.0-9.0-1.0-0.0","D8E5BB54CE4041CD8158E557CC204C4C","0199d5f2-07fd-71fa-b279-a065badb0ad9","0199d5ef-c7d4-7cab-a194-b2c3afbaf8e8","","null","<div style=""display: flex; justify-content: center; align-items: center;"">
                     <img src=""images/semantic/semantic_series_1/semantic_series_1_d.png"" style=""width: 300px; height: 300px;"" />
                   </div>","null","1","2","D","",""
"","","","","","html-keyboard-response","10","53716","0.0-9.0-1.0-1.0","D8E5BB54CE4041CD8158E557CC204C4C","0199d5f2-07fd-71fa-b279-a065badb0ad9","0199d5ef-c7d4-7cab-a194-b2c3afbaf8e8","","null","<div style=""display: flex; justify-content: center; align-items: center;"">
                     <img src=""images/semantic/semantic_series_1/semantic_series_1_e.png"" style=""width: 300px; height: 300px;"" />
                   </div>","null","1","2","E","",""
"","","","","","html-keyboard-response","11","59815","0.0-9.0-1.0-2.0","D8E5BB54CE4041CD8158E557CC204C4C","0199d5f2-07fd-71fa-b279-a065badb0ad9","0199d5ef-c7d4-7cab-a194-b2c3afbaf8e8","","null","<div style=""display: flex; justify-content: center; align-items: center;"">
                     <img src=""images/semantic/semantic_series_1/semantic_series_1_f.png"" style=""width: 300px; height: 300px;"" />
                   </div>","null","1","2","F","",""
"","","","","","survey-likert","12","63960","0.0-10.0","D8E5BB54CE4041CD8158E557CC204C4C","0199d5f2-07fd-71fa-b279-a065badb0ad9","0199d5ef-c7d4-7cab-a194-b2c3afbaf8e8","","4143","","{""Q0"":0}","1","2","surprise_rating","","[0]"
"","","","","","survey-likert","13","66856","0.0-11.0","D8E5BB54CE4041CD8158E557CC204C4C","0199d5f2-07fd-71fa-b279-a065badb0ad9","0199d5ef-c7d4-7cab-a194-b2c3afbaf8e8","","2894","","{""Q0"":2}","1","2","enjoyment_rating","","[0]"
"","","","","","html-keyboard-response","14","72864","0.0-12.0","D8E5BB54CE4041CD8158E557CC204C4C","0199d5f2-07fd-71fa-b279-a065badb0ad9","0199d5ef-c7d4-7cab-a194-b2c3afbaf8e8","","null","<div style=""display: flex; justify-content: center; align-items: center;"">
                     <img src=""images/other/blank.png"" style=""width: 300px; height: 300px;"" />
                   </div>","null","0","0","blank","",""
"","","","","","html-keyboard-response","15","78871","0.0-13.0","D8E5BB54CE4041CD8158E557CC204C4C","0199d5f2-07fd-71fa-b279-a065badb0ad9","0199d5ef-c7d4-7cab-a194-b2c3afbaf8e8","","null","<div style=""display: flex; justify-content: center; align-items: center;"">
                     <img src=""images/causal/causal_series_2/causal_series_2_a.png"" style=""width: 300px; height: 300px;"" />
                   </div>","null","2","1","A","",""
"","","","","","html-keyboard-response","16","84874","0.0-14.0","D8E5BB54CE4041CD8158E557CC204C4C","0199d5f2-07fd-71fa-b279-a065badb0ad9","0199d5ef-c7d4-7cab-a194-b2c3afbaf8e8","","null","<div style=""display: flex; justify-content: center; align-items: center;"">
                     <img src=""images/causal/causal_series_2/causal_series_2_b.png"" style=""width: 300px; height: 300px;"" />
                   </div>","null","2","1","B","",""
"","","","","","html-keyboard-response","17","90887","0.0-15.0","D8E5BB54CE4041CD8158E557CC204C4C","0199d5f2-07fd-71fa-b279-a065badb0ad9","0199d5ef-c7d4-7cab-a194-b2c3afbaf8e8","","null","<div style=""display: flex; justify-content: center; align-items: center;"">
                     <img src=""images/causal/causal_series_2/causal_series_2_c.png"" style=""width: 300px; height: 300px;"" />
                   </div>","null","2","1","C","",""
"","","","","","html-button-response","18","92306","0.0-16.0","D8E5BB54CE4041CD8158E557CC204C4C","0199d5f2-07fd-71fa-b279-a065badb0ad9","0199d5ef-c7d4-7cab-a194-b2c3afbaf8e8","","1416","
        <div style=""display: flex; justify-content: center; align-items: center;"">
          <img src=""images/red_deck_2.png"" style=""width: 300px; height: 300px; margin-right: 10px;"" />
          <img src=""images/blue_deck_1.png"" style=""width: 300px; height: 300px;"" />
        </div>","0","2","1","choice","0",""
"","","","","","html-keyboard-response","19","98313","0.0-17.0-0.0-0.0","D8E5BB54CE4041CD8158E557CC204C4C","0199d5f2-07fd-71fa-b279-a065badb0ad9","0199d5ef-c7d4-7cab-a194-b2c3afbaf8e8","","null","<div style=""display: flex; justify-content: center; align-items: center;"">
                     <img src=""images/causal/causal_series_2/causal_series_2_d.png"" style=""width: 300px; height: 300px;"" />
                   </div>","null","2","1","D","",""
"","","","","","html-keyboard-response","20","104319","0.0-17.0-0.0-1.0","D8E5BB54CE4041CD8158E557CC204C4C","0199d5f2-07fd-71fa-b279-a065badb0ad9","0199d5ef-c7d4-7cab-a194-b2c3afbaf8e8","","null","<div style=""display: flex; justify-content: center; align-items: center;"">
                     <img src=""images/causal/causal_series_2/causal_series_2_e.png"" style=""width: 300px; height: 300px;"" />
                   </div>","null","2","1","E","",""
"","","","","","html-keyboard-response","21","110325","0.0-17.0-0.0-2.0","D8E5BB54CE4041CD8158E557CC204C4C","0199d5f2-07fd-71fa-b279-a065badb0ad9","0199d5ef-c7d4-7cab-a194-b2c3afbaf8e8","","null","<div style=""display: flex; justify-content: center; align-items: center;"">
                     <img src=""images/causal/causal_series_2/causal_series_2_f.png"" style=""width: 300px; height: 300px;"" />
                   </div>","null","2","1","F","",""
"","","","","","survey-likert","22","112506","0.0-18.0","D8E5BB54CE4041CD8158E557CC204C4C","0199d5f2-07fd-71fa-b279-a065badb0ad9","0199d5ef-c7d4-7cab-a194-b2c3afbaf8e8","","2179","","{""Q0"":3}","2","1","surprise_rating","","[0]"
"","","","","","survey-likert","23","115373","0.0-19.0","D8E5BB54CE4041CD8158E557CC204C4C","0199d5f2-07fd-71fa-b279-a065badb0ad9","0199d5ef-c7d4-7cab-a194-b2c3afbaf8e8","","2863","","{""Q0"":2}","2","1","enjoyment_rating","","[0]"
"","","","","","html-keyboard-response","24","121401","0.0-20.0","D8E5BB54CE4041CD8158E557CC204C4C","0199d5f2-07fd-71fa-b279-a065badb0ad9","0199d5ef-c7d4-7cab-a194-b2c3afbaf8e8","","null","<div style=""display: flex; justify-content: center; align-items: center;"">
                     <img src=""images/other/blank.png"" style=""width: 300px; height: 300px;"" />
                   </div>","null","0","0","blank","",""
"","","","","","html-keyboard-response","25","127407","0.0-21.0","D8E5BB54CE4041CD8158E557CC204C4C","0199d5f2-07fd-71fa-b279-a065badb0ad9","0199d5ef-c7d4-7cab-a194-b2c3afbaf8e8","","null","<div style=""display: flex; justify-content: center; align-items: center;"">
                     <img src=""images/causal/causal_series_7/causal_series_7_a.png"" style=""width: 300px; height: 300px;"" />
                   </div>","null","7","1","A","",""
"","","","","","html-keyboard-response","26","133414","0.0-22.0","D8E5BB54CE4041CD8158E557CC204C4C","0199d5f2-07fd-71fa-b279-a065badb0ad9","0199d5ef-c7d4-7cab-a194-b2c3afbaf8e8","","null","<div style=""display: flex; justify-content: center; align-items: center;"">
                     <img src=""images/causal/causal_series_7/causal_series_7_b.png"" style=""width: 300px; height: 300px;"" />
                   </div>","null","7","1","B","",""
"","","","","","html-keyboard-response","27","139420","0.0-23.0","D8E5BB54CE4041CD8158E557CC204C4C","0199d5f2-07fd-71fa-b279-a065badb0ad9","0199d5ef-c7d4-7cab-a194-b2c3afbaf8e8","","null","<div style=""display: flex; justify-content: center; align-items: center;"">
                     <img src=""images/causal/causal_series_7/causal_series_7_c.png"" style=""width: 300px; height: 300px;"" />
                   </div>","null","7","1","C","",""
"","","","","","html-button-response","28","140638","0.0-24.0","D8E5BB54CE4041CD8158E557CC204C4C","0199d5f2-07fd-71fa-b279-a065badb0ad9","0199d5ef-c7d4-7cab-a194-b2c3afbaf8e8","","1217","
        <div style=""display: flex; justify-content: center; align-items: center;"">
          <img src=""images/red_deck_2.png"" style=""width: 300px; height: 300px; margin-right: 10px;"" />
          <img src=""images/blue_deck_1.png"" style=""width: 300px; height: 300px;"" />
        </div>","0","7","1","choice","0",""
"","","","","","html-keyboard-response","29","146645","0.0-25.0-0.0-0.0","D8E5BB54CE4041CD8158E557CC204C4C","0199d5f2-07fd-71fa-b279-a065badb0ad9","0199d5ef-c7d4-7cab-a194-b2c3afbaf8e8","","null","<div style=""display: flex; justify-content: center; align-items: center;"">
                     <img src=""images/causal/causal_series_7/causal_series_7_d.png"" style=""width: 300px; height: 300px;"" />
                   </div>","null","7","1","D","",""
"","","","","","html-keyboard-response","30","152651","0.0-25.0-0.0-1.0","D8E5BB54CE4041CD8158E557CC204C4C","0199d5f2-07fd-71fa-b279-a065badb0ad9","0199d5ef-c7d4-7cab-a194-b2c3afbaf8e8","","null","<div style=""display: flex; justify-content: center; align-items: center;"">
                     <img src=""images/causal/causal_series_7/causal_series_7_e.png"" style=""width: 300px; height: 300px;"" />
                   </div>","null","7","1","E","",""
"","","","","","html-keyboard-response","31","158653","0.0-25.0-0.0-2.0","D8E5BB54CE4041CD8158E557CC204C4C","0199d5f2-07fd-71fa-b279-a065badb0ad9","0199d5ef-c7d4-7cab-a194-b2c3afbaf8e8","","null","<div style=""display: flex; justify-content: center; align-items: center;"">
                     <img src=""images/causal/causal_series_7/causal_series_7_f.png"" style=""width: 300px; height: 300px;"" />
                   </div>","null","7","1","F","",""
"","","","","","survey-likert","32","162838","0.0-26.0","D8E5BB54CE4041CD8158E557CC204C4C","0199d5f2-07fd-71fa-b279-a065badb0ad9","0199d5ef-c7d4-7cab-a194-b2c3afbaf8e8","","4182","","{""Q0"":2}","7","1","surprise_rating","","[0]"
"","","","","","survey-likert","33","165139","0.0-27.0","D8E5BB54CE4041CD8158E557CC204C4C","0199d5f2-07fd-71fa-b279-a065badb0ad9","0199d5ef-c7d4-7cab-a194-b2c3afbaf8e8","","2298","","{""Q0"":2}","7","1","enjoyment_rating","","[0]"
"","","","","","html-keyboard-response","34","171731","0.0-28.0","D8E5BB54CE4041CD8158E557CC204C4C","0199d5f2-07fd-71fa-b279-a065badb0ad9","0199d5ef-c7d4-7cab-a194-b2c3afbaf8e8","","null","<div style=""display: flex; justify-content: center; align-items: center;"">
                     <img src=""images/other/blank.png"" style=""width: 300px; height: 300px;"" />
                   </div>","null","0","0","blank","",""
"","","","","","html-keyboard-response","35","177736","0.0-29.0","D8E5BB54CE4041CD8158E557CC204C4C","0199d5f2-07fd-71fa-b279-a065badb0ad9","0199d5ef-c7d4-7cab-a194-b2c3afbaf8e8","","null","<div style=""display: flex; justify-content: center; align-items: center;"">
                     <img src=""images/causal/causal_series_1/causal_series_1_a.png"" style=""width: 300px; height: 300px;"" />
                   </div>","null","1","1","A","",""
"","","","","","html-keyboard-response","36","184272","0.0-30.0","D8E5BB54CE4041CD8158E557CC204C4C","0199d5f2-07fd-71fa-b279-a065badb0ad9","0199d5ef-c7d4-7cab-a194-b2c3afbaf8e8","","null","<div style=""display: flex; justify-content: center; align-items: center;"">
                     <img src=""images/causal/causal_series_1/causal_series_1_b.png"" style=""width: 300px; height: 300px;"" />
                   </div>","null","1","1","B","",""
"","","","","","html-keyboard-response","37","190279","0.0-31.0","D8E5BB54CE4041CD8158E557CC204C4C","0199d5f2-07fd-71fa-b279-a065badb0ad9","0199d5ef-c7d4-7cab-a194-b2c3afbaf8e8","","null","<div style=""display: flex; justify-content: center; align-items: center;"">
                     <img src=""images/causal/causal_series_1/causal_series_1_c.png"" style=""width: 300px; height: 300px;"" />
                   </div>","null","1","1","C","",""
"","","","","","html-button-response","38","191671","0.0-32.0","D8E5BB54CE4041CD8158E557CC204C4C","0199d5f2-07fd-71fa-b279-a065badb0ad9","0199d5ef-c7d4-7cab-a194-b2c3afbaf8e8","","1391","
        <div style=""display: flex; justify-content: center; align-items: center;"">
          <img src=""images/red_deck_2.png"" style=""width: 300px; height: 300px; margin-right: 10px;"" />
          <img src=""images/blue_deck_1.png"" style=""width: 300px; height: 300px;"" />
        </div>","0","1","1","choice","0",""
"","","","","","html-keyboard-response","39","197675","0.0-33.0-0.0-0.0","D8E5BB54CE4041CD8158E557CC204C4C","0199d5f2-07fd-71fa-b279-a065badb0ad9","0199d5ef-c7d4-7cab-a194-b2c3afbaf8e8","","null","<div style=""display: flex; justify-content: center; align-items: center;"">
                     <img src=""images/causal/causal_series_1/causal_series_1_d.png"" style=""width: 300px; height: 300px;"" />
                   </div>","null","1","1","D","",""
"","","","","","html-keyboard-response","40","203681","0.0-33.0-0.0-1.0","D8E5BB54CE4041CD8158E557CC204C4C","0199d5f2-07fd-71fa-b279-a065badb0ad9","0199d5ef-c7d4-7cab-a194-b2c3afbaf8e8","","null","<div style=""display: flex; justify-content: center; align-items: center;"">
                     <img src=""images/causal/causal_series_1/causal_series_1_e.png"" style=""width: 300px; height: 300px;"" />
                   </div>","null","1","1","E","",""
"","","","","","html-keyboard-response","41","209689","0.0-33.0-0.0-2.0","D8E5BB54CE4041CD8158E557CC204C4C","0199d5f2-07fd-71fa-b279-a065badb0ad9","0199d5ef-c7d4-7cab-a194-b2c3afbaf8e8","","null","<div style=""display: flex; justify-content: center; align-items: center;"">
                     <img src=""images/causal/causal_series_1/causal_series_1_f.png"" style=""width: 300px; height: 300px;"" />
                   </div>","null","1","1","F","",""
"","","","","","survey-likert","42","212189","0.0-34.0","D8E5BB54CE4041CD8158E557CC204C4C","0199d5f2-07fd-71fa-b279-a065badb0ad9","0199d5ef-c7d4-7cab-a194-b2c3afbaf8e8","","2496","","{""Q0"":3}","1","1","surprise_rating","","[0]"
"","","","","","survey-likert","43","213754","0.0-35.0","D8E5BB54CE4041CD8158E557CC204C4C","0199d5f2-07fd-71fa-b279-a065badb0ad9","0199d5ef-c7d4-7cab-a194-b2c3afbaf8e8","","1564","","{""Q0"":3}","1","1","enjoyment_rating","","[0]"
"","","","","","html-keyboard-response","44","219762","0.0-36.0","D8E5BB54CE4041CD8158E557CC204C4C","0199d5f2-07fd-71fa-b279-a065badb0ad9","0199d5ef-c7d4-7cab-a194-b2c3afbaf8e8","","null","<div style=""display: flex; justify-content: center; align-items: center;"">
                     <img src=""images/other/blank.png"" style=""width: 300px; height: 300px;"" />
                   </div>","null","0","0","blank","",""
"","","","","","html-keyboard-response","45","225769","0.0-37.0","D8E5BB54CE4041CD8158E557CC204C4C","0199d5f2-07fd-71fa-b279-a065badb0ad9","0199d5ef-c7d4-7cab-a194-b2c3afbaf8e8","","null","<div style=""display: flex; justify-content: center; align-items: center;"">
                     <img src=""images/causal/causal_series_9/causal_series_9_a.png"" style=""width: 300px; height: 300px;"" />
                   </div>","null","9","2","A","",""
"","","","","","html-keyboard-response","46","231776","0.0-38.0","D8E5BB54CE4041CD8158E557CC204C4C","0199d5f2-07fd-71fa-b279-a065badb0ad9","0199d5ef-c7d4-7cab-a194-b2c3afbaf8e8","","null","<div style=""display: flex; justify-content: center; align-items: center;"">
                     <img src=""images/causal/causal_series_9/causal_series_9_b.png"" style=""width: 300px; height: 300px;"" />
                   </div>","null","9","2","B","",""
"","","","","","html-keyboard-response","47","237851","0.0-39.0","D8E5BB54CE4041CD8158E557CC204C4C","0199d5f2-07fd-71fa-b279-a065badb0ad9","0199d5ef-c7d4-7cab-a194-b2c3afbaf8e8","","null","<div style=""display: flex; justify-content: center; align-items: center;"">
                     <img src=""images/causal/causal_series_9/causal_series_9_c.png"" style=""width: 300px; height: 300px;"" />
                   </div>","null","9","2","C","",""
"","","","","","html-button-response","48","238904","0.0-40.0","D8E5BB54CE4041CD8158E557CC204C4C","0199d5f2-07fd-71fa-b279-a065badb0ad9","0199d5ef-c7d4-7cab-a194-b2c3afbaf8e8","","1051","
        <div style=""display: flex; justify-content: center; align-items: center;"">
          <img src=""images/red_deck_2.png"" style=""width: 300px; height: 300px; margin-right: 10px;"" />
          <img src=""images/blue_deck_1.png"" style=""width: 300px; height: 300px;"" />
        </div>","1","9","2","choice","1",""
"","","","","","html-keyboard-response","49","244911","0.0-41.0-1.0-0.0","D8E5BB54CE4041CD8158E557CC204C4C","0199d5f2-07fd-71fa-b279-a065badb0ad9","0199d5ef-c7d4-7cab-a194-b2c3afbaf8e8","","null","<div style=""display: flex; justify-content: center; align-items: center;"">
                     <img src=""images/semantic/semantic_series_9/semantic_series_9_d.png"" style=""width: 300px; height: 300px;"" />
                   </div>","null","9","2","D","",""
"","","","","","html-keyboard-response","50","250917","0.0-41.0-1.0-1.0","D8E5BB54CE4041CD8158E557CC204C4C","0199d5f2-07fd-71fa-b279-a065badb0ad9","0199d5ef-c7d4-7cab-a194-b2c3afbaf8e8","","null","<div style=""display: flex; justify-content: center; align-items: center;"">
                     <img src=""images/semantic/semantic_series_9/semantic_series_9_e.png"" style=""width: 300px; height: 300px;"" />
                   </div>","null","9","2","E","",""
"","","","","","html-keyboard-response","51","256922","0.0-41.0-1.0-2.0","D8E5BB54CE4041CD8158E557CC204C4C","0199d5f2-07fd-71fa-b279-a065badb0ad9","0199d5ef-c7d4-7cab-a194-b2c3afbaf8e8","","null","<div style=""display: flex; justify-content: center; align-items: center;"">
                     <img src=""images/semantic/semantic_series_9/semantic_series_9_f.png"" style=""width: 300px; height: 300px;"" />
                   </div>","null","9","2","F","",""
"","","","","","survey-likert","52","259355","0.0-42.0","D8E5BB54CE4041CD8158E557CC204C4C","0199d5f2-07fd-71fa-b279-a065badb0ad9","0199d5ef-c7d4-7cab-a194-b2c3afbaf8e8","","2431","","{""Q0"":2}","9","2","surprise_rating","","[0]"
"","","","","","survey-likert","53","261521","0.0-43.0","D8E5BB54CE4041CD8158E557CC204C4C","0199d5f2-07fd-71fa-b279-a065badb0ad9","0199d5ef-c7d4-7cab-a194-b2c3afbaf8e8","","2161","","{""Q0"":2}","9","2","enjoyment_rating","","[0]"
"","","","","","html-keyboard-response","54","267530","0.0-44.0","D8E5BB54CE4041CD8158E557CC204C4C","0199d5f2-07fd-71fa-b279-a065badb0ad9","0199d5ef-c7d4-7cab-a194-b2c3afbaf8e8","","null","<div style=""display: flex; justify-content: center; align-items: center;"">
                     <img src=""images/other/blank.png"" style=""width: 300px; height: 300px;"" />
                   </div>","null","0","0","blank","",""
"","","","","","html-keyboard-response","55","273810","0.0-45.0","D8E5BB54CE4041CD8158E557CC204C4C","0199d5f2-07fd-71fa-b279-a065badb0ad9","0199d5ef-c7d4-7cab-a194-b2c3afbaf8e8","","null","<div style=""display: flex; justify-content: center; align-items: center;"">
                     <img src=""images/causal/causal_series_3/causal_series_3_a.png"" style=""width: 300px; height: 300px;"" />
                   </div>","null","3","2","A","",""
"","","","","","html-keyboard-response","56","279816","0.0-46.0","D8E5BB54CE4041CD8158E557CC204C4C","0199d5f2-07fd-71fa-b279-a065badb0ad9","0199d5ef-c7d4-7cab-a194-b2c3afbaf8e8","","null","<div style=""display: flex; justify-content: center; align-items: center;"">
                     <img src=""images/causal/causal_series_3/causal_series_3_b.png"" style=""width: 300px; height: 300px;"" />
                   </div>","null","3","2","B","",""
"","","","","","html-keyboard-response","57","285818","0.0-47.0","D8E5BB54CE4041CD8158E557CC204C4C","0199d5f2-07fd-71fa-b279-a065badb0ad9","0199d5ef-c7d4-7cab-a194-b2c3afbaf8e8","","null","<div style=""display: flex; justify-content: center; align-items: center;"">
                     <img src=""images/causal/causal_series_3/causal_series_3_c.png"" style=""width: 300px; height: 300px;"" />
                   </div>","null","3","2","C","",""
"","","","","","html-button-response","58","287653","0.0-48.0","D8E5BB54CE4041CD8158E557CC204C4C","0199d5f2-07fd-71fa-b279-a065badb0ad9","0199d5ef-c7d4-7cab-a194-b2c3afbaf8e8","","1831","
        <div style=""display: flex; justify-content: center; align-items: center;"">
          <img src=""images/red_deck_2.png"" style=""width: 300px; height: 300px; margin-right: 10px;"" />
          <img src=""images/blue_deck_1.png"" style=""width: 300px; height: 300px;"" />
        </div>","0","3","2","choice","0",""
"","","","","","html-keyboard-response","59","293659","0.0-49.0-0.0-0.0","D8E5BB54CE4041CD8158E557CC204C4C","0199d5f2-07fd-71fa-b279-a065badb0ad9","0199d5ef-c7d4-7cab-a194-b2c3afbaf8e8","","null","<div style=""display: flex; justify-content: center; align-items: center;"">
                     <img src=""images/causal/causal_series_3/causal_series_3_d.png"" style=""width: 300px; height: 300px;"" />
                   </div>","null","3","2","D","",""
"","","","","","html-keyboard-response","60","299857","0.0-49.0-0.0-1.0","D8E5BB54CE4041CD8158E557CC204C4C","0199d5f2-07fd-71fa-b279-a065badb0ad9","0199d5ef-c7d4-7cab-a194-b2c3afbaf8e8","","null","<div style=""display: flex; justify-content: center; align-items: center;"">
                     <img src=""images/causal/causal_series_3/causal_series_3_e.png"" style=""width: 300px; height: 300px;"" />
                   </div>","null","3","2","E","",""
"","","","","","html-keyboard-response","61","305864","0.0-49.0-0.0-2.0","D8E5BB54CE4041CD8158E557CC204C4C","0199d5f2-07fd-71fa-b279-a065badb0ad9","0199d5ef-c7d4-7cab-a194-b2c3afbaf8e8","","null","<div style=""display: flex; justify-content: center; align-items: center;"">
                     <img src=""images/causal/causal_series_3/causal_series_3_f.png"" style=""width: 300px; height: 300px;"" />
                   </div>","null","3","2","F","",""
"","","","","","survey-likert","62","309671","0.0-50.0","D8E5BB54CE4041CD8158E557CC204C4C","0199d5f2-07fd-71fa-b279-a065badb0ad9","0199d5ef-c7d4-7cab-a194-b2c3afbaf8e8","","3806","","{""Q0"":3}","3","2","surprise_rating","","[0]"
"","","","","","survey-likert","63","311401","0.0-51.0","D8E5BB54CE4041CD8158E557CC204C4C","0199d5f2-07fd-71fa-b279-a065badb0ad9","0199d5ef-c7d4-7cab-a194-b2c3afbaf8e8","","1729","","{""Q0"":2}","3","2","enjoyment_rating","","[0]"
"","","","","","html-keyboard-response","64","317408","0.0-52.0","D8E5BB54CE4041CD8158E557CC204C4C","0199d5f2-07fd-71fa-b279-a065badb0ad9","0199d5ef-c7d4-7cab-a194-b2c3afbaf8e8","","null","<div style=""display: flex; justify-content: center; align-items: center;"">
                     <img src=""images/other/blank.png"" style=""width: 300px; height: 300px;"" />
                   </div>","null","0","0","blank","",""
"","","","","","html-keyboard-response","65","323414","0.0-53.0","D8E5BB54CE4041CD8158E557CC204C4C","0199d5f2-07fd-71fa-b279-a065badb0ad9","0199d5ef-c7d4-7cab-a194-b2c3afbaf8e8","","null","<div style=""display: flex; justify-content: center; align-items: center;"">
                     <img src=""images/causal/causal_series_5/causal_series_5_a.png"" style=""width: 300px; height: 300px;"" />
                   </div>","null","5","2","A","",""
"","","","","","html-keyboard-response","66","329417","0.0-54.0","D8E5BB54CE4041CD8158E557CC204C4C","0199d5f2-07fd-71fa-b279-a065badb0ad9","0199d5ef-c7d4-7cab-a194-b2c3afbaf8e8","","null","<div style=""display: flex; justify-content: center; align-items: center;"">
                     <img src=""images/causal/causal_series_5/causal_series_5_b.png"" style=""width: 300px; height: 300px;"" />
                   </div>","null","5","2","B","",""
"","","","","","html-keyboard-response","67","335423","0.0-55.0","D8E5BB54CE4041CD8158E557CC204C4C","0199d5f2-07fd-71fa-b279-a065badb0ad9","0199d5ef-c7d4-7cab-a194-b2c3afbaf8e8","","null","<div style=""display: flex; justify-content: center; align-items: center;"">
                     <img src=""images/causal/causal_series_5/causal_series_5_c.png"" style=""width: 300px; height: 300px;"" />
                   </div>","null","5","2","C","",""
"","","","","","html-button-response","68","337086","0.0-56.0","D8E5BB54CE4041CD8158E557CC204C4C","0199d5f2-07fd-71fa-b279-a065badb0ad9","0199d5ef-c7d4-7cab-a194-b2c3afbaf8e8","","1661","
        <div style=""display: flex; justify-content: center; align-items: center;"">
          <img src=""images/red_deck_2.png"" style=""width: 300px; height: 300px; margin-right: 10px;"" />
          <img src=""images/blue_deck_1.png"" style=""width: 300px; height: 300px;"" />
        </div>","1","5","2","choice","1",""
"","","","","","html-keyboard-response","69","343093","0.0-57.0-1.0-0.0","D8E5BB54CE4041CD8158E557CC204C4C","0199d5f2-07fd-71fa-b279-a065badb0ad9","0199d5ef-c7d4-7cab-a194-b2c3afbaf8e8","","null","<div style=""display: flex; justify-content: center; align-items: center;"">
                     <img src=""images/semantic/semantic_series_5/semantic_series_5_d.png"" style=""width: 300px; height: 300px;"" />
                   </div>","null","5","2","D","",""
"","","","","","html-keyboard-response","70","349099","0.0-57.0-1.0-1.0","D8E5BB54CE4041CD8158E557CC204C4C","0199d5f2-07fd-71fa-b279-a065badb0ad9","0199d5ef-c7d4-7cab-a194-b2c3afbaf8e8","","null","<div style=""display: flex; justify-content: center; align-items: center;"">
                     <img src=""images/semantic/semantic_series_5/semantic_series_5_e.png"" style=""width: 300px; height: 300px;"" />
                   </div>","null","5","2","E","",""
"","","","","","html-keyboard-response","71","355456","0.0-57.0-1.0-2.0","D8E5BB54CE4041CD8158E557CC204C4C","0199d5f2-07fd-71fa-b279-a065badb0ad9","0199d5ef-c7d4-7cab-a194-b2c3afbaf8e8","","null","<div style=""display: flex; justify-content: center; align-items: center;"">
                     <img src=""images/semantic/semantic_series_5/semantic_series_5_f.png"" style=""width: 300px; height: 300px;"" />
                   </div>","null","5","2","F","",""
"","","","","","survey-likert","72","357471","0.0-58.0","D8E5BB54CE4041CD8158E557CC204C4C","0199d5f2-07fd-71fa-b279-a065badb0ad9","0199d5ef-c7d4-7cab-a194-b2c3afbaf8e8","","2013","","{""Q0"":3}","5","2","surprise_rating","","[0]"
"","","","","","survey-likert","73","358737","0.0-59.0","D8E5BB54CE4041CD8158E557CC204C4C","0199d5f2-07fd-71fa-b279-a065badb0ad9","0199d5ef-c7d4-7cab-a194-b2c3afbaf8e8","","1264","","{""Q0"":1}","5","2","enjoyment_rating","","[0]"
"","","","","","html-keyboard-response","74","364871","0.0-60.0","D8E5BB54CE4041CD8158E557CC204C4C","0199d5f2-07fd-71fa-b279-a065badb0ad9","0199d5ef-c7d4-7cab-a194-b2c3afbaf8e8","","null","<div style=""display: flex; justify-content: center; align-items: center;"">
                     <img src=""images/other/blank.png"" style=""width: 300px; height: 300px;"" />
                   </div>","null","0","0","blank","",""
"","","","","","html-keyboard-response","75","370877","0.0-61.0","D8E5BB54CE4041CD8158E557CC204C4C","0199d5f2-07fd-71fa-b279-a065badb0ad9","0199d5ef-c7d4-7cab-a194-b2c3afbaf8e8","","null","<div style=""display: flex; justify-content: center; align-items: center;"">
                     <img src=""images/causal/causal_series_4/causal_series_4_a.png"" style=""width: 300px; height: 300px;"" />
                   </div>","null","4","1","A","",""
"","","","","","html-keyboard-response","76","376883","0.0-62.0","D8E5BB54CE4041CD8158E557CC204C4C","0199d5f2-07fd-71fa-b279-a065badb0ad9","0199d5ef-c7d4-7cab-a194-b2c3afbaf8e8","","null","<div style=""display: flex; justify-content: center; align-items: center;"">
                     <img src=""images/causal/causal_series_4/causal_series_4_b.png"" style=""width: 300px; height: 300px;"" />
                   </div>","null","4","1","B","",""
"","","","","","html-keyboard-response","77","382888","0.0-63.0","D8E5BB54CE4041CD8158E557CC204C4C","0199d5f2-07fd-71fa-b279-a065badb0ad9","0199d5ef-c7d4-7cab-a194-b2c3afbaf8e8","","null","<div style=""display: flex; justify-content: center; align-items: center;"">
                     <img src=""images/causal/causal_series_4/causal_series_4_c.png"" style=""width: 300px; height: 300px;"" />
                   </div>","null","4","1","C","",""
"","","","","","html-button-response","78","384103","0.0-64.0","D8E5BB54CE4041CD8158E557CC204C4C","0199d5f2-07fd-71fa-b279-a065badb0ad9","0199d5ef-c7d4-7cab-a194-b2c3afbaf8e8","","1214","
        <div style=""display: flex; justify-content: center; align-items: center;"">
          <img src=""images/red_deck_2.png"" style=""width: 300px; height: 300px; margin-right: 10px;"" />
          <img src=""images/blue_deck_1.png"" style=""width: 300px; height: 300px;"" />
        </div>","0","4","1","choice","0",""
"","","","","","html-keyboard-response","79","390239","0.0-65.0-0.0-0.0","D8E5BB54CE4041CD8158E557CC204C4C","0199d5f2-07fd-71fa-b279-a065badb0ad9","0199d5ef-c7d4-7cab-a194-b2c3afbaf8e8","","null","<div style=""display: flex; justify-content: center; align-items: center;"">
                     <img src=""images/causal/causal_series_4/causal_series_4_d.png"" style=""width: 300px; height: 300px;"" />
                   </div>","null","4","1","D","",""
"","","","","","html-keyboard-response","80","396245","0.0-65.0-0.0-1.0","D8E5BB54CE4041CD8158E557CC204C4C","0199d5f2-07fd-71fa-b279-a065badb0ad9","0199d5ef-c7d4-7cab-a194-b2c3afbaf8e8","","null","<div style=""display: flex; justify-content: center; align-items: center;"">
                     <img src=""images/causal/causal_series_4/causal_series_4_e.png"" style=""width: 300px; height: 300px;"" />
                   </div>","null","4","1","E","",""
"","","","","","html-keyboard-response","81","402252","0.0-65.0-0.0-2.0","D8E5BB54CE4041CD8158E557CC204C4C","0199d5f2-07fd-71fa-b279-a065badb0ad9","0199d5ef-c7d4-7cab-a194-b2c3afbaf8e8","","null","<div style=""display: flex; justify-content: center; align-items: center;"">
                     <img src=""images/causal/causal_series_4/causal_series_4_f.png"" style=""width: 300px; height: 300px;"" />
                   </div>","null","4","1","F","",""
"","","","","","survey-likert","82","408903","0.0-66.0","D8E5BB54CE4041CD8158E557CC204C4C","0199d5f2-07fd-71fa-b279-a065badb0ad9","0199d5ef-c7d4-7cab-a194-b2c3afbaf8e8","","6649","","{""Q0"":3}","4","1","surprise_rating","","[0]"
"","","","","","survey-likert","83","413387","0.0-67.0","D8E5BB54CE4041CD8158E557CC204C4C","0199d5f2-07fd-71fa-b279-a065badb0ad9","0199d5ef-c7d4-7cab-a194-b2c3afbaf8e8","","4481","","{""Q0"":1}","4","1","enjoyment_rating","","[0]"
"","","","","","html-keyboard-response","84","419395","0.0-68.0","D8E5BB54CE4041CD8158E557CC204C4C","0199d5f2-07fd-71fa-b279-a065badb0ad9","0199d5ef-c7d4-7cab-a194-b2c3afbaf8e8","","null","<div style=""display: flex; justify-content: center; align-items: center;"">
                     <img src=""images/other/blank.png"" style=""width: 300px; height: 300px;"" />
                   </div>","null","0","0","blank","",""
"","","","","","html-keyboard-response","85","425400","0.0-69.0","D8E5BB54CE4041CD8158E557CC204C4C","0199d5f2-07fd-71fa-b279-a065badb0ad9","0199d5ef-c7d4-7cab-a194-b2c3afbaf8e8","","null","<div style=""display: flex; justify-content: center; align-items: center;"">
                     <img src=""images/causal/causal_series_10/causal_series_10_a.png"" style=""width: 300px; height: 300px;"" />
                   </div>","null","10","1","A","",""
"","","","","","html-keyboard-response","86","431517","0.0-70.0","D8E5BB54CE4041CD8158E557CC204C4C","0199d5f2-07fd-71fa-b279-a065badb0ad9","0199d5ef-c7d4-7cab-a194-b2c3afbaf8e8","","null","<div style=""display: flex; justify-content: center; align-items: center;"">
                     <img src=""images/causal/causal_series_10/causal_series_10_b.png"" style=""width: 300px; height: 300px;"" />
                   </div>","null","10","1","B","",""
"","","","","","html-keyboard-response","87","437523","0.0-71.0","D8E5BB54CE4041CD8158E557CC204C4C","0199d5f2-07fd-71fa-b279-a065badb0ad9","0199d5ef-c7d4-7cab-a194-b2c3afbaf8e8","","null","<div style=""display: flex; justify-content: center; align-items: center;"">
                     <img src=""images/causal/causal_series_10/causal_series_10_c.png"" style=""width: 300px; height: 300px;"" />
                   </div>","null","10","1","C","",""
"","","","","","html-button-response","88","439154","0.0-72.0","D8E5BB54CE4041CD8158E557CC204C4C","0199d5f2-07fd-71fa-b279-a065badb0ad9","0199d5ef-c7d4-7cab-a194-b2c3afbaf8e8","","1628","
        <div style=""display: flex; justify-content: center; align-items: center;"">
          <img src=""images/red_deck_2.png"" style=""width: 300px; height: 300px; margin-right: 10px;"" />
          <img src=""images/blue_deck_1.png"" style=""width: 300px; height: 300px;"" />
        </div>","1","10","1","choice","1",""
"","","","","","html-keyboard-response","89","445160","0.0-73.0-1.0-0.0","D8E5BB54CE4041CD8158E557CC204C4C","0199d5f2-07fd-71fa-b279-a065badb0ad9","0199d5ef-c7d4-7cab-a194-b2c3afbaf8e8","","null","<div style=""display: flex; justify-content: center; align-items: center;"">
                     <img src=""images/semantic/semantic_series_10/semantic_series_10_d.png"" style=""width: 300px; height: 300px;"" />
                   </div>","null","10","1","D","",""
"","","","","","html-keyboard-response","90","451538","0.0-73.0-1.0-1.0","D8E5BB54CE4041CD8158E557CC204C4C","0199d5f2-07fd-71fa-b279-a065badb0ad9","0199d5ef-c7d4-7cab-a194-b2c3afbaf8e8","","null","<div style=""display: flex; justify-content: center; align-items: center;"">
                     <img src=""images/semantic/semantic_series_10/semantic_series_10_e.png"" style=""width: 300px; height: 300px;"" />
                   </div>","null","10","1","E","",""
"","","","","","html-keyboard-response","91","457545","0.0-73.0-1.0-2.0","D8E5BB54CE4041CD8158E557CC204C4C","0199d5f2-07fd-71fa-b279-a065badb0ad9","0199d5ef-c7d4-7cab-a194-b2c3afbaf8e8","","null","<div style=""display: flex; justify-content: center; align-items: center;"">
                     <img src=""images/semantic/semantic_series_10/semantic_series_10_f.png"" style=""width: 300px; height: 300px;"" />
                   </div>","null","10","1","F","",""
"","","","","","survey-likert","92","461021","0.0-74.0","D8E5BB54CE4041CD8158E557CC204C4C","0199d5f2-07fd-71fa-b279-a065badb0ad9","0199d5ef-c7d4-7cab-a194-b2c3afbaf8e8","","3474","","{""Q0"":2}","10","1","surprise_rating","","[0]"
"","","","","","survey-likert","93","462620","0.0-75.0","D8E5BB54CE4041CD8158E557CC204C4C","0199d5f2-07fd-71fa-b279-a065badb0ad9","0199d5ef-c7d4-7cab-a194-b2c3afbaf8e8","","1596","","{""Q0"":2}","10","1","enjoyment_rating","","[0]"
"","","","","","html-keyboard-response","94","468627","0.0-76.0","D8E5BB54CE4041CD8158E557CC204C4C","0199d5f2-07fd-71fa-b279-a065badb0ad9","0199d5ef-c7d4-7cab-a194-b2c3afbaf8e8","","null","<div style=""display: flex; justify-content: center; align-items: center;"">
                     <img src=""images/other/blank.png"" style=""width: 300px; height: 300px;"" />
                   </div>","null","0","0","blank","",""
"","","","","","html-keyboard-response","95","474633","0.0-77.0","D8E5BB54CE4041CD8158E557CC204C4C","0199d5f2-07fd-71fa-b279-a065badb0ad9","0199d5ef-c7d4-7cab-a194-b2c3afbaf8e8","","null","<div style=""display: flex; justify-content: center; align-items: center;"">
                     <img src=""images/causal/causal_series_5/causal_series_5_a.png"" style=""width: 300px; height: 300px;"" />
                   </div>","null","5","1","A","",""
"","","","","","html-keyboard-response","96","480640","0.0-78.0","D8E5BB54CE4041CD8158E557CC204C4C","0199d5f2-07fd-71fa-b279-a065badb0ad9","0199d5ef-c7d4-7cab-a194-b2c3afbaf8e8","","null","<div style=""display: flex; justify-content: center; align-items: center;"">
                     <img src=""images/causal/causal_series_5/causal_series_5_b.png"" style=""width: 300px; height: 300px;"" />
                   </div>","null","5","1","B","",""
"","","","","","html-keyboard-response","97","486646","0.0-79.0","D8E5BB54CE4041CD8158E557CC204C4C","0199d5f2-07fd-71fa-b279-a065badb0ad9","0199d5ef-c7d4-7cab-a194-b2c3afbaf8e8","","null","<div style=""display: flex; justify-content: center; align-items: center;"">
                     <img src=""images/causal/causal_series_5/causal_series_5_c.png"" style=""width: 300px; height: 300px;"" />
                   </div>","null","5","1","C","",""
"","","","","","html-button-response","98","487786","0.0-80.0","D8E5BB54CE4041CD8158E557CC204C4C","0199d5f2-07fd-71fa-b279-a065badb0ad9","0199d5ef-c7d4-7cab-a194-b2c3afbaf8e8","","1138","
        <div style=""display: flex; justify-content: center; align-items: center;"">
          <img src=""images/red_deck_2.png"" style=""width: 300px; height: 300px; margin-right: 10px;"" />
          <img src=""images/blue_deck_1.png"" style=""width: 300px; height: 300px;"" />
        </div>","0","5","1","choice","0",""
"","","","","","html-keyboard-response","99","493793","0.0-81.0-0.0-0.0","D8E5BB54CE4041CD8158E557CC204C4C","0199d5f2-07fd-71fa-b279-a065badb0ad9","0199d5ef-c7d4-7cab-a194-b2c3afbaf8e8","","null","<div style=""display: flex; justify-content: center; align-items: center;"">
                     <img src=""images/causal/causal_series_5/causal_series_5_d.png"" style=""width: 300px; height: 300px;"" />
                   </div>","null","5","1","D","",""
"","","","","","html-keyboard-response","100","499800","0.0-81.0-0.0-1.0","D8E5BB54CE4041CD8158E557CC204C4C","0199d5f2-07fd-71fa-b279-a065badb0ad9","0199d5ef-c7d4-7cab-a194-b2c3afbaf8e8","","null","<div style=""display: flex; justify-content: center; align-items: center;"">
                     <img src=""images/causal/causal_series_5/causal_series_5_e.png"" style=""width: 300px; height: 300px;"" />
                   </div>","null","5","1","E","",""
"","","","","","html-keyboard-response","101","505806","0.0-81.0-0.0-2.0","D8E5BB54CE4041CD8158E557CC204C4C","0199d5f2-07fd-71fa-b279-a065badb0ad9","0199d5ef-c7d4-7cab-a194-b2c3afbaf8e8","","null","<div style=""display: flex; justify-content: center; align-items: center;"">
                     <img src=""images/causal/causal_series_5/causal_series_5_f.png"" style=""width: 300px; height: 300px;"" />
                   </div>","null","5","1","F","",""
"","","","","","survey-likert","102","511637","0.0-82.0","D8E5BB54CE4041CD8158E557CC204C4C","0199d5f2-07fd-71fa-b279-a065badb0ad9","0199d5ef-c7d4-7cab-a194-b2c3afbaf8e8","","5829","","{""Q0"":3}","5","1","surprise_rating","","[0]"
"","","","","","survey-likert","103","513736","0.0-83.0","D8E5BB54CE4041CD8158E557CC204C4C","0199d5f2-07fd-71fa-b279-a065badb0ad9","0199d5ef-c7d4-7cab-a194-b2c3afbaf8e8","","2096","","{""Q0"":2}","5","1","enjoyment_rating","","[0]"
"","","","","","html-keyboard-response","104","519744","0.0-84.0","D8E5BB54CE4041CD8158E557CC204C4C","0199d5f2-07fd-71fa-b279-a065badb0ad9","0199d5ef-c7d4-7cab-a194-b2c3afbaf8e8","","null","<div style=""display: flex; justify-content: center; align-items: center;"">
                     <img src=""images/other/blank.png"" style=""width: 300px; height: 300px;"" />
                   </div>","null","0","0","blank","",""
"","","","","","html-keyboard-response","105","525750","0.0-85.0","D8E5BB54CE4041CD8158E557CC204C4C","0199d5f2-07fd-71fa-b279-a065badb0ad9","0199d5ef-c7d4-7cab-a194-b2c3afbaf8e8","","null","<div style=""display: flex; justify-content: center; align-items: center;"">
                     <img src=""images/causal/causal_series_9/causal_series_9_a.png"" style=""width: 300px; height: 300px;"" />
                   </div>","null","9","1","A","",""
"","","","","","html-keyboard-response","106","531825","0.0-86.0","D8E5BB54CE4041CD8158E557CC204C4C","0199d5f2-07fd-71fa-b279-a065badb0ad9","0199d5ef-c7d4-7cab-a194-b2c3afbaf8e8","","null","<div style=""display: flex; justify-content: center; align-items: center;"">
                     <img src=""images/causal/causal_series_9/causal_series_9_b.png"" style=""width: 300px; height: 300px;"" />
                   </div>","null","9","1","B","",""
"","","","","","html-keyboard-response","107","537833","0.0-87.0","D8E5BB54CE4041CD8158E557CC204C4C","0199d5f2-07fd-71fa-b279-a065badb0ad9","0199d5ef-c7d4-7cab-a194-b2c3afbaf8e8","","null","<div style=""display: flex; justify-content: center; align-items: center;"">
                     <img src=""images/causal/causal_series_9/causal_series_9_c.png"" style=""width: 300px; height: 300px;"" />
                   </div>","null","9","1","C","",""
"","","","","","html-button-response","108","538485","0.0-88.0","D8E5BB54CE4041CD8158E557CC204C4C","0199d5f2-07fd-71fa-b279-a065badb0ad9","0199d5ef-c7d4-7cab-a194-b2c3afbaf8e8","","648","
        <div style=""display: flex; justify-content: center; align-items: center;"">
          <img src=""images/red_deck_2.png"" style=""width: 300px; height: 300px; margin-right: 10px;"" />
          <img src=""images/blue_deck_1.png"" style=""width: 300px; height: 300px;"" />
        </div>","0","9","1","choice","0",""
"","","","","","html-keyboard-response","109","544492","0.0-89.0-0.0-0.0","D8E5BB54CE4041CD8158E557CC204C4C","0199d5f2-07fd-71fa-b279-a065badb0ad9","0199d5ef-c7d4-7cab-a194-b2c3afbaf8e8","","null","<div style=""display: flex; justify-content: center; align-items: center;"">
                     <img src=""images/causal/causal_series_9/causal_series_9_d.png"" style=""width: 300px; height: 300px;"" />
                   </div>","null","9","1","D","",""
"","","","","","html-keyboard-response","110","550499","0.0-89.0-0.0-1.0","D8E5BB54CE4041CD8158E557CC204C4C","0199d5f2-07fd-71fa-b279-a065badb0ad9","0199d5ef-c7d4-7cab-a194-b2c3afbaf8e8","","null","<div style=""display: flex; justify-content: center; align-items: center;"">
                     <img src=""images/causal/causal_series_9/causal_series_9_e.png"" style=""width: 300px; height: 300px;"" />
                   </div>","null","9","1","E","",""
"","","","","","html-keyboard-response","111","556853","0.0-89.0-0.0-2.0","D8E5BB54CE4041CD8158E557CC204C4C","0199d5f2-07fd-71fa-b279-a065badb0ad9","0199d5ef-c7d4-7cab-a194-b2c3afbaf8e8","","null","<div style=""display: flex; justify-content: center; align-items: center;"">
                     <img src=""images/causal/causal_series_9/causal_series_9_f.png"" style=""width: 300px; height: 300px;"" />
                   </div>","null","9","1","F","",""
"","","","","","survey-likert","112","559135","0.0-90.0","D8E5BB54CE4041CD8158E557CC204C4C","0199d5f2-07fd-71fa-b279-a065badb0ad9","0199d5ef-c7d4-7cab-a194-b2c3afbaf8e8","","2281","","{""Q0"":1}","9","1","surprise_rating","","[0]"
"","","","","","survey-likert","113","560485","0.0-91.0","D8E5BB54CE4041CD8158E557CC204C4C","0199d5f2-07fd-71fa-b279-a065badb0ad9","0199d5ef-c7d4-7cab-a194-b2c3afbaf8e8","","1348","","{""Q0"":1}","9","1","enjoyment_rating","","[0]"
"","","","","","html-keyboard-response","114","566863","0.0-92.0","D8E5BB54CE4041CD8158E557CC204C4C","0199d5f2-07fd-71fa-b279-a065badb0ad9","0199d5ef-c7d4-7cab-a194-b2c3afbaf8e8","","null","<div style=""display: flex; justify-content: center; align-items: center;"">
                     <img src=""images/other/blank.png"" style=""width: 300px; height: 300px;"" />
                   </div>","null","0","0","blank","",""
"","","","","","html-keyboard-response","115","573573","0.0-93.0","D8E5BB54CE4041CD8158E557CC204C4C","0199d5f2-07fd-71fa-b279-a065badb0ad9","0199d5ef-c7d4-7cab-a194-b2c3afbaf8e8","","null","<div style=""display: flex; justify-content: center; align-items: center;"">
                     <img src=""images/causal/causal_series_8/causal_series_8_a.png"" style=""width: 300px; height: 300px;"" />
                   </div>","null","8","1","A","",""
"","","","","","html-keyboard-response","116","579580","0.0-94.0","D8E5BB54CE4041CD8158E557CC204C4C","0199d5f2-07fd-71fa-b279-a065badb0ad9","0199d5ef-c7d4-7cab-a194-b2c3afbaf8e8","","null","<div style=""display: flex; justify-content: center; align-items: center;"">
                     <img src=""images/causal/causal_series_8/causal_series_8_b.png"" style=""width: 300px; height: 300px;"" />
                   </div>","null","8","1","B","",""
"","","","","","html-keyboard-response","117","585587","0.0-95.0","D8E5BB54CE4041CD8158E557CC204C4C","0199d5f2-07fd-71fa-b279-a065badb0ad9","0199d5ef-c7d4-7cab-a194-b2c3afbaf8e8","","null","<div style=""display: flex; justify-content: center; align-items: center;"">
                     <img src=""images/causal/causal_series_8/causal_series_8_c.png"" style=""width: 300px; height: 300px;"" />
                   </div>","null","8","1","C","",""
"","","","","","html-button-response","118","586685","0.0-96.0","D8E5BB54CE4041CD8158E557CC204C4C","0199d5f2-07fd-71fa-b279-a065badb0ad9","0199d5ef-c7d4-7cab-a194-b2c3afbaf8e8","","1097","
        <div style=""display: flex; justify-content: center; align-items: center;"">
          <img src=""images/red_deck_2.png"" style=""width: 300px; height: 300px; margin-right: 10px;"" />
          <img src=""images/blue_deck_1.png"" style=""width: 300px; height: 300px;"" />
        </div>","1","8","1","choice","1",""
"","","","","","html-keyboard-response","119","592692","0.0-97.0-1.0-0.0","D8E5BB54CE4041CD8158E557CC204C4C","0199d5f2-07fd-71fa-b279-a065badb0ad9","0199d5ef-c7d4-7cab-a194-b2c3afbaf8e8","","null","<div style=""display: flex; justify-content: center; align-items: center;"">
                     <img src=""images/semantic/semantic_series_8/semantic_series_8_d.png"" style=""width: 300px; height: 300px;"" />
                   </div>","null","8","1","D","",""
"","","","","","html-keyboard-response","120","598699","0.0-97.0-1.0-1.0","D8E5BB54CE4041CD8158E557CC204C4C","0199d5f2-07fd-71fa-b279-a065badb0ad9","0199d5ef-c7d4-7cab-a194-b2c3afbaf8e8","","null","<div style=""display: flex; justify-content: center; align-items: center;"">
                     <img src=""images/semantic/semantic_series_8/semantic_series_8_e.png"" style=""width: 300px; height: 300px;"" />
                   </div>","null","8","1","E","",""
"","","","","","html-keyboard-response","121","604709","0.0-97.0-1.0-2.0","D8E5BB54CE4041CD8158E557CC204C4C","0199d5f2-07fd-71fa-b279-a065badb0ad9","0199d5ef-c7d4-7cab-a194-b2c3afbaf8e8","","null","<div style=""display: flex; justify-content: center; align-items: center;"">
                     <img src=""images/semantic/semantic_series_8/semantic_series_8_f.png"" style=""width: 300px; height: 300px;"" />
                   </div>","null","8","1","F","",""
"","","","","","survey-likert","122","606419","0.0-98.0","D8E5BB54CE4041CD8158E557CC204C4C","0199d5f2-07fd-71fa-b279-a065badb0ad9","0199d5ef-c7d4-7cab-a194-b2c3afbaf8e8","","1709","","{""Q0"":2}","8","1","surprise_rating","","[0]"
"","","","","","survey-likert","123","608218","0.0-99.0","D8E5BB54CE4041CD8158E557CC204C4C","0199d5f2-07fd-71fa-b279-a065badb0ad9","0199d5ef-c7d4-7cab-a194-b2c3afbaf8e8","","1795","","{""Q0"":2}","8","1","enjoyment_rating","","[0]"
"","","","","","html-keyboard-response","124","614226","0.0-100.0","D8E5BB54CE4041CD8158E557CC204C4C","0199d5f2-07fd-71fa-b279-a065badb0ad9","0199d5ef-c7d4-7cab-a194-b2c3afbaf8e8","","null","<div style=""display: flex; justify-content: center; align-items: center;"">
                     <img src=""images/other/blank.png"" style=""width: 300px; height: 300px;"" />
                   </div>","null","0","0","blank","",""
"","","","","","html-keyboard-response","125","620958","0.0-101.0","D8E5BB54CE4041CD8158E557CC204C4C","0199d5f2-07fd-71fa-b279-a065badb0ad9","0199d5ef-c7d4-7cab-a194-b2c3afbaf8e8","","null","<div style=""display: flex; justify-content: center; align-items: center;"">
                     <img src=""images/causal/causal_series_6/causal_series_6_a.png"" style=""width: 300px; height: 300px;"" />
                   </div>","null","6","1","A","",""
"","","","","","html-keyboard-response","126","626964","0.0-102.0","D8E5BB54CE4041CD8158E557CC204C4C","0199d5f2-07fd-71fa-b279-a065badb0ad9","0199d5ef-c7d4-7cab-a194-b2c3afbaf8e8","","null","<div style=""display: flex; justify-content: center; align-items: center;"">
                     <img src=""images/causal/causal_series_6/causal_series_6_b.png"" style=""width: 300px; height: 300px;"" />
                   </div>","null","6","1","B","",""
"","","","","","html-keyboard-response","127","632968","0.0-103.0","D8E5BB54CE4041CD8158E557CC204C4C","0199d5f2-07fd-71fa-b279-a065badb0ad9","0199d5ef-c7d4-7cab-a194-b2c3afbaf8e8","","null","<div style=""display: flex; justify-content: center; align-items: center;"">
                     <img src=""images/causal/causal_series_6/causal_series_6_c.png"" style=""width: 300px; height: 300px;"" />
                   </div>","null","6","1","C","",""
"","","","","","html-button-response","128","634785","0.0-104.0","D8E5BB54CE4041CD8158E557CC204C4C","0199d5f2-07fd-71fa-b279-a065badb0ad9","0199d5ef-c7d4-7cab-a194-b2c3afbaf8e8","","1815","
        <div style=""display: flex; justify-content: center; align-items: center;"">
          <img src=""images/red_deck_2.png"" style=""width: 300px; height: 300px; margin-right: 10px;"" />
          <img src=""images/blue_deck_1.png"" style=""width: 300px; height: 300px;"" />
        </div>","1","6","1","choice","1",""
"","","","","","html-keyboard-response","129","640792","0.0-105.0-1.0-0.0","D8E5BB54CE4041CD8158E557CC204C4C","0199d5f2-07fd-71fa-b279-a065badb0ad9","0199d5ef-c7d4-7cab-a194-b2c3afbaf8e8","","null","<div style=""display: flex; justify-content: center; align-items: center;"">
                     <img src=""images/semantic/semantic_series_6/semantic_series_6_d.png"" style=""width: 300px; height: 300px;"" />
                   </div>","null","6","1","D","",""
"","","","","","html-keyboard-response","130","646799","0.0-105.0-1.0-1.0","D8E5BB54CE4041CD8158E557CC204C4C","0199d5f2-07fd-71fa-b279-a065badb0ad9","0199d5ef-c7d4-7cab-a194-b2c3afbaf8e8","","null","<div style=""display: flex; justify-content: center; align-items: center;"">
                     <img src=""images/semantic/semantic_series_6/semantic_series_6_e.png"" style=""width: 300px; height: 300px;"" />
                   </div>","null","6","1","E","",""
"","","","","","html-keyboard-response","131","652805","0.0-105.0-1.0-2.0","D8E5BB54CE4041CD8158E557CC204C4C","0199d5f2-07fd-71fa-b279-a065badb0ad9","0199d5ef-c7d4-7cab-a194-b2c3afbaf8e8","","null","<div style=""display: flex; justify-content: center; align-items: center;"">
                     <img src=""images/semantic/semantic_series_6/semantic_series_6_f.png"" style=""width: 300px; height: 300px;"" />
                   </div>","null","6","1","F","",""
"","","","","","survey-likert","132","657918","0.0-106.0","D8E5BB54CE4041CD8158E557CC204C4C","0199d5f2-07fd-71fa-b279-a065badb0ad9","0199d5ef-c7d4-7cab-a194-b2c3afbaf8e8","","5112","","{""Q0"":1}","6","1","surprise_rating","","[0]"
"","","","","","survey-likert","133","660618","0.0-107.0","D8E5BB54CE4041CD8158E557CC204C4C","0199d5f2-07fd-71fa-b279-a065badb0ad9","0199d5ef-c7d4-7cab-a194-b2c3afbaf8e8","","2696","","{""Q0"":1}","6","1","enjoyment_rating","","[0]"
"","","","","","html-keyboard-response","134","666626","0.0-108.0","D8E5BB54CE4041CD8158E557CC204C4C","0199d5f2-07fd-71fa-b279-a065badb0ad9","0199d5ef-c7d4-7cab-a194-b2c3afbaf8e8","","null","<div style=""display: flex; justify-content: center; align-items: center;"">
                     <img src=""images/other/blank.png"" style=""width: 300px; height: 300px;"" />
                   </div>","null","0","0","blank","",""
"","","","","","html-keyboard-response","135","672890","0.0-109.0","D8E5BB54CE4041CD8158E557CC204C4C","0199d5f2-07fd-71fa-b279-a065badb0ad9","0199d5ef-c7d4-7cab-a194-b2c3afbaf8e8","","null","<div style=""display: flex; justify-content: center; align-items: center;"">
                     <img src=""images/causal/causal_series_4/causal_series_4_a.png"" style=""width: 300px; height: 300px;"" />
                   </div>","null","4","2","A","",""
"","","","","","html-keyboard-response","136","678896","0.0-110.0","D8E5BB54CE4041CD8158E557CC204C4C","0199d5f2-07fd-71fa-b279-a065badb0ad9","0199d5ef-c7d4-7cab-a194-b2c3afbaf8e8","","null","<div style=""display: flex; justify-content: center; align-items: center;"">
                     <img src=""images/causal/causal_series_4/causal_series_4_b.png"" style=""width: 300px; height: 300px;"" />
                   </div>","null","4","2","B","",""
"","","","","","html-keyboard-response","137","684902","0.0-111.0","D8E5BB54CE4041CD8158E557CC204C4C","0199d5f2-07fd-71fa-b279-a065badb0ad9","0199d5ef-c7d4-7cab-a194-b2c3afbaf8e8","","null","<div style=""display: flex; justify-content: center; align-items: center;"">
                     <img src=""images/causal/causal_series_4/causal_series_4_c.png"" style=""width: 300px; height: 300px;"" />
                   </div>","null","4","2","C","",""
"","","","","","html-button-response","138","686735","0.0-112.0","D8E5BB54CE4041CD8158E557CC204C4C","0199d5f2-07fd-71fa-b279-a065badb0ad9","0199d5ef-c7d4-7cab-a194-b2c3afbaf8e8","","1831","
        <div style=""display: flex; justify-content: center; align-items: center;"">
          <img src=""images/red_deck_2.png"" style=""width: 300px; height: 300px; margin-right: 10px;"" />
          <img src=""images/blue_deck_1.png"" style=""width: 300px; height: 300px;"" />
        </div>","0","4","2","choice","0",""
"","","","","","html-keyboard-response","139","692912","0.0-113.0-0.0-0.0","D8E5BB54CE4041CD8158E557CC204C4C","0199d5f2-07fd-71fa-b279-a065badb0ad9","0199d5ef-c7d4-7cab-a194-b2c3afbaf8e8","","null","<div style=""display: flex; justify-content: center; align-items: center;"">
                     <img src=""images/causal/causal_series_4/causal_series_4_d.png"" style=""width: 300px; height: 300px;"" />
                   </div>","null","4","2","D","",""
"","","","","","html-keyboard-response","140","698918","0.0-113.0-0.0-1.0","D8E5BB54CE4041CD8158E557CC204C4C","0199d5f2-07fd-71fa-b279-a065badb0ad9","0199d5ef-c7d4-7cab-a194-b2c3afbaf8e8","","null","<div style=""display: flex; justify-content: center; align-items: center;"">
                     <img src=""images/causal/causal_series_4/causal_series_4_e.png"" style=""width: 300px; height: 300px;"" />
                   </div>","null","4","2","E","",""
"","","","","","html-keyboard-response","141","704926","0.0-113.0-0.0-2.0","D8E5BB54CE4041CD8158E557CC204C4C","0199d5f2-07fd-71fa-b279-a065badb0ad9","0199d5ef-c7d4-7cab-a194-b2c3afbaf8e8","","null","<div style=""display: flex; justify-content: center; align-items: center;"">
                     <img src=""images/causal/causal_series_4/causal_series_4_f.png"" style=""width: 300px; height: 300px;"" />
                   </div>","null","4","2","F","",""
"","","","","","survey-likert","142","707651","0.0-114.0","D8E5BB54CE4041CD8158E557CC204C4C","0199d5f2-07fd-71fa-b279-a065badb0ad9","0199d5ef-c7d4-7cab-a194-b2c3afbaf8e8","","2723","","{""Q0"":2}","4","2","surprise_rating","","[0]"
"","","","","","survey-likert","143","709333","0.0-115.0","D8E5BB54CE4041CD8158E557CC204C4C","0199d5f2-07fd-71fa-b279-a065badb0ad9","0199d5ef-c7d4-7cab-a194-b2c3afbaf8e8","","1681","","{""Q0"":1}","4","2","enjoyment_rating","","[0]"
"","","","","","html-keyboard-response","144","715337","0.0-116.0","D8E5BB54CE4041CD8158E557CC204C4C","0199d5f2-07fd-71fa-b279-a065badb0ad9","0199d5ef-c7d4-7cab-a194-b2c3afbaf8e8","","null","<div style=""display: flex; justify-content: center; align-items: center;"">
                     <img src=""images/other/blank.png"" style=""width: 300px; height: 300px;"" />
                   </div>","null","0","0","blank","",""
"","","","","","html-keyboard-response","145","721394","0.0-117.0","D8E5BB54CE4041CD8158E557CC204C4C","0199d5f2-07fd-71fa-b279-a065badb0ad9","0199d5ef-c7d4-7cab-a194-b2c3afbaf8e8","","null","<div style=""display: flex; justify-content: center; align-items: center;"">
                     <img src=""images/causal/causal_series_7/causal_series_7_a.png"" style=""width: 300px; height: 300px;"" />
                   </div>","null","7","2","A","",""
"","","","","","html-keyboard-response","146","727404","0.0-118.0","D8E5BB54CE4041CD8158E557CC204C4C","0199d5f2-07fd-71fa-b279-a065badb0ad9","0199d5ef-c7d4-7cab-a194-b2c3afbaf8e8","","null","<div style=""display: flex; justify-content: center; align-items: center;"">
                     <img src=""images/causal/causal_series_7/causal_series_7_b.png"" style=""width: 300px; height: 300px;"" />
                   </div>","null","7","2","B","",""
"","","","","","html-keyboard-response","147","733535","0.0-119.0","D8E5BB54CE4041CD8158E557CC204C4C","0199d5f2-07fd-71fa-b279-a065badb0ad9","0199d5ef-c7d4-7cab-a194-b2c3afbaf8e8","","null","<div style=""display: flex; justify-content: center; align-items: center;"">
                     <img src=""images/causal/causal_series_7/causal_series_7_c.png"" style=""width: 300px; height: 300px;"" />
                   </div>","null","7","2","C","",""
"","","","","","html-button-response","148","734818","0.0-120.0","D8E5BB54CE4041CD8158E557CC204C4C","0199d5f2-07fd-71fa-b279-a065badb0ad9","0199d5ef-c7d4-7cab-a194-b2c3afbaf8e8","","1279","
        <div style=""display: flex; justify-content: center; align-items: center;"">
          <img src=""images/red_deck_2.png"" style=""width: 300px; height: 300px; margin-right: 10px;"" />
          <img src=""images/blue_deck_1.png"" style=""width: 300px; height: 300px;"" />
        </div>","1","7","2","choice","1",""
"","","","","","html-keyboard-response","149","740825","0.0-121.0-1.0-0.0","D8E5BB54CE4041CD8158E557CC204C4C","0199d5f2-07fd-71fa-b279-a065badb0ad9","0199d5ef-c7d4-7cab-a194-b2c3afbaf8e8","","null","<div style=""display: flex; justify-content: center; align-items: center;"">
                     <img src=""images/semantic/semantic_series_7/semantic_series_7_d.png"" style=""width: 300px; height: 300px;"" />
                   </div>","null","7","2","D","",""
"","","","","","html-keyboard-response","150","746832","0.0-121.0-1.0-1.0","D8E5BB54CE4041CD8158E557CC204C4C","0199d5f2-07fd-71fa-b279-a065badb0ad9","0199d5ef-c7d4-7cab-a194-b2c3afbaf8e8","","null","<div style=""display: flex; justify-content: center; align-items: center;"">
                     <img src=""images/semantic/semantic_series_7/semantic_series_7_e.png"" style=""width: 300px; height: 300px;"" />
                   </div>","null","7","2","E","",""
"","","","","","html-keyboard-response","151","752838","0.0-121.0-1.0-2.0","D8E5BB54CE4041CD8158E557CC204C4C","0199d5f2-07fd-71fa-b279-a065badb0ad9","0199d5ef-c7d4-7cab-a194-b2c3afbaf8e8","","null","<div style=""display: flex; justify-content: center; align-items: center;"">
                     <img src=""images/semantic/semantic_series_7/semantic_series_7_f.png"" style=""width: 300px; height: 300px;"" />
                   </div>","null","7","2","F","",""
"","","","","","survey-likert","152","757368","0.0-122.0","D8E5BB54CE4041CD8158E557CC204C4C","0199d5f2-07fd-71fa-b279-a065badb0ad9","0199d5ef-c7d4-7cab-a194-b2c3afbaf8e8","","4527","","{""Q0"":1}","7","2","surprise_rating","","[0]"
"","","","","","survey-likert","153","758800","0.0-123.0","D8E5BB54CE4041CD8158E557CC204C4C","0199d5f2-07fd-71fa-b279-a065badb0ad9","0199d5ef-c7d4-7cab-a194-b2c3afbaf8e8","","1430","","{""Q0"":1}","7","2","enjoyment_rating","","[0]"
"","","","","","html-keyboard-response","154","765381","0.0-124.0","D8E5BB54CE4041CD8158E557CC204C4C","0199d5f2-07fd-71fa-b279-a065badb0ad9","0199d5ef-c7d4-7cab-a194-b2c3afbaf8e8","","null","<div style=""display: flex; justify-content: center; align-items: center;"">
                     <img src=""images/other/blank.png"" style=""width: 300px; height: 300px;"" />
                   </div>","null","0","0","blank","",""
"","","","","","html-keyboard-response","155","771386","0.0-125.0","D8E5BB54CE4041CD8158E557CC204C4C","0199d5f2-07fd-71fa-b279-a065badb0ad9","0199d5ef-c7d4-7cab-a194-b2c3afbaf8e8","","null","<div style=""display: flex; justify-content: center; align-items: center;"">
                     <img src=""images/causal/causal_series_3/causal_series_3_a.png"" style=""width: 300px; height: 300px;"" />
                   </div>","null","3","1","A","",""
"","","","","","html-keyboard-response","156","777393","0.0-126.0","D8E5BB54CE4041CD8158E557CC204C4C","0199d5f2-07fd-71fa-b279-a065badb0ad9","0199d5ef-c7d4-7cab-a194-b2c3afbaf8e8","","null","<div style=""display: flex; justify-content: center; align-items: center;"">
                     <img src=""images/causal/causal_series_3/causal_series_3_b.png"" style=""width: 300px; height: 300px;"" />
                   </div>","null","3","1","B","",""
"","","","","","html-keyboard-response","157","783400","0.0-127.0","D8E5BB54CE4041CD8158E557CC204C4C","0199d5f2-07fd-71fa-b279-a065badb0ad9","0199d5ef-c7d4-7cab-a194-b2c3afbaf8e8","","null","<div style=""display: flex; justify-content: center; align-items: center;"">
                     <img src=""images/causal/causal_series_3/causal_series_3_c.png"" style=""width: 300px; height: 300px;"" />
                   </div>","null","3","1","C","",""
"","","","","","html-button-response","158","784750","0.0-128.0","D8E5BB54CE4041CD8158E557CC204C4C","0199d5f2-07fd-71fa-b279-a065badb0ad9","0199d5ef-c7d4-7cab-a194-b2c3afbaf8e8","","1345","
        <div style=""display: flex; justify-content: center; align-items: center;"">
          <img src=""images/red_deck_2.png"" style=""width: 300px; height: 300px; margin-right: 10px;"" />
          <img src=""images/blue_deck_1.png"" style=""width: 300px; height: 300px;"" />
        </div>","1","3","1","choice","1",""
"","","","","","html-keyboard-response","159","791479","0.0-129.0-1.0-0.0","D8E5BB54CE4041CD8158E557CC204C4C","0199d5f2-07fd-71fa-b279-a065badb0ad9","0199d5ef-c7d4-7cab-a194-b2c3afbaf8e8","","null","<div style=""display: flex; justify-content: center; align-items: center;"">
                     <img src=""images/semantic/semantic_series_3/semantic_series_3_d.png"" style=""width: 300px; height: 300px;"" />
                   </div>","null","3","1","D","",""
"","","","","","html-keyboard-response","160","797480","0.0-129.0-1.0-1.0","D8E5BB54CE4041CD8158E557CC204C4C","0199d5f2-07fd-71fa-b279-a065badb0ad9","0199d5ef-c7d4-7cab-a194-b2c3afbaf8e8","","null","<div style=""display: flex; justify-content: center; align-items: center;"">
                     <img src=""images/semantic/semantic_series_3/semantic_series_3_e.png"" style=""width: 300px; height: 300px;"" />
                   </div>","null","3","1","E","",""
"","","","","","html-keyboard-response","161","803595","0.0-129.0-1.0-2.0","D8E5BB54CE4041CD8158E557CC204C4C","0199d5f2-07fd-71fa-b279-a065badb0ad9","0199d5ef-c7d4-7cab-a194-b2c3afbaf8e8","","null","<div style=""display: flex; justify-content: center; align-items: center;"">
                     <img src=""images/semantic/semantic_series_3/semantic_series_3_f.png"" style=""width: 300px; height: 300px;"" />
                   </div>","null","3","1","F","",""
"","","","","","survey-likert","162","805918","0.0-130.0","D8E5BB54CE4041CD8158E557CC204C4C","0199d5f2-07fd-71fa-b279-a065badb0ad9","0199d5ef-c7d4-7cab-a194-b2c3afbaf8e8","","2320","","{""Q0"":1}","3","1","surprise_rating","","[0]"
"","","","","","survey-likert","163","807651","0.0-131.0","D8E5BB54CE4041CD8158E557CC204C4C","0199d5f2-07fd-71fa-b279-a065badb0ad9","0199d5ef-c7d4-7cab-a194-b2c3afbaf8e8","","1731","","{""Q0"":1}","3","1","enjoyment_rating","","[0]"
"","","","","","html-keyboard-response","164","813657","0.0-132.0","D8E5BB54CE4041CD8158E557CC204C4C","0199d5f2-07fd-71fa-b279-a065badb0ad9","0199d5ef-c7d4-7cab-a194-b2c3afbaf8e8","","null","<div style=""display: flex; justify-content: center; align-items: center;"">
                     <img src=""images/other/blank.png"" style=""width: 300px; height: 300px;"" />
                   </div>","null","0","0","blank","",""
"","","","","","html-keyboard-response","165","819682","0.0-133.0","D8E5BB54CE4041CD8158E557CC204C4C","0199d5f2-07fd-71fa-b279-a065badb0ad9","0199d5ef-c7d4-7cab-a194-b2c3afbaf8e8","","null","<div style=""display: flex; justify-content: center; align-items: center;"">
                     <img src=""images/causal/causal_series_10/causal_series_10_a.png"" style=""width: 300px; height: 300px;"" />
                   </div>","null","10","2","A","",""
"","","","","","html-keyboard-response","166","825689","0.0-134.0","D8E5BB54CE4041CD8158E557CC204C4C","0199d5f2-07fd-71fa-b279-a065badb0ad9","0199d5ef-c7d4-7cab-a194-b2c3afbaf8e8","","null","<div style=""display: flex; justify-content: center; align-items: center;"">
                     <img src=""images/causal/causal_series_10/causal_series_10_b.png"" style=""width: 300px; height: 300px;"" />
                   </div>","null","10","2","B","",""
"","","","","","html-keyboard-response","167","831693","0.0-135.0","D8E5BB54CE4041CD8158E557CC204C4C","0199d5f2-07fd-71fa-b279-a065badb0ad9","0199d5ef-c7d4-7cab-a194-b2c3afbaf8e8","","null","<div style=""display: flex; justify-content: center; align-items: center;"">
                     <img src=""images/causal/causal_series_10/causal_series_10_c.png"" style=""width: 300px; height: 300px;"" />
                   </div>","null","10","2","C","",""
"","","","","","html-button-response","168","833098","0.0-136.0","D8E5BB54CE4041CD8158E557CC204C4C","0199d5f2-07fd-71fa-b279-a065badb0ad9","0199d5ef-c7d4-7cab-a194-b2c3afbaf8e8","","1403","
        <div style=""display: flex; justify-content: center; align-items: center;"">
          <img src=""images/red_deck_2.png"" style=""width: 300px; height: 300px; margin-right: 10px;"" />
          <img src=""images/blue_deck_1.png"" style=""width: 300px; height: 300px;"" />
        </div>","1","10","2","choice","1",""
"","","","","","html-keyboard-response","169","839701","0.0-137.0-1.0-0.0","D8E5BB54CE4041CD8158E557CC204C4C","0199d5f2-07fd-71fa-b279-a065badb0ad9","0199d5ef-c7d4-7cab-a194-b2c3afbaf8e8","","null","<div style=""display: flex; justify-content: center; align-items: center;"">
                     <img src=""images/semantic/semantic_series_10/semantic_series_10_d.png"" style=""width: 300px; height: 300px;"" />
                   </div>","null","10","2","D","",""
"","","","","","html-keyboard-response","170","845708","0.0-137.0-1.0-1.0","D8E5BB54CE4041CD8158E557CC204C4C","0199d5f2-07fd-71fa-b279-a065badb0ad9","0199d5ef-c7d4-7cab-a194-b2c3afbaf8e8","","null","<div style=""display: flex; justify-content: center; align-items: center;"">
                     <img src=""images/semantic/semantic_series_10/semantic_series_10_e.png"" style=""width: 300px; height: 300px;"" />
                   </div>","null","10","2","E","",""
"","","","","","html-keyboard-response","171","851714","0.0-137.0-1.0-2.0","D8E5BB54CE4041CD8158E557CC204C4C","0199d5f2-07fd-71fa-b279-a065badb0ad9","0199d5ef-c7d4-7cab-a194-b2c3afbaf8e8","","null","<div style=""display: flex; justify-content: center; align-items: center;"">
                     <img src=""images/semantic/semantic_series_10/semantic_series_10_f.png"" style=""width: 300px; height: 300px;"" />
                   </div>","null","10","2","F","",""
"","","","","","survey-likert","172","854617","0.0-138.0","D8E5BB54CE4041CD8158E557CC204C4C","0199d5f2-07fd-71fa-b279-a065badb0ad9","0199d5ef-c7d4-7cab-a194-b2c3afbaf8e8","","2901","","{""Q0"":1}","10","2","surprise_rating","","[0]"
"","","","","","survey-likert","173","856234","0.0-139.0","D8E5BB54CE4041CD8158E557CC204C4C","0199d5f2-07fd-71fa-b279-a065badb0ad9","0199d5ef-c7d4-7cab-a194-b2c3afbaf8e8","","1613","","{""Q0"":3}","10","2","enjoyment_rating","","[0]"
"","","","","","html-keyboard-response","174","862241","0.0-140.0","D8E5BB54CE4041CD8158E557CC204C4C","0199d5f2-07fd-71fa-b279-a065badb0ad9","0199d5ef-c7d4-7cab-a194-b2c3afbaf8e8","","null","<div style=""display: flex; justify-content: center; align-items: center;"">
                     <img src=""images/other/blank.png"" style=""width: 300px; height: 300px;"" />
                   </div>","null","0","0","blank","",""
"","","","","","html-keyboard-response","175","868357","0.0-141.0","D8E5BB54CE4041CD8158E557CC204C4C","0199d5f2-07fd-71fa-b279-a065badb0ad9","0199d5ef-c7d4-7cab-a194-b2c3afbaf8e8","","null","<div style=""display: flex; justify-content: center; align-items: center;"">
                     <img src=""images/causal/causal_series_6/causal_series_6_a.png"" style=""width: 300px; height: 300px;"" />
                   </div>","null","6","2","A","",""
"","","","","","html-keyboard-response","176","874363","0.0-142.0","D8E5BB54CE4041CD8158E557CC204C4C","0199d5f2-07fd-71fa-b279-a065badb0ad9","0199d5ef-c7d4-7cab-a194-b2c3afbaf8e8","","null","<div style=""display: flex; justify-content: center; align-items: center;"">
                     <img src=""images/causal/causal_series_6/causal_series_6_b.png"" style=""width: 300px; height: 300px;"" />
                   </div>","null","6","2","B","",""
"","","","","","html-keyboard-response","177","880378","0.0-143.0","D8E5BB54CE4041CD8158E557CC204C4C","0199d5f2-07fd-71fa-b279-a065badb0ad9","0199d5ef-c7d4-7cab-a194-b2c3afbaf8e8","","null","<div style=""display: flex; justify-content: center; align-items: center;"">
                     <img src=""images/causal/causal_series_6/causal_series_6_c.png"" style=""width: 300px; height: 300px;"" />
                   </div>","null","6","2","C","",""
"","","","","","html-button-response","178","882099","0.0-144.0","D8E5BB54CE4041CD8158E557CC204C4C","0199d5f2-07fd-71fa-b279-a065badb0ad9","0199d5ef-c7d4-7cab-a194-b2c3afbaf8e8","","1720","
        <div style=""display: flex; justify-content: center; align-items: center;"">
          <img src=""images/red_deck_2.png"" style=""width: 300px; height: 300px; margin-right: 10px;"" />
          <img src=""images/blue_deck_1.png"" style=""width: 300px; height: 300px;"" />
        </div>","1","6","2","choice","1",""
"","","","","","html-keyboard-response","179","888107","0.0-145.0-1.0-0.0","D8E5BB54CE4041CD8158E557CC204C4C","0199d5f2-07fd-71fa-b279-a065badb0ad9","0199d5ef-c7d4-7cab-a194-b2c3afbaf8e8","","null","<div style=""display: flex; justify-content: center; align-items: center;"">
                     <img src=""images/semantic/semantic_series_6/semantic_series_6_d.png"" style=""width: 300px; height: 300px;"" />
                   </div>","null","6","2","D","",""
"","","","","","html-keyboard-response","180","894113","0.0-145.0-1.0-1.0","D8E5BB54CE4041CD8158E557CC204C4C","0199d5f2-07fd-71fa-b279-a065badb0ad9","0199d5ef-c7d4-7cab-a194-b2c3afbaf8e8","","null","<div style=""display: flex; justify-content: center; align-items: center;"">
                     <img src=""images/semantic/semantic_series_6/semantic_series_6_e.png"" style=""width: 300px; height: 300px;"" />
                   </div>","null","6","2","E","",""
"","","","","","html-keyboard-response","181","900120","0.0-145.0-1.0-2.0","D8E5BB54CE4041CD8158E557CC204C4C","0199d5f2-07fd-71fa-b279-a065badb0ad9","0199d5ef-c7d4-7cab-a194-b2c3afbaf8e8","","null","<div style=""display: flex; justify-content: center; align-items: center;"">
                     <img src=""images/semantic/semantic_series_6/semantic_series_6_f.png"" style=""width: 300px; height: 300px;"" />
                   </div>","null","6","2","F","",""
"","","","","","survey-likert","182","907666","0.0-146.0","D8E5BB54CE4041CD8158E557CC204C4C","0199d5f2-07fd-71fa-b279-a065badb0ad9","0199d5ef-c7d4-7cab-a194-b2c3afbaf8e8","","7545","","{""Q0"":1}","6","2","surprise_rating","","[0]"
"","","","","","survey-likert","183","908766","0.0-147.0","D8E5BB54CE4041CD8158E557CC204C4C","0199d5f2-07fd-71fa-b279-a065badb0ad9","0199d5ef-c7d4-7cab-a194-b2c3afbaf8e8","","1097","","{""Q0"":1}","6","2","enjoyment_rating","","[0]"
"","","","","","html-keyboard-response","184","914773","0.0-148.0","D8E5BB54CE4041CD8158E557CC204C4C","0199d5f2-07fd-71fa-b279-a065badb0ad9","0199d5ef-c7d4-7cab-a194-b2c3afbaf8e8","","null","<div style=""display: flex; justify-content: center; align-items: center;"">
                     <img src=""images/other/blank.png"" style=""width: 300px; height: 300px;"" />
                   </div>","null","0","0","blank","",""
"","","","","","html-keyboard-response","185","921279","0.0-149.0","D8E5BB54CE4041CD8158E557CC204C4C","0199d5f2-07fd-71fa-b279-a065badb0ad9","0199d5ef-c7d4-7cab-a194-b2c3afbaf8e8","","null","<div style=""display: flex; justify-content: center; align-items: center;"">
                     <img src=""images/causal/causal_series_2/causal_series_2_a.png"" style=""width: 300px; height: 300px;"" />
                   </div>","null","2","2","A","",""
"","","","","","html-keyboard-response","186","927318","0.0-150.0","D8E5BB54CE4041CD8158E557CC204C4C","0199d5f2-07fd-71fa-b279-a065badb0ad9","0199d5ef-c7d4-7cab-a194-b2c3afbaf8e8","","null","<div style=""display: flex; justify-content: center; align-items: center;"">
                     <img src=""images/causal/causal_series_2/causal_series_2_b.png"" style=""width: 300px; height: 300px;"" />
                   </div>","null","2","2","B","",""
"","","","","","html-keyboard-response","187","933326","0.0-151.0","D8E5BB54CE4041CD8158E557CC204C4C","0199d5f2-07fd-71fa-b279-a065badb0ad9","0199d5ef-c7d4-7cab-a194-b2c3afbaf8e8","","null","<div style=""display: flex; justify-content: center; align-items: center;"">
                     <img src=""images/causal/causal_series_2/causal_series_2_c.png"" style=""width: 300px; height: 300px;"" />
                   </div>","null","2","2","C","",""
"","","","","","html-button-response","188","933967","0.0-152.0","D8E5BB54CE4041CD8158E557CC204C4C","0199d5f2-07fd-71fa-b279-a065badb0ad9","0199d5ef-c7d4-7cab-a194-b2c3afbaf8e8","","638","
        <div style=""display: flex; justify-content: center; align-items: center;"">
          <img src=""images/red_deck_2.png"" style=""width: 300px; height: 300px; margin-right: 10px;"" />
          <img src=""images/blue_deck_1.png"" style=""width: 300px; height: 300px;"" />
        </div>","0","2","2","choice","0",""
"","","","","","html-keyboard-response","189","939973","0.0-153.0-0.0-0.0","D8E5BB54CE4041CD8158E557CC204C4C","0199d5f2-07fd-71fa-b279-a065badb0ad9","0199d5ef-c7d4-7cab-a194-b2c3afbaf8e8","","null","<div style=""display: flex; justify-content: center; align-items: center;"">
                     <img src=""images/causal/causal_series_2/causal_series_2_d.png"" style=""width: 300px; height: 300px;"" />
                   </div>","null","2","2","D","",""
"","","","","","html-keyboard-response","190","945975","0.0-153.0-0.0-1.0","D8E5BB54CE4041CD8158E557CC204C4C","0199d5f2-07fd-71fa-b279-a065badb0ad9","0199d5ef-c7d4-7cab-a194-b2c3afbaf8e8","","null","<div style=""display: flex; justify-content: center; align-items: center;"">
                     <img src=""images/causal/causal_series_2/causal_series_2_e.png"" style=""width: 300px; height: 300px;"" />
                   </div>","null","2","2","E","",""
"","","","","","html-keyboard-response","191","951981","0.0-153.0-0.0-2.0","D8E5BB54CE4041CD8158E557CC204C4C","0199d5f2-07fd-71fa-b279-a065badb0ad9","0199d5ef-c7d4-7cab-a194-b2c3afbaf8e8","","null","<div style=""display: flex; justify-content: center; align-items: center;"">
                     <img src=""images/causal/causal_series_2/causal_series_2_f.png"" style=""width: 300px; height: 300px;"" />
                   </div>","null","2","2","F","",""
"","","","","","survey-likert","192","954847","0.0-154.0","D8E5BB54CE4041CD8158E557CC204C4C","0199d5f2-07fd-71fa-b279-a065badb0ad9","0199d5ef-c7d4-7cab-a194-b2c3afbaf8e8","","2864","","{""Q0"":3}","2","2","surprise_rating","","[0]"
"","","","","","survey-likert","193","956148","0.0-155.0","D8E5BB54CE4041CD8158E557CC204C4C","0199d5f2-07fd-71fa-b279-a065badb0ad9","0199d5ef-c7d4-7cab-a194-b2c3afbaf8e8","","1298","","{""Q0"":2}","2","2","enjoyment_rating","","[0]"
"","","","","","html-keyboard-response","194","962355","0.0-156.0","D8E5BB54CE4041CD8158E557CC204C4C","0199d5f2-07fd-71fa-b279-a065badb0ad9","0199d5ef-c7d4-7cab-a194-b2c3afbaf8e8","","null","<div style=""display: flex; justify-content: center; align-items: center;"">
                     <img src=""images/other/blank.png"" style=""width: 300px; height: 300px;"" />
                   </div>","null","0","0","blank","",""
"","","","","","html-keyboard-response","195","968568","0.0-157.0","D8E5BB54CE4041CD8158E557CC204C4C","0199d5f2-07fd-71fa-b279-a065badb0ad9","0199d5ef-c7d4-7cab-a194-b2c3afbaf8e8","","null","<div style=""display: flex; justify-content: center; align-items: center;"">
                     <img src=""images/causal/causal_series_8/causal_series_8_a.png"" style=""width: 300px; height: 300px;"" />
                   </div>","null","8","2","A","",""
"","","","","","html-keyboard-response","196","974779","0.0-158.0","D8E5BB54CE4041CD8158E557CC204C4C","0199d5f2-07fd-71fa-b279-a065badb0ad9","0199d5ef-c7d4-7cab-a194-b2c3afbaf8e8","","null","<div style=""display: flex; justify-content: center; align-items: center;"">
                     <img src=""images/causal/causal_series_8/causal_series_8_b.png"" style=""width: 300px; height: 300px;"" />
                   </div>","null","8","2","B","",""
"","","","","","html-keyboard-response","197","980786","0.0-159.0","D8E5BB54CE4041CD8158E557CC204C4C","0199d5f2-07fd-71fa-b279-a065badb0ad9","0199d5ef-c7d4-7cab-a194-b2c3afbaf8e8","","null","<div style=""display: flex; justify-content: center; align-items: center;"">
                     <img src=""images/causal/causal_series_8/causal_series_8_c.png"" style=""width: 300px; height: 300px;"" />
                   </div>","null","8","2","C","",""
"","","","","","html-button-response","198","983183","0.0-160.0","D8E5BB54CE4041CD8158E557CC204C4C","0199d5f2-07fd-71fa-b279-a065badb0ad9","0199d5ef-c7d4-7cab-a194-b2c3afbaf8e8","","2394","
        <div style=""display: flex; justify-content: center; align-items: center;"">
          <img src=""images/red_deck_2.png"" style=""width: 300px; height: 300px; margin-right: 10px;"" />
          <img src=""images/blue_deck_1.png"" style=""width: 300px; height: 300px;"" />
        </div>","1","8","2","choice","1",""
"","","","","","html-keyboard-response","199","989801","0.0-161.0-1.0-0.0","D8E5BB54CE4041CD8158E557CC204C4C","0199d5f2-07fd-71fa-b279-a065badb0ad9","0199d5ef-c7d4-7cab-a194-b2c3afbaf8e8","","null","<div style=""display: flex; justify-content: center; align-items: center;"">
                     <img src=""images/semantic/semantic_series_8/semantic_series_8_d.png"" style=""width: 300px; height: 300px;"" />
                   </div>","null","8","2","D","",""
"","","","","","html-keyboard-response","200","995807","0.0-161.0-1.0-1.0","D8E5BB54CE4041CD8158E557CC204C4C","0199d5f2-07fd-71fa-b279-a065badb0ad9","0199d5ef-c7d4-7cab-a194-b2c3afbaf8e8","","null","<div style=""display: flex; justify-content: center; align-items: center;"">
                     <img src=""images/semantic/semantic_series_8/semantic_series_8_e.png"" style=""width: 300px; height: 300px;"" />
                   </div>","null","8","2","E","",""
"","","","","","html-keyboard-response","201","1001813","0.0-161.0-1.0-2.0","D8E5BB54CE4041CD8158E557CC204C4C","0199d5f2-07fd-71fa-b279-a065badb0ad9","0199d5ef-c7d4-7cab-a194-b2c3afbaf8e8","","null","<div style=""display: flex; justify-content: center; align-items: center;"">
                     <img src=""images/semantic/semantic_series_8/semantic_series_8_f.png"" style=""width: 300px; height: 300px;"" />
                   </div>","null","8","2","F","",""
"","","","","","survey-likert","202","1012899","0.0-162.0","D8E5BB54CE4041CD8158E557CC204C4C","0199d5f2-07fd-71fa-b279-a065badb0ad9","0199d5ef-c7d4-7cab-a194-b2c3afbaf8e8","","11084","","{""Q0"":1}","8","2","surprise_rating","","[0]"
"","","","","","survey-likert","203","1014616","0.0-163.0","D8E5BB54CE4041CD8158E557CC204C4C","0199d5f2-07fd-71fa-b279-a065badb0ad9","0199d5ef-c7d4-7cab-a194-b2c3afbaf8e8","","1713","","{""Q0"":2}","8","2","enjoyment_rating","","[0]"
"","","","","","html-keyboard-response","204","1020878","0.0-164.0","D8E5BB54CE4041CD8158E557CC204C4C","0199d5f2-07fd-71fa-b279-a065badb0ad9","0199d5ef-c7d4-7cab-a194-b2c3afbaf8e8","","null","<div style=""display: flex; justify-content: center; align-items: center;"">
                     <img src=""images/other/blank.png"" style=""width: 300px; height: 300px;"" />
                   </div>","null","0","0","blank","",""
"","","","","","survey-text","205","1057866","0.0-165.0","D8E5BB54CE4041CD8158E557CC204C4C","0199d5f2-07fd-71fa-b279-a065badb0ad9","0199d5ef-c7d4-7cab-a194-b2c3afbaf8e8","","36944","","{""Q0"":""One is a bit more fantasy and the other is more comedic""}","","","","",""
"","","","","","html-button-response","206","1063282","0.0-166.0","D8E5BB54CE4041CD8158E557CC204C4C","0199d5f2-07fd-71fa-b279-a065badb0ad9","0199d5ef-c7d4-7cab-a194-b2c3afbaf8e8","","5412","Which color deck do the following sentences continue the story from?","1","","","","",""
"","","","","","html-button-response","207","1064915","0.0-167.0","D8E5BB54CE4041CD8158E557CC204C4C","0199d5f2-07fd-71fa-b279-a065badb0ad9","0199d5ef-c7d4-7cab-a194-b2c3afbaf8e8","","1630","Which color deck do the following sentences NOT follow the story from?","0","","","","",""
"","","","","","html-button-response","208","1068315","0.0-168.0","D8E5BB54CE4041CD8158E557CC204C4C","0199d5f2-07fd-71fa-b279-a065badb0ad9","0199d5ef-c7d4-7cab-a194-b2c3afbaf8e8","","3398","Which type of deck did you prefer overall?","0","","","","",""
"","","","","","survey-text","209","1072215","0.0-169.0","D8E5BB54CE4041CD8158E557CC204C4C","0199d5f2-07fd-71fa-b279-a065badb0ad9","0199d5ef-c7d4-7cab-a194-b2c3afbaf8e8","","3887","","{""Q0"":""Male"",""Q1"":""33""}","","","","",""
"","","","","","instructions","210","1074263","0.0-170.0","D8E5BB54CE4041CD8158E557CC204C4C","0199d5f2-07fd-71fa-b279-a065badb0ad9","0199d5ef-c7d4-7cab-a194-b2c3afbaf8e8","[{""page_index"":0,""viewing_time"":2047}]","2047","","","","","","",""
