"success","timeout","failed_images","failed_audio","failed_video","trial_type","trial_index","time_elapsed","internal_node_id","subject_id","study_id","session_id","view_history","rt","stimulus","response","choice","question_order"
"true","false","[]","[]","[]","preload","0","1230","0.0-0.0","D3DE68FE1D5E4C4F8DE6C0AD3B0D30FD","0199d03d-7019-7a65-b271-a6659641df7b","0199d03a-64b5-7588-a054-13255d1a32c0","","","","","",""
"","","","","","instructions","1","10158","0.0-1.0","D3DE68FE1D5E4C4F8DE6C0AD3B0D30FD","0199d03d-7019-7a65-b271-a6659641df7b","0199d03a-64b5-7588-a054-13255d1a32c0","[{""page_index"":0,""viewing_time"":8927}]","8927","","","",""
"","","","","","instructions","2","12885","0.0-2.0","D3DE68FE1D5E4C4F8DE6C0AD3B0D30FD","0199d03d-7019-7a65-b271-a6659641df7b","0199d03a-64b5-7588-a054-13255d1a32c0","[{""page_index"":0,""viewing_time"":2727}]","2727","","","",""
"true","","","","","fullscreen","3","16115","0.0-3.0","D3DE68FE1D5E4C4F8DE6C0AD3B0D30FD","0199d03d-7019-7a65-b271-a6659641df7b","0199d03a-64b5-7588-a054-13255d1a32c0","","2223","","","",""
"","","","","","instructions","4","28254","0.0-4.0","D3DE68FE1D5E4C4F8DE6C0AD3B0D30FD","0199d03d-7019-7a65-b271-a6659641df7b","0199d03a-64b5-7588-a054-13255d1a32c0","[{""page_index"":0,""viewing_time"":12139}]","12139","","","",""
"","","","","","html-keyboard-response","5","35262","0.0-5.0","D3DE68FE1D5E4C4F8DE6C0AD3B0D30FD","0199d03d-7019-7a65-b271-a6659641df7b","0199d03a-64b5-7588-a054-13255d1a32c0","","null","<div style=""display: flex; justify-content: center; align-items: center;"">
                     <img src=""images/causal/causal_series_1/causal_series_1_a.png"" style=""width: 300px; height: 300px;"" />
                   </div>","null","",""
"","","","","","html-keyboard-response","6","42274","0.0-6.0","D3DE68FE1D5E4C4F8DE6C0AD3B0D30FD","0199d03d-7019-7a65-b271-a6659641df7b","0199d03a-64b5-7588-a054-13255d1a32c0","","null","<div style=""display: flex; justify-content: center; align-items: center;"">
                     <img src=""images/causal/causal_series_1/causal_series_1_b.png"" style=""width: 300px; height: 300px;"" />
                   </div>","null","",""
"","","","","","html-keyboard-response","7","49287","0.0-7.0","D3DE68FE1D5E4C4F8DE6C0AD3B0D30FD","0199d03d-7019-7a65-b271-a6659641df7b","0199d03a-64b5-7588-a054-13255d1a32c0","","null","<div style=""display: flex; justify-content: center; align-items: center;"">
                     <img src=""images/causal/causal_series_1/causal_series_1_c.png"" style=""width: 300px; height: 300px;"" />
                   </div>","null","",""
"","","","","","html-button-response","8","51158","0.0-8.0","D3DE68FE1D5E4C4F8DE6C0AD3B0D30FD","0199d03d-7019-7a65-b271-a6659641df7b","0199d03a-64b5-7588-a054-13255d1a32c0","","1870","
        <div style=""display: flex; justify-content: center; align-items: center;"">
          <img src=""images/red_deck_2.png"" style=""width: 300px; height: 300px; margin-right: 10px;"" />
          <img src=""images/blue_deck_1.png"" style=""width: 300px; height: 300px;"" />
        </div>","1","1",""
"","","","","","html-keyboard-response","9","58165","0.0-9.0-1.0-0.0","D3DE68FE1D5E4C4F8DE6C0AD3B0D30FD","0199d03d-7019-7a65-b271-a6659641df7b","0199d03a-64b5-7588-a054-13255d1a32c0","","null","<div style=""display: flex; justify-content: center; align-items: center;"">
                     <img src=""images/semantic/semantic_series_1/semantic_series_1_d.png"" style=""width: 300px; height: 300px;"" />
                   </div>","null","",""
"","","","","","survey-likert","10","64294","0.0-10.0","D3DE68FE1D5E4C4F8DE6C0AD3B0D30FD","0199d03d-7019-7a65-b271-a6659641df7b","0199d03a-64b5-7588-a054-13255d1a32c0","","6123","","{""Q0"":1}","","[0]"
"","","","","","survey-likert","11","67358","0.0-11.0","D3DE68FE1D5E4C4F8DE6C0AD3B0D30FD","0199d03d-7019-7a65-b271-a6659641df7b","0199d03a-64b5-7588-a054-13255d1a32c0","","3064","","{""Q0"":2}","","[0]"
"","","","","","html-keyboard-response","12","74375","0.0-12.0","D3DE68FE1D5E4C4F8DE6C0AD3B0D30FD","0199d03d-7019-7a65-b271-a6659641df7b","0199d03a-64b5-7588-a054-13255d1a32c0","","null","<div style=""display: flex; justify-content: center; align-items: center;"">
                     <img src=""images/other/blank.png"" style=""width: 300px; height: 300px;"" />
                   </div>","null","",""
"","","","","","html-keyboard-response","13","81384","0.0-13.0","D3DE68FE1D5E4C4F8DE6C0AD3B0D30FD","0199d03d-7019-7a65-b271-a6659641df7b","0199d03a-64b5-7588-a054-13255d1a32c0","","null","<div style=""display: flex; justify-content: center; align-items: center;"">
                     <img src=""images/causal/causal_series_10/causal_series_10_a.png"" style=""width: 300px; height: 300px;"" />
                   </div>","null","",""
"","","","","","html-keyboard-response","14","88388","0.0-14.0","D3DE68FE1D5E4C4F8DE6C0AD3B0D30FD","0199d03d-7019-7a65-b271-a6659641df7b","0199d03a-64b5-7588-a054-13255d1a32c0","","null","<div style=""display: flex; justify-content: center; align-items: center;"">
                     <img src=""images/causal/causal_series_10/causal_series_10_b.png"" style=""width: 300px; height: 300px;"" />
                   </div>","null","",""
"","","","","","html-keyboard-response","15","95394","0.0-15.0","D3DE68FE1D5E4C4F8DE6C0AD3B0D30FD","0199d03d-7019-7a65-b271-a6659641df7b","0199d03a-64b5-7588-a054-13255d1a32c0","","null","<div style=""display: flex; justify-content: center; align-items: center;"">
                     <img src=""images/causal/causal_series_10/causal_series_10_c.png"" style=""width: 300px; height: 300px;"" />
                   </div>","null","",""
"","","","","","html-button-response","16","96621","0.0-16.0","D3DE68FE1D5E4C4F8DE6C0AD3B0D30FD","0199d03d-7019-7a65-b271-a6659641df7b","0199d03a-64b5-7588-a054-13255d1a32c0","","1227","
        <div style=""display: flex; justify-content: center; align-items: center;"">
          <img src=""images/red_deck_2.png"" style=""width: 300px; height: 300px; margin-right: 10px;"" />
          <img src=""images/blue_deck_1.png"" style=""width: 300px; height: 300px;"" />
        </div>","0","0",""
"","","","","","html-keyboard-response","17","103629","0.0-17.0-0.0-0.0","D3DE68FE1D5E4C4F8DE6C0AD3B0D30FD","0199d03d-7019-7a65-b271-a6659641df7b","0199d03a-64b5-7588-a054-13255d1a32c0","","null","<div style=""display: flex; justify-content: center; align-items: center;"">
                     <img src=""images/causal/causal_series_10/causal_series_10_d.png"" style=""width: 300px; height: 300px;"" />
                   </div>","null","",""
"","","","","","survey-likert","18","106469","0.0-18.0","D3DE68FE1D5E4C4F8DE6C0AD3B0D30FD","0199d03d-7019-7a65-b271-a6659641df7b","0199d03a-64b5-7588-a054-13255d1a32c0","","2840","","{""Q0"":4}","","[0]"
"","","","","","survey-likert","19","108574","0.0-19.0","D3DE68FE1D5E4C4F8DE6C0AD3B0D30FD","0199d03d-7019-7a65-b271-a6659641df7b","0199d03a-64b5-7588-a054-13255d1a32c0","","2104","","{""Q0"":3}","","[0]"
"","","","","","html-keyboard-response","20","115585","0.0-20.0","D3DE68FE1D5E4C4F8DE6C0AD3B0D30FD","0199d03d-7019-7a65-b271-a6659641df7b","0199d03a-64b5-7588-a054-13255d1a32c0","","null","<div style=""display: flex; justify-content: center; align-items: center;"">
                     <img src=""images/other/blank.png"" style=""width: 300px; height: 300px;"" />
                   </div>","null","",""
"","","","","","html-keyboard-response","21","122596","0.0-21.0","D3DE68FE1D5E4C4F8DE6C0AD3B0D30FD","0199d03d-7019-7a65-b271-a6659641df7b","0199d03a-64b5-7588-a054-13255d1a32c0","","null","<div style=""display: flex; justify-content: center; align-items: center;"">
                     <img src=""images/causal/causal_series_9/causal_series_9_a.png"" style=""width: 300px; height: 300px;"" />
                   </div>","null","",""
"","","","","","html-keyboard-response","22","129601","0.0-22.0","D3DE68FE1D5E4C4F8DE6C0AD3B0D30FD","0199d03d-7019-7a65-b271-a6659641df7b","0199d03a-64b5-7588-a054-13255d1a32c0","","null","<div style=""display: flex; justify-content: center; align-items: center;"">
                     <img src=""images/causal/causal_series_9/causal_series_9_b.png"" style=""width: 300px; height: 300px;"" />
                   </div>","null","",""
"","","","","","html-keyboard-response","23","136608","0.0-23.0","D3DE68FE1D5E4C4F8DE6C0AD3B0D30FD","0199d03d-7019-7a65-b271-a6659641df7b","0199d03a-64b5-7588-a054-13255d1a32c0","","null","<div style=""display: flex; justify-content: center; align-items: center;"">
                     <img src=""images/causal/causal_series_9/causal_series_9_c.png"" style=""width: 300px; height: 300px;"" />
                   </div>","null","",""
"","","","","","html-button-response","24","137894","0.0-24.0","D3DE68FE1D5E4C4F8DE6C0AD3B0D30FD","0199d03d-7019-7a65-b271-a6659641df7b","0199d03a-64b5-7588-a054-13255d1a32c0","","1286","
        <div style=""display: flex; justify-content: center; align-items: center;"">
          <img src=""images/red_deck_2.png"" style=""width: 300px; height: 300px; margin-right: 10px;"" />
          <img src=""images/blue_deck_1.png"" style=""width: 300px; height: 300px;"" />
        </div>","1","1",""
"","","","","","html-keyboard-response","25","144907","0.0-25.0-1.0-0.0","D3DE68FE1D5E4C4F8DE6C0AD3B0D30FD","0199d03d-7019-7a65-b271-a6659641df7b","0199d03a-64b5-7588-a054-13255d1a32c0","","null","<div style=""display: flex; justify-content: center; align-items: center;"">
                     <img src=""images/semantic/semantic_series_9/semantic_series_9_d.png"" style=""width: 300px; height: 300px;"" />
                   </div>","null","",""
"","","","","","survey-likert","26","146958","0.0-26.0","D3DE68FE1D5E4C4F8DE6C0AD3B0D30FD","0199d03d-7019-7a65-b271-a6659641df7b","0199d03a-64b5-7588-a054-13255d1a32c0","","2050","","{""Q0"":2}","","[0]"
"","","","","","survey-likert","27","149582","0.0-27.0","D3DE68FE1D5E4C4F8DE6C0AD3B0D30FD","0199d03d-7019-7a65-b271-a6659641df7b","0199d03a-64b5-7588-a054-13255d1a32c0","","2623","","{""Q0"":1}","","[0]"
"","","","","","html-keyboard-response","28","156594","0.0-28.0","D3DE68FE1D5E4C4F8DE6C0AD3B0D30FD","0199d03d-7019-7a65-b271-a6659641df7b","0199d03a-64b5-7588-a054-13255d1a32c0","","null","<div style=""display: flex; justify-content: center; align-items: center;"">
                     <img src=""images/other/blank.png"" style=""width: 300px; height: 300px;"" />
                   </div>","null","",""
"","","","","","html-keyboard-response","29","163601","0.0-29.0","D3DE68FE1D5E4C4F8DE6C0AD3B0D30FD","0199d03d-7019-7a65-b271-a6659641df7b","0199d03a-64b5-7588-a054-13255d1a32c0","","null","<div style=""display: flex; justify-content: center; align-items: center;"">
                     <img src=""images/causal/causal_series_7/causal_series_7_a.png"" style=""width: 300px; height: 300px;"" />
                   </div>","null","",""
"","","","","","html-keyboard-response","30","170616","0.0-30.0","D3DE68FE1D5E4C4F8DE6C0AD3B0D30FD","0199d03d-7019-7a65-b271-a6659641df7b","0199d03a-64b5-7588-a054-13255d1a32c0","","null","<div style=""display: flex; justify-content: center; align-items: center;"">
                     <img src=""images/causal/causal_series_7/causal_series_7_b.png"" style=""width: 300px; height: 300px;"" />
                   </div>","null","",""
"","","","","","html-keyboard-response","31","177627","0.0-31.0","D3DE68FE1D5E4C4F8DE6C0AD3B0D30FD","0199d03d-7019-7a65-b271-a6659641df7b","0199d03a-64b5-7588-a054-13255d1a32c0","","null","<div style=""display: flex; justify-content: center; align-items: center;"">
                     <img src=""images/causal/causal_series_7/causal_series_7_c.png"" style=""width: 300px; height: 300px;"" />
                   </div>","null","",""
"","","","","","html-button-response","32","178598","0.0-32.0","D3DE68FE1D5E4C4F8DE6C0AD3B0D30FD","0199d03d-7019-7a65-b271-a6659641df7b","0199d03a-64b5-7588-a054-13255d1a32c0","","971","
        <div style=""display: flex; justify-content: center; align-items: center;"">
          <img src=""images/red_deck_2.png"" style=""width: 300px; height: 300px; margin-right: 10px;"" />
          <img src=""images/blue_deck_1.png"" style=""width: 300px; height: 300px;"" />
        </div>","1","1",""
"","","","","","html-keyboard-response","33","185601","0.0-33.0-1.0-0.0","D3DE68FE1D5E4C4F8DE6C0AD3B0D30FD","0199d03d-7019-7a65-b271-a6659641df7b","0199d03a-64b5-7588-a054-13255d1a32c0","","null","<div style=""display: flex; justify-content: center; align-items: center;"">
                     <img src=""images/semantic/semantic_series_7/semantic_series_7_d.png"" style=""width: 300px; height: 300px;"" />
                   </div>","null","",""
"","","","","","survey-likert","34","190197","0.0-34.0","D3DE68FE1D5E4C4F8DE6C0AD3B0D30FD","0199d03d-7019-7a65-b271-a6659641df7b","0199d03a-64b5-7588-a054-13255d1a32c0","","4595","","{""Q0"":3}","","[0]"
"","","","","","survey-likert","35","192854","0.0-35.0","D3DE68FE1D5E4C4F8DE6C0AD3B0D30FD","0199d03d-7019-7a65-b271-a6659641df7b","0199d03a-64b5-7588-a054-13255d1a32c0","","2656","","{""Q0"":3}","","[0]"
"","","","","","html-keyboard-response","36","199860","0.0-36.0","D3DE68FE1D5E4C4F8DE6C0AD3B0D30FD","0199d03d-7019-7a65-b271-a6659641df7b","0199d03a-64b5-7588-a054-13255d1a32c0","","null","<div style=""display: flex; justify-content: center; align-items: center;"">
                     <img src=""images/other/blank.png"" style=""width: 300px; height: 300px;"" />
                   </div>","null","",""
"","","","","","html-keyboard-response","37","206874","0.0-37.0","D3DE68FE1D5E4C4F8DE6C0AD3B0D30FD","0199d03d-7019-7a65-b271-a6659641df7b","0199d03a-64b5-7588-a054-13255d1a32c0","","null","<div style=""display: flex; justify-content: center; align-items: center;"">
                     <img src=""images/causal/causal_series_4/causal_series_4_a.png"" style=""width: 300px; height: 300px;"" />
                   </div>","null","",""
"","","","","","html-keyboard-response","38","213877","0.0-38.0","D3DE68FE1D5E4C4F8DE6C0AD3B0D30FD","0199d03d-7019-7a65-b271-a6659641df7b","0199d03a-64b5-7588-a054-13255d1a32c0","","null","<div style=""display: flex; justify-content: center; align-items: center;"">
                     <img src=""images/causal/causal_series_4/causal_series_4_b.png"" style=""width: 300px; height: 300px;"" />
                   </div>","null","",""
"","","","","","html-keyboard-response","39","220891","0.0-39.0","D3DE68FE1D5E4C4F8DE6C0AD3B0D30FD","0199d03d-7019-7a65-b271-a6659641df7b","0199d03a-64b5-7588-a054-13255d1a32c0","","null","<div style=""display: flex; justify-content: center; align-items: center;"">
                     <img src=""images/causal/causal_series_4/causal_series_4_c.png"" style=""width: 300px; height: 300px;"" />
                   </div>","null","",""
"","","","","","html-button-response","40","222086","0.0-40.0","D3DE68FE1D5E4C4F8DE6C0AD3B0D30FD","0199d03d-7019-7a65-b271-a6659641df7b","0199d03a-64b5-7588-a054-13255d1a32c0","","1194","
        <div style=""display: flex; justify-content: center; align-items: center;"">
          <img src=""images/red_deck_2.png"" style=""width: 300px; height: 300px; margin-right: 10px;"" />
          <img src=""images/blue_deck_1.png"" style=""width: 300px; height: 300px;"" />
        </div>","1","1",""
"","","","","","html-keyboard-response","41","229088","0.0-41.0-1.0-0.0","D3DE68FE1D5E4C4F8DE6C0AD3B0D30FD","0199d03d-7019-7a65-b271-a6659641df7b","0199d03a-64b5-7588-a054-13255d1a32c0","","null","<div style=""display: flex; justify-content: center; align-items: center;"">
                     <img src=""images/semantic/semantic_series_4/semantic_series_4_d.png"" style=""width: 300px; height: 300px;"" />
                   </div>","null","",""
"","","","","","survey-likert","42","233213","0.0-42.0","D3DE68FE1D5E4C4F8DE6C0AD3B0D30FD","0199d03d-7019-7a65-b271-a6659641df7b","0199d03a-64b5-7588-a054-13255d1a32c0","","4125","","{""Q0"":2}","","[0]"
"","","","","","survey-likert","43","234510","0.0-43.0","D3DE68FE1D5E4C4F8DE6C0AD3B0D30FD","0199d03d-7019-7a65-b271-a6659641df7b","0199d03a-64b5-7588-a054-13255d1a32c0","","1296","","{""Q0"":4}","","[0]"
"","","","","","html-keyboard-response","44","241514","0.0-44.0","D3DE68FE1D5E4C4F8DE6C0AD3B0D30FD","0199d03d-7019-7a65-b271-a6659641df7b","0199d03a-64b5-7588-a054-13255d1a32c0","","null","<div style=""display: flex; justify-content: center; align-items: center;"">
                     <img src=""images/other/blank.png"" style=""width: 300px; height: 300px;"" />
                   </div>","null","",""
"","","","","","html-keyboard-response","45","248518","0.0-45.0","D3DE68FE1D5E4C4F8DE6C0AD3B0D30FD","0199d03d-7019-7a65-b271-a6659641df7b","0199d03a-64b5-7588-a054-13255d1a32c0","","null","<div style=""display: flex; justify-content: center; align-items: center;"">
                     <img src=""images/causal/causal_series_2/causal_series_2_a.png"" style=""width: 300px; height: 300px;"" />
                   </div>","null","",""
"","","","","","html-keyboard-response","46","255534","0.0-46.0","D3DE68FE1D5E4C4F8DE6C0AD3B0D30FD","0199d03d-7019-7a65-b271-a6659641df7b","0199d03a-64b5-7588-a054-13255d1a32c0","","null","<div style=""display: flex; justify-content: center; align-items: center;"">
                     <img src=""images/causal/causal_series_2/causal_series_2_b.png"" style=""width: 300px; height: 300px;"" />
                   </div>","null","",""
"","","","","","html-keyboard-response","47","262546","0.0-47.0","D3DE68FE1D5E4C4F8DE6C0AD3B0D30FD","0199d03d-7019-7a65-b271-a6659641df7b","0199d03a-64b5-7588-a054-13255d1a32c0","","null","<div style=""display: flex; justify-content: center; align-items: center;"">
                     <img src=""images/causal/causal_series_2/causal_series_2_c.png"" style=""width: 300px; height: 300px;"" />
                   </div>","null","",""
"","","","","","html-button-response","48","263630","0.0-48.0","D3DE68FE1D5E4C4F8DE6C0AD3B0D30FD","0199d03d-7019-7a65-b271-a6659641df7b","0199d03a-64b5-7588-a054-13255d1a32c0","","1083","
        <div style=""display: flex; justify-content: center; align-items: center;"">
          <img src=""images/red_deck_2.png"" style=""width: 300px; height: 300px; margin-right: 10px;"" />
          <img src=""images/blue_deck_1.png"" style=""width: 300px; height: 300px;"" />
        </div>","0","0",""
"","","","","","html-keyboard-response","49","270632","0.0-49.0-0.0-0.0","D3DE68FE1D5E4C4F8DE6C0AD3B0D30FD","0199d03d-7019-7a65-b271-a6659641df7b","0199d03a-64b5-7588-a054-13255d1a32c0","","null","<div style=""display: flex; justify-content: center; align-items: center;"">
                     <img src=""images/causal/causal_series_2/causal_series_2_d.png"" style=""width: 300px; height: 300px;"" />
                   </div>","null","",""
"","","","","","survey-likert","50","272581","0.0-50.0","D3DE68FE1D5E4C4F8DE6C0AD3B0D30FD","0199d03d-7019-7a65-b271-a6659641df7b","0199d03a-64b5-7588-a054-13255d1a32c0","","1949","","{""Q0"":4}","","[0]"
"","","","","","survey-likert","51","274254","0.0-51.0","D3DE68FE1D5E4C4F8DE6C0AD3B0D30FD","0199d03d-7019-7a65-b271-a6659641df7b","0199d03a-64b5-7588-a054-13255d1a32c0","","1672","","{""Q0"":3}","","[0]"
"","","","","","html-keyboard-response","52","281269","0.0-52.0","D3DE68FE1D5E4C4F8DE6C0AD3B0D30FD","0199d03d-7019-7a65-b271-a6659641df7b","0199d03a-64b5-7588-a054-13255d1a32c0","","null","<div style=""display: flex; justify-content: center; align-items: center;"">
                     <img src=""images/other/blank.png"" style=""width: 300px; height: 300px;"" />
                   </div>","null","",""
"","","","","","html-keyboard-response","53","288277","0.0-53.0","D3DE68FE1D5E4C4F8DE6C0AD3B0D30FD","0199d03d-7019-7a65-b271-a6659641df7b","0199d03a-64b5-7588-a054-13255d1a32c0","","null","<div style=""display: flex; justify-content: center; align-items: center;"">
                     <img src=""images/causal/causal_series_6/causal_series_6_a.png"" style=""width: 300px; height: 300px;"" />
                   </div>","null","",""
"","","","","","html-keyboard-response","54","295283","0.0-54.0","D3DE68FE1D5E4C4F8DE6C0AD3B0D30FD","0199d03d-7019-7a65-b271-a6659641df7b","0199d03a-64b5-7588-a054-13255d1a32c0","","null","<div style=""display: flex; justify-content: center; align-items: center;"">
                     <img src=""images/causal/causal_series_6/causal_series_6_b.png"" style=""width: 300px; height: 300px;"" />
                   </div>","null","",""
"","","","","","html-keyboard-response","55","302293","0.0-55.0","D3DE68FE1D5E4C4F8DE6C0AD3B0D30FD","0199d03d-7019-7a65-b271-a6659641df7b","0199d03a-64b5-7588-a054-13255d1a32c0","","null","<div style=""display: flex; justify-content: center; align-items: center;"">
                     <img src=""images/causal/causal_series_6/causal_series_6_c.png"" style=""width: 300px; height: 300px;"" />
                   </div>","null","",""
"","","","","","html-button-response","56","303358","0.0-56.0","D3DE68FE1D5E4C4F8DE6C0AD3B0D30FD","0199d03d-7019-7a65-b271-a6659641df7b","0199d03a-64b5-7588-a054-13255d1a32c0","","1064","
        <div style=""display: flex; justify-content: center; align-items: center;"">
          <img src=""images/red_deck_2.png"" style=""width: 300px; height: 300px; margin-right: 10px;"" />
          <img src=""images/blue_deck_1.png"" style=""width: 300px; height: 300px;"" />
        </div>","0","0",""
"","","","","","html-keyboard-response","57","310360","0.0-57.0-0.0-0.0","D3DE68FE1D5E4C4F8DE6C0AD3B0D30FD","0199d03d-7019-7a65-b271-a6659641df7b","0199d03a-64b5-7588-a054-13255d1a32c0","","null","<div style=""display: flex; justify-content: center; align-items: center;"">
                     <img src=""images/causal/causal_series_6/causal_series_6_d.png"" style=""width: 300px; height: 300px;"" />
                   </div>","null","",""
"","","","","","survey-likert","58","312206","0.0-58.0","D3DE68FE1D5E4C4F8DE6C0AD3B0D30FD","0199d03d-7019-7a65-b271-a6659641df7b","0199d03a-64b5-7588-a054-13255d1a32c0","","1845","","{""Q0"":0}","","[0]"
"","","","","","survey-likert","59","313838","0.0-59.0","D3DE68FE1D5E4C4F8DE6C0AD3B0D30FD","0199d03d-7019-7a65-b271-a6659641df7b","0199d03a-64b5-7588-a054-13255d1a32c0","","1631","","{""Q0"":1}","","[0]"
"","","","","","html-keyboard-response","60","320845","0.0-60.0","D3DE68FE1D5E4C4F8DE6C0AD3B0D30FD","0199d03d-7019-7a65-b271-a6659641df7b","0199d03a-64b5-7588-a054-13255d1a32c0","","null","<div style=""display: flex; justify-content: center; align-items: center;"">
                     <img src=""images/other/blank.png"" style=""width: 300px; height: 300px;"" />
                   </div>","null","",""
"","","","","","html-keyboard-response","61","327860","0.0-61.0","D3DE68FE1D5E4C4F8DE6C0AD3B0D30FD","0199d03d-7019-7a65-b271-a6659641df7b","0199d03a-64b5-7588-a054-13255d1a32c0","","null","<div style=""display: flex; justify-content: center; align-items: center;"">
                     <img src=""images/causal/causal_series_5/causal_series_5_a.png"" style=""width: 300px; height: 300px;"" />
                   </div>","null","",""
"","","","","","html-keyboard-response","62","334876","0.0-62.0","D3DE68FE1D5E4C4F8DE6C0AD3B0D30FD","0199d03d-7019-7a65-b271-a6659641df7b","0199d03a-64b5-7588-a054-13255d1a32c0","","null","<div style=""display: flex; justify-content: center; align-items: center;"">
                     <img src=""images/causal/causal_series_5/causal_series_5_b.png"" style=""width: 300px; height: 300px;"" />
                   </div>","null","",""
"","","","","","html-keyboard-response","63","341891","0.0-63.0","D3DE68FE1D5E4C4F8DE6C0AD3B0D30FD","0199d03d-7019-7a65-b271-a6659641df7b","0199d03a-64b5-7588-a054-13255d1a32c0","","null","<div style=""display: flex; justify-content: center; align-items: center;"">
                     <img src=""images/causal/causal_series_5/causal_series_5_c.png"" style=""width: 300px; height: 300px;"" />
                   </div>","null","",""
"","","","","","html-button-response","64","342917","0.0-64.0","D3DE68FE1D5E4C4F8DE6C0AD3B0D30FD","0199d03d-7019-7a65-b271-a6659641df7b","0199d03a-64b5-7588-a054-13255d1a32c0","","1026","
        <div style=""display: flex; justify-content: center; align-items: center;"">
          <img src=""images/red_deck_2.png"" style=""width: 300px; height: 300px; margin-right: 10px;"" />
          <img src=""images/blue_deck_1.png"" style=""width: 300px; height: 300px;"" />
        </div>","0","0",""
"","","","","","html-keyboard-response","65","349923","0.0-65.0-0.0-0.0","D3DE68FE1D5E4C4F8DE6C0AD3B0D30FD","0199d03d-7019-7a65-b271-a6659641df7b","0199d03a-64b5-7588-a054-13255d1a32c0","","null","<div style=""display: flex; justify-content: center; align-items: center;"">
                     <img src=""images/causal/causal_series_5/causal_series_5_d.png"" style=""width: 300px; height: 300px;"" />
                   </div>","null","",""
"","","","","","survey-likert","66","351741","0.0-66.0","D3DE68FE1D5E4C4F8DE6C0AD3B0D30FD","0199d03d-7019-7a65-b271-a6659641df7b","0199d03a-64b5-7588-a054-13255d1a32c0","","1817","","{""Q0"":4}","","[0]"
"","","","","","survey-likert","67","353382","0.0-67.0","D3DE68FE1D5E4C4F8DE6C0AD3B0D30FD","0199d03d-7019-7a65-b271-a6659641df7b","0199d03a-64b5-7588-a054-13255d1a32c0","","1640","","{""Q0"":4}","","[0]"
"","","","","","html-keyboard-response","68","360395","0.0-68.0","D3DE68FE1D5E4C4F8DE6C0AD3B0D30FD","0199d03d-7019-7a65-b271-a6659641df7b","0199d03a-64b5-7588-a054-13255d1a32c0","","null","<div style=""display: flex; justify-content: center; align-items: center;"">
                     <img src=""images/other/blank.png"" style=""width: 300px; height: 300px;"" />
                   </div>","null","",""
"","","","","","html-keyboard-response","69","367403","0.0-69.0","D3DE68FE1D5E4C4F8DE6C0AD3B0D30FD","0199d03d-7019-7a65-b271-a6659641df7b","0199d03a-64b5-7588-a054-13255d1a32c0","","null","<div style=""display: flex; justify-content: center; align-items: center;"">
                     <img src=""images/causal/causal_series_3/causal_series_3_a.png"" style=""width: 300px; height: 300px;"" />
                   </div>","null","",""
"","","","","","html-keyboard-response","70","374407","0.0-70.0","D3DE68FE1D5E4C4F8DE6C0AD3B0D30FD","0199d03d-7019-7a65-b271-a6659641df7b","0199d03a-64b5-7588-a054-13255d1a32c0","","null","<div style=""display: flex; justify-content: center; align-items: center;"">
                     <img src=""images/causal/causal_series_3/causal_series_3_b.png"" style=""width: 300px; height: 300px;"" />
                   </div>","null","",""
"","","","","","html-keyboard-response","71","381417","0.0-71.0","D3DE68FE1D5E4C4F8DE6C0AD3B0D30FD","0199d03d-7019-7a65-b271-a6659641df7b","0199d03a-64b5-7588-a054-13255d1a32c0","","null","<div style=""display: flex; justify-content: center; align-items: center;"">
                     <img src=""images/causal/causal_series_3/causal_series_3_c.png"" style=""width: 300px; height: 300px;"" />
                   </div>","null","",""
"","","","","","html-button-response","72","382526","0.0-72.0","D3DE68FE1D5E4C4F8DE6C0AD3B0D30FD","0199d03d-7019-7a65-b271-a6659641df7b","0199d03a-64b5-7588-a054-13255d1a32c0","","1108","
        <div style=""display: flex; justify-content: center; align-items: center;"">
          <img src=""images/red_deck_2.png"" style=""width: 300px; height: 300px; margin-right: 10px;"" />
          <img src=""images/blue_deck_1.png"" style=""width: 300px; height: 300px;"" />
        </div>","0","0",""
"","","","","","html-keyboard-response","73","389539","0.0-73.0-0.0-0.0","D3DE68FE1D5E4C4F8DE6C0AD3B0D30FD","0199d03d-7019-7a65-b271-a6659641df7b","0199d03a-64b5-7588-a054-13255d1a32c0","","null","<div style=""display: flex; justify-content: center; align-items: center;"">
                     <img src=""images/causal/causal_series_3/causal_series_3_d.png"" style=""width: 300px; height: 300px;"" />
                   </div>","null","",""
"","","","","","survey-likert","74","390709","0.0-74.0","D3DE68FE1D5E4C4F8DE6C0AD3B0D30FD","0199d03d-7019-7a65-b271-a6659641df7b","0199d03a-64b5-7588-a054-13255d1a32c0","","1169","","{""Q0"":2}","","[0]"
"","","","","","survey-likert","75","391997","0.0-75.0","D3DE68FE1D5E4C4F8DE6C0AD3B0D30FD","0199d03d-7019-7a65-b271-a6659641df7b","0199d03a-64b5-7588-a054-13255d1a32c0","","1287","","{""Q0"":1}","","[0]"
"","","","","","html-keyboard-response","76","399005","0.0-76.0","D3DE68FE1D5E4C4F8DE6C0AD3B0D30FD","0199d03d-7019-7a65-b271-a6659641df7b","0199d03a-64b5-7588-a054-13255d1a32c0","","null","<div style=""display: flex; justify-content: center; align-items: center;"">
                     <img src=""images/other/blank.png"" style=""width: 300px; height: 300px;"" />
                   </div>","null","",""
"","","","","","html-keyboard-response","77","406016","0.0-77.0","D3DE68FE1D5E4C4F8DE6C0AD3B0D30FD","0199d03d-7019-7a65-b271-a6659641df7b","0199d03a-64b5-7588-a054-13255d1a32c0","","null","<div style=""display: flex; justify-content: center; align-items: center;"">
                     <img src=""images/causal/causal_series_8/causal_series_8_a.png"" style=""width: 300px; height: 300px;"" />
                   </div>","null","",""
"","","","","","html-keyboard-response","78","413020","0.0-78.0","D3DE68FE1D5E4C4F8DE6C0AD3B0D30FD","0199d03d-7019-7a65-b271-a6659641df7b","0199d03a-64b5-7588-a054-13255d1a32c0","","null","<div style=""display: flex; justify-content: center; align-items: center;"">
                     <img src=""images/causal/causal_series_8/causal_series_8_b.png"" style=""width: 300px; height: 300px;"" />
                   </div>","null","",""
"","","","","","html-keyboard-response","79","420034","0.0-79.0","D3DE68FE1D5E4C4F8DE6C0AD3B0D30FD","0199d03d-7019-7a65-b271-a6659641df7b","0199d03a-64b5-7588-a054-13255d1a32c0","","null","<div style=""display: flex; justify-content: center; align-items: center;"">
                     <img src=""images/causal/causal_series_8/causal_series_8_c.png"" style=""width: 300px; height: 300px;"" />
                   </div>","null","",""
"","","","","","html-button-response","80","422318","0.0-80.0","D3DE68FE1D5E4C4F8DE6C0AD3B0D30FD","0199d03d-7019-7a65-b271-a6659641df7b","0199d03a-64b5-7588-a054-13255d1a32c0","","2283","
        <div style=""display: flex; justify-content: center; align-items: center;"">
          <img src=""images/red_deck_2.png"" style=""width: 300px; height: 300px; margin-right: 10px;"" />
          <img src=""images/blue_deck_1.png"" style=""width: 300px; height: 300px;"" />
        </div>","0","0",""
"","","","","","html-keyboard-response","81","429326","0.0-81.0-0.0-0.0","D3DE68FE1D5E4C4F8DE6C0AD3B0D30FD","0199d03d-7019-7a65-b271-a6659641df7b","0199d03a-64b5-7588-a054-13255d1a32c0","","null","<div style=""display: flex; justify-content: center; align-items: center;"">
                     <img src=""images/causal/causal_series_8/causal_series_8_d.png"" style=""width: 300px; height: 300px;"" />
                   </div>","null","",""
"","","","","","survey-likert","82","432406","0.0-82.0","D3DE68FE1D5E4C4F8DE6C0AD3B0D30FD","0199d03d-7019-7a65-b271-a6659641df7b","0199d03a-64b5-7588-a054-13255d1a32c0","","3079","","{""Q0"":2}","","[0]"
"","","","","","survey-likert","83","433694","0.0-83.0","D3DE68FE1D5E4C4F8DE6C0AD3B0D30FD","0199d03d-7019-7a65-b271-a6659641df7b","0199d03a-64b5-7588-a054-13255d1a32c0","","1287","","{""Q0"":0}","","[0]"
"","","","","","html-keyboard-response","84","440696","0.0-84.0","D3DE68FE1D5E4C4F8DE6C0AD3B0D30FD","0199d03d-7019-7a65-b271-a6659641df7b","0199d03a-64b5-7588-a054-13255d1a32c0","","null","<div style=""display: flex; justify-content: center; align-items: center;"">
                     <img src=""images/other/blank.png"" style=""width: 300px; height: 300px;"" />
                   </div>","null","",""
"","","","","","survey-text","85","451293","0.0-85.0","D3DE68FE1D5E4C4F8DE6C0AD3B0D30FD","0199d03d-7019-7a65-b271-a6659641df7b","0199d03a-64b5-7588-a054-13255d1a32c0","","10592","","{""Q0"":""red and blue""}","",""
"","","","","","html-button-response","86","464342","0.0-86.0","D3DE68FE1D5E4C4F8DE6C0AD3B0D30FD","0199d03d-7019-7a65-b271-a6659641df7b","0199d03a-64b5-7588-a054-13255d1a32c0","","13048","Which color deck do the following images continue the story from?","0","",""
"","","","","","html-button-response","87","470037","0.0-87.0","D3DE68FE1D5E4C4F8DE6C0AD3B0D30FD","0199d03d-7019-7a65-b271-a6659641df7b","0199d03a-64b5-7588-a054-13255d1a32c0","","5695","Which color deck do the following images NOT follow the story from?","1","",""
"","","","","","html-button-response","88","477357","0.0-88.0","D3DE68FE1D5E4C4F8DE6C0AD3B0D30FD","0199d03d-7019-7a65-b271-a6659641df7b","0199d03a-64b5-7588-a054-13255d1a32c0","","7319","Which type of deck did you prefer overall?","0","",""
"","","","","","survey-text","89","489230","0.0-89.0","D3DE68FE1D5E4C4F8DE6C0AD3B0D30FD","0199d03d-7019-7a65-b271-a6659641df7b","0199d03a-64b5-7588-a054-13255d1a32c0","","11869","","{""Q0"":""Female"",""Q1"":""26""}","",""
"","","","","","instructions","90","493949","0.0-90.0","D3DE68FE1D5E4C4F8DE6C0AD3B0D30FD","0199d03d-7019-7a65-b271-a6659641df7b","0199d03a-64b5-7588-a054-13255d1a32c0","[{""page_index"":0,""viewing_time"":4719}]","4719","","","",""
