"success","timeout","failed_images","failed_audio","failed_video","trial_type","trial_index","time_elapsed","internal_node_id","subject_id","study_id","session_id","view_history","rt","stimulus","response","choice"
"true","false","[]","[]","[]","preload","0","10854","0.0-0.0","502060A98610498DBC32348A33A1EE33","a562be1c-5d7d-4ba6-8108-4e0404be536d","23db58b9-63b0-4bce-8714-07ce439e665e","","","","",""
"","","","","","instructions","1","13864","0.0-1.0","502060A98610498DBC32348A33A1EE33","a562be1c-5d7d-4ba6-8108-4e0404be536d","23db58b9-63b0-4bce-8714-07ce439e665e","[{""page_index"":0,""viewing_time"":3010}]","3010","","",""
"","","","","","instructions","2","491019","0.0-2.0","502060A98610498DBC32348A33A1EE33","a562be1c-5d7d-4ba6-8108-4e0404be536d","23db58b9-63b0-4bce-8714-07ce439e665e","[{""page_index"":0,""viewing_time"":477146}]","477147","","",""
"true","","","","","fullscreen","3","706518","0.0-3.0","502060A98610498DBC32348A33A1EE33","a562be1c-5d7d-4ba6-8108-4e0404be536d","23db58b9-63b0-4bce-8714-07ce439e665e","","214478","","",""
"","","","","","instructions","4","716771","0.0-4.0","502060A98610498DBC32348A33A1EE33","a562be1c-5d7d-4ba6-8108-4e0404be536d","23db58b9-63b0-4bce-8714-07ce439e665e","[{""page_index"":0,""viewing_time"":10252}]","10253","","",""
"","","","","","html-keyboard-response","5","719774","0.0-5.0","502060A98610498DBC32348A33A1EE33","a562be1c-5d7d-4ba6-8108-4e0404be536d","23db58b9-63b0-4bce-8714-07ce439e665e","","null","<div style=""display: flex; justify-content: center; align-items: center;"">
                <img src=""images/causal/causal_series_13/causal_series_13_a.jpg"" style=""width: 300px; height: 300px;"" />
              </div>","null",""
"","","","","","html-button-response","6","721490","0.0-6.0","502060A98610498DBC32348A33A1EE33","a562be1c-5d7d-4ba6-8108-4e0404be536d","23db58b9-63b0-4bce-8714-07ce439e665e","","1715","
    <div style=""display: flex; justify-content: center; align-items: center;"">
      <img src=""images/red_deck_2.png"" style=""width: 300px; height: 300px; margin-right: 10px;"" />
      <img src=""images/blue_deck_1.png"" style=""width: 300px; height: 300px;"" />
    </div>","1","1"
"","","","","","html-keyboard-response","7","724493","0.0-7.0-1.0-0.0","502060A98610498DBC32348A33A1EE33","a562be1c-5d7d-4ba6-8108-4e0404be536d","23db58b9-63b0-4bce-8714-07ce439e665e","","null","<div style=""display: flex; justify-content: center; align-items: center;"">
                <img src=""images/semantic/semantic_series_18/semantic_series_18_d.jpg"" style=""width: 300px; height: 300px;"" />
              </div>","null",""
"","","","","","html-keyboard-response","8","727495","0.0-7.0-1.0-1.0","502060A98610498DBC32348A33A1EE33","a562be1c-5d7d-4ba6-8108-4e0404be536d","23db58b9-63b0-4bce-8714-07ce439e665e","","null","<div style=""display: flex; justify-content: center; align-items: center;"">
                <img src=""images/semantic/semantic_series_1/semantic_series_1_d.jpg"" style=""width: 300px; height: 300px;"" />
              </div>","null",""
"","","","","","html-keyboard-response","9","730497","0.0-7.0-1.0-2.0","502060A98610498DBC32348A33A1EE33","a562be1c-5d7d-4ba6-8108-4e0404be536d","23db58b9-63b0-4bce-8714-07ce439e665e","","null","<div style=""display: flex; justify-content: center; align-items: center;"">
                <img src=""images/semantic/semantic_series_2/semantic_series_2_d.jpg"" style=""width: 300px; height: 300px;"" />
              </div>","null",""
"","","","","","html-keyboard-response","10","733499","0.0-8.0","502060A98610498DBC32348A33A1EE33","a562be1c-5d7d-4ba6-8108-4e0404be536d","23db58b9-63b0-4bce-8714-07ce439e665e","","null","<div style=""display: flex; justify-content: center; align-items: center;"">
                <img src=""images/other/blank.jpg"" style=""width: 300px; height: 300px;"" />
              </div>","null",""
"","","","","","html-keyboard-response","11","736501","0.0-9.0","502060A98610498DBC32348A33A1EE33","a562be1c-5d7d-4ba6-8108-4e0404be536d","23db58b9-63b0-4bce-8714-07ce439e665e","","null","<div style=""display: flex; justify-content: center; align-items: center;"">
                <img src=""images/causal/causal_series_12/causal_series_12_a.jpg"" style=""width: 300px; height: 300px;"" />
              </div>","null",""
"","","","","","html-button-response","12","739041","0.0-10.0","502060A98610498DBC32348A33A1EE33","a562be1c-5d7d-4ba6-8108-4e0404be536d","23db58b9-63b0-4bce-8714-07ce439e665e","","2540","
    <div style=""display: flex; justify-content: center; align-items: center;"">
      <img src=""images/red_deck_2.png"" style=""width: 300px; height: 300px; margin-right: 10px;"" />
      <img src=""images/blue_deck_1.png"" style=""width: 300px; height: 300px;"" />
    </div>","0","0"
"","","","","","html-keyboard-response","13","742043","0.0-11.0-0.0-0.0","502060A98610498DBC32348A33A1EE33","a562be1c-5d7d-4ba6-8108-4e0404be536d","23db58b9-63b0-4bce-8714-07ce439e665e","","null","<div style=""display: flex; justify-content: center; align-items: center;"">
                <img src=""images/causal/causal_series_12/causal_series_12_b.jpg"" style=""width: 300px; height: 300px;"" />
              </div>","null",""
"","","","","","html-keyboard-response","14","745045","0.0-11.0-0.0-1.0","502060A98610498DBC32348A33A1EE33","a562be1c-5d7d-4ba6-8108-4e0404be536d","23db58b9-63b0-4bce-8714-07ce439e665e","","null","<div style=""display: flex; justify-content: center; align-items: center;"">
                <img src=""images/causal/causal_series_12/causal_series_12_c.jpg"" style=""width: 300px; height: 300px;"" />
              </div>","null",""
"","","","","","html-keyboard-response","15","748048","0.0-11.0-0.0-2.0","502060A98610498DBC32348A33A1EE33","a562be1c-5d7d-4ba6-8108-4e0404be536d","23db58b9-63b0-4bce-8714-07ce439e665e","","null","<div style=""display: flex; justify-content: center; align-items: center;"">
                <img src=""images/causal/causal_series_12/causal_series_12_d.jpg"" style=""width: 300px; height: 300px;"" />
              </div>","null",""
"","","","","","html-keyboard-response","16","751050","0.0-12.0","502060A98610498DBC32348A33A1EE33","a562be1c-5d7d-4ba6-8108-4e0404be536d","23db58b9-63b0-4bce-8714-07ce439e665e","","null","<div style=""display: flex; justify-content: center; align-items: center;"">
                <img src=""images/other/blank.jpg"" style=""width: 300px; height: 300px;"" />
              </div>","null",""
"","","","","","html-keyboard-response","17","754053","0.0-13.0","502060A98610498DBC32348A33A1EE33","a562be1c-5d7d-4ba6-8108-4e0404be536d","23db58b9-63b0-4bce-8714-07ce439e665e","","null","<div style=""display: flex; justify-content: center; align-items: center;"">
                <img src=""images/causal/causal_series_14/causal_series_14_a.jpg"" style=""width: 300px; height: 300px;"" />
              </div>","null",""
"","","","","","html-button-response","18","758251","0.0-14.0","502060A98610498DBC32348A33A1EE33","a562be1c-5d7d-4ba6-8108-4e0404be536d","23db58b9-63b0-4bce-8714-07ce439e665e","","4197","
    <div style=""display: flex; justify-content: center; align-items: center;"">
      <img src=""images/red_deck_2.png"" style=""width: 300px; height: 300px; margin-right: 10px;"" />
      <img src=""images/blue_deck_1.png"" style=""width: 300px; height: 300px;"" />
    </div>","0","0"
"","","","","","html-keyboard-response","19","761254","0.0-15.0-0.0-0.0","502060A98610498DBC32348A33A1EE33","a562be1c-5d7d-4ba6-8108-4e0404be536d","23db58b9-63b0-4bce-8714-07ce439e665e","","null","<div style=""display: flex; justify-content: center; align-items: center;"">
                <img src=""images/causal/causal_series_14/causal_series_14_b.jpg"" style=""width: 300px; height: 300px;"" />
              </div>","null",""
"","","","","","html-keyboard-response","20","764256","0.0-15.0-0.0-1.0","502060A98610498DBC32348A33A1EE33","a562be1c-5d7d-4ba6-8108-4e0404be536d","23db58b9-63b0-4bce-8714-07ce439e665e","","null","<div style=""display: flex; justify-content: center; align-items: center;"">
                <img src=""images/causal/causal_series_14/causal_series_14_c.jpg"" style=""width: 300px; height: 300px;"" />
              </div>","null",""
"","","","","","html-keyboard-response","21","767259","0.0-15.0-0.0-2.0","502060A98610498DBC32348A33A1EE33","a562be1c-5d7d-4ba6-8108-4e0404be536d","23db58b9-63b0-4bce-8714-07ce439e665e","","null","<div style=""display: flex; justify-content: center; align-items: center;"">
                <img src=""images/causal/causal_series_14/causal_series_14_d.jpg"" style=""width: 300px; height: 300px;"" />
              </div>","null",""
"","","","","","html-keyboard-response","22","770260","0.0-16.0","502060A98610498DBC32348A33A1EE33","a562be1c-5d7d-4ba6-8108-4e0404be536d","23db58b9-63b0-4bce-8714-07ce439e665e","","null","<div style=""display: flex; justify-content: center; align-items: center;"">
                <img src=""images/other/blank.jpg"" style=""width: 300px; height: 300px;"" />
              </div>","null",""
"","","","","","html-keyboard-response","23","773263","0.0-17.0","502060A98610498DBC32348A33A1EE33","a562be1c-5d7d-4ba6-8108-4e0404be536d","23db58b9-63b0-4bce-8714-07ce439e665e","","null","<div style=""display: flex; justify-content: center; align-items: center;"">
                <img src=""images/causal/causal_series_5/causal_series_5_a.jpg"" style=""width: 300px; height: 300px;"" />
              </div>","null",""
"","","","","","html-button-response","24","791878","0.0-18.0","502060A98610498DBC32348A33A1EE33","a562be1c-5d7d-4ba6-8108-4e0404be536d","23db58b9-63b0-4bce-8714-07ce439e665e","","18614","
    <div style=""display: flex; justify-content: center; align-items: center;"">
      <img src=""images/red_deck_2.png"" style=""width: 300px; height: 300px; margin-right: 10px;"" />
      <img src=""images/blue_deck_1.png"" style=""width: 300px; height: 300px;"" />
    </div>","1","1"
"","","","","","html-keyboard-response","25","794880","0.0-19.0-1.0-0.0","502060A98610498DBC32348A33A1EE33","a562be1c-5d7d-4ba6-8108-4e0404be536d","23db58b9-63b0-4bce-8714-07ce439e665e","","null","<div style=""display: flex; justify-content: center; align-items: center;"">
                <img src=""images/semantic/semantic_series_12/semantic_series_12_d.jpg"" style=""width: 300px; height: 300px;"" />
              </div>","null",""
"","","","","","html-keyboard-response","26","797882","0.0-19.0-1.0-1.0","502060A98610498DBC32348A33A1EE33","a562be1c-5d7d-4ba6-8108-4e0404be536d","23db58b9-63b0-4bce-8714-07ce439e665e","","null","<div style=""display: flex; justify-content: center; align-items: center;"">
                <img src=""images/semantic/semantic_series_13/semantic_series_13_d.jpg"" style=""width: 300px; height: 300px;"" />
              </div>","null",""
"","","","","","html-keyboard-response","27","800885","0.0-19.0-1.0-2.0","502060A98610498DBC32348A33A1EE33","a562be1c-5d7d-4ba6-8108-4e0404be536d","23db58b9-63b0-4bce-8714-07ce439e665e","","null","<div style=""display: flex; justify-content: center; align-items: center;"">
                <img src=""images/semantic/semantic_series_14/semantic_series_14_d.jpg"" style=""width: 300px; height: 300px;"" />
              </div>","null",""
"","","","","","html-keyboard-response","28","803887","0.0-20.0","502060A98610498DBC32348A33A1EE33","a562be1c-5d7d-4ba6-8108-4e0404be536d","23db58b9-63b0-4bce-8714-07ce439e665e","","null","<div style=""display: flex; justify-content: center; align-items: center;"">
                <img src=""images/other/blank.jpg"" style=""width: 300px; height: 300px;"" />
              </div>","null",""
"","","","","","html-keyboard-response","29","806888","0.0-21.0","502060A98610498DBC32348A33A1EE33","a562be1c-5d7d-4ba6-8108-4e0404be536d","23db58b9-63b0-4bce-8714-07ce439e665e","","null","<div style=""display: flex; justify-content: center; align-items: center;"">
                <img src=""images/causal/causal_series_3/causal_series_3_a.jpg"" style=""width: 300px; height: 300px;"" />
              </div>","null",""
"","","","","","html-button-response","30","811221","0.0-22.0","502060A98610498DBC32348A33A1EE33","a562be1c-5d7d-4ba6-8108-4e0404be536d","23db58b9-63b0-4bce-8714-07ce439e665e","","4331","
    <div style=""display: flex; justify-content: center; align-items: center;"">
      <img src=""images/red_deck_2.png"" style=""width: 300px; height: 300px; margin-right: 10px;"" />
      <img src=""images/blue_deck_1.png"" style=""width: 300px; height: 300px;"" />
    </div>","0","0"
"","","","","","html-keyboard-response","31","814223","0.0-23.0-0.0-0.0","502060A98610498DBC32348A33A1EE33","a562be1c-5d7d-4ba6-8108-4e0404be536d","23db58b9-63b0-4bce-8714-07ce439e665e","","null","<div style=""display: flex; justify-content: center; align-items: center;"">
                <img src=""images/causal/causal_series_3/causal_series_3_b.jpg"" style=""width: 300px; height: 300px;"" />
              </div>","null",""
"","","","","","html-keyboard-response","32","817226","0.0-23.0-0.0-1.0","502060A98610498DBC32348A33A1EE33","a562be1c-5d7d-4ba6-8108-4e0404be536d","23db58b9-63b0-4bce-8714-07ce439e665e","","null","<div style=""display: flex; justify-content: center; align-items: center;"">
                <img src=""images/causal/causal_series_3/causal_series_3_c.jpg"" style=""width: 300px; height: 300px;"" />
              </div>","null",""
"","","","","","html-keyboard-response","33","820228","0.0-23.0-0.0-2.0","502060A98610498DBC32348A33A1EE33","a562be1c-5d7d-4ba6-8108-4e0404be536d","23db58b9-63b0-4bce-8714-07ce439e665e","","null","<div style=""display: flex; justify-content: center; align-items: center;"">
                <img src=""images/causal/causal_series_3/causal_series_3_d.jpg"" style=""width: 300px; height: 300px;"" />
              </div>","null",""
"","","","","","html-keyboard-response","34","823231","0.0-24.0","502060A98610498DBC32348A33A1EE33","a562be1c-5d7d-4ba6-8108-4e0404be536d","23db58b9-63b0-4bce-8714-07ce439e665e","","null","<div style=""display: flex; justify-content: center; align-items: center;"">
                <img src=""images/other/blank.jpg"" style=""width: 300px; height: 300px;"" />
              </div>","null",""
"","","","","","html-keyboard-response","35","826234","0.0-25.0","502060A98610498DBC32348A33A1EE33","a562be1c-5d7d-4ba6-8108-4e0404be536d","23db58b9-63b0-4bce-8714-07ce439e665e","","null","<div style=""display: flex; justify-content: center; align-items: center;"">
                <img src=""images/causal/causal_series_10/causal_series_10_a.jpg"" style=""width: 300px; height: 300px;"" />
              </div>","null",""
"","","","","","html-button-response","36","836015","0.0-26.0","502060A98610498DBC32348A33A1EE33","a562be1c-5d7d-4ba6-8108-4e0404be536d","23db58b9-63b0-4bce-8714-07ce439e665e","","9780","
    <div style=""display: flex; justify-content: center; align-items: center;"">
      <img src=""images/red_deck_2.png"" style=""width: 300px; height: 300px; margin-right: 10px;"" />
      <img src=""images/blue_deck_1.png"" style=""width: 300px; height: 300px;"" />
    </div>","0","0"
"","","","","","html-keyboard-response","37","839018","0.0-27.0-0.0-0.0","502060A98610498DBC32348A33A1EE33","a562be1c-5d7d-4ba6-8108-4e0404be536d","23db58b9-63b0-4bce-8714-07ce439e665e","","null","<div style=""display: flex; justify-content: center; align-items: center;"">
                <img src=""images/causal/causal_series_10/causal_series_10_b.jpg"" style=""width: 300px; height: 300px;"" />
              </div>","null",""
"","","","","","html-keyboard-response","38","842020","0.0-27.0-0.0-1.0","502060A98610498DBC32348A33A1EE33","a562be1c-5d7d-4ba6-8108-4e0404be536d","23db58b9-63b0-4bce-8714-07ce439e665e","","null","<div style=""display: flex; justify-content: center; align-items: center;"">
                <img src=""images/causal/causal_series_10/causal_series_10_c.jpg"" style=""width: 300px; height: 300px;"" />
              </div>","null",""
"","","","","","html-keyboard-response","39","845022","0.0-27.0-0.0-2.0","502060A98610498DBC32348A33A1EE33","a562be1c-5d7d-4ba6-8108-4e0404be536d","23db58b9-63b0-4bce-8714-07ce439e665e","","null","<div style=""display: flex; justify-content: center; align-items: center;"">
                <img src=""images/causal/causal_series_10/causal_series_10_d.jpg"" style=""width: 300px; height: 300px;"" />
              </div>","null",""
"","","","","","html-keyboard-response","40","848025","0.0-28.0","502060A98610498DBC32348A33A1EE33","a562be1c-5d7d-4ba6-8108-4e0404be536d","23db58b9-63b0-4bce-8714-07ce439e665e","","null","<div style=""display: flex; justify-content: center; align-items: center;"">
                <img src=""images/other/blank.jpg"" style=""width: 300px; height: 300px;"" />
              </div>","null",""
"","","","","","html-keyboard-response","41","851027","0.0-29.0","502060A98610498DBC32348A33A1EE33","a562be1c-5d7d-4ba6-8108-4e0404be536d","23db58b9-63b0-4bce-8714-07ce439e665e","","null","<div style=""display: flex; justify-content: center; align-items: center;"">
                <img src=""images/causal/causal_series_2/causal_series_2_a.jpg"" style=""width: 300px; height: 300px;"" />
              </div>","null",""
"","","","","","html-button-response","42","852823","0.0-30.0","502060A98610498DBC32348A33A1EE33","a562be1c-5d7d-4ba6-8108-4e0404be536d","23db58b9-63b0-4bce-8714-07ce439e665e","","1794","
    <div style=""display: flex; justify-content: center; align-items: center;"">
      <img src=""images/red_deck_2.png"" style=""width: 300px; height: 300px; margin-right: 10px;"" />
      <img src=""images/blue_deck_1.png"" style=""width: 300px; height: 300px;"" />
    </div>","0","0"
"","","","","","html-keyboard-response","43","855826","0.0-31.0-0.0-0.0","502060A98610498DBC32348A33A1EE33","a562be1c-5d7d-4ba6-8108-4e0404be536d","23db58b9-63b0-4bce-8714-07ce439e665e","","null","<div style=""display: flex; justify-content: center; align-items: center;"">
                <img src=""images/causal/causal_series_2/causal_series_2_b.jpg"" style=""width: 300px; height: 300px;"" />
              </div>","null",""
"","","","","","html-keyboard-response","44","858829","0.0-31.0-0.0-1.0","502060A98610498DBC32348A33A1EE33","a562be1c-5d7d-4ba6-8108-4e0404be536d","23db58b9-63b0-4bce-8714-07ce439e665e","","null","<div style=""display: flex; justify-content: center; align-items: center;"">
                <img src=""images/causal/causal_series_2/causal_series_2_c.jpg"" style=""width: 300px; height: 300px;"" />
              </div>","null",""
"","","","","","html-keyboard-response","45","861830","0.0-31.0-0.0-2.0","502060A98610498DBC32348A33A1EE33","a562be1c-5d7d-4ba6-8108-4e0404be536d","23db58b9-63b0-4bce-8714-07ce439e665e","","null","<div style=""display: flex; justify-content: center; align-items: center;"">
                <img src=""images/causal/causal_series_2/causal_series_2_d.jpg"" style=""width: 300px; height: 300px;"" />
              </div>","null",""
"","","","","","html-keyboard-response","46","864833","0.0-32.0","502060A98610498DBC32348A33A1EE33","a562be1c-5d7d-4ba6-8108-4e0404be536d","23db58b9-63b0-4bce-8714-07ce439e665e","","null","<div style=""display: flex; justify-content: center; align-items: center;"">
                <img src=""images/other/blank.jpg"" style=""width: 300px; height: 300px;"" />
              </div>","null",""
"","","","","","html-keyboard-response","47","867836","0.0-33.0","502060A98610498DBC32348A33A1EE33","a562be1c-5d7d-4ba6-8108-4e0404be536d","23db58b9-63b0-4bce-8714-07ce439e665e","","null","<div style=""display: flex; justify-content: center; align-items: center;"">
                <img src=""images/causal/causal_series_17/causal_series_17_a.jpg"" style=""width: 300px; height: 300px;"" />
              </div>","null",""
"","","","","","html-button-response","48","876007","0.0-34.0","502060A98610498DBC32348A33A1EE33","a562be1c-5d7d-4ba6-8108-4e0404be536d","23db58b9-63b0-4bce-8714-07ce439e665e","","8168","
    <div style=""display: flex; justify-content: center; align-items: center;"">
      <img src=""images/red_deck_2.png"" style=""width: 300px; height: 300px; margin-right: 10px;"" />
      <img src=""images/blue_deck_1.png"" style=""width: 300px; height: 300px;"" />
    </div>","0","0"
"","","","","","html-keyboard-response","49","879010","0.0-35.0-0.0-0.0","502060A98610498DBC32348A33A1EE33","a562be1c-5d7d-4ba6-8108-4e0404be536d","23db58b9-63b0-4bce-8714-07ce439e665e","","null","<div style=""display: flex; justify-content: center; align-items: center;"">
                <img src=""images/causal/causal_series_17/causal_series_17_b.jpg"" style=""width: 300px; height: 300px;"" />
              </div>","null",""
"","","","","","html-keyboard-response","50","882013","0.0-35.0-0.0-1.0","502060A98610498DBC32348A33A1EE33","a562be1c-5d7d-4ba6-8108-4e0404be536d","23db58b9-63b0-4bce-8714-07ce439e665e","","null","<div style=""display: flex; justify-content: center; align-items: center;"">
                <img src=""images/causal/causal_series_17/causal_series_17_c.jpg"" style=""width: 300px; height: 300px;"" />
              </div>","null",""
"","","","","","html-keyboard-response","51","885015","0.0-35.0-0.0-2.0","502060A98610498DBC32348A33A1EE33","a562be1c-5d7d-4ba6-8108-4e0404be536d","23db58b9-63b0-4bce-8714-07ce439e665e","","null","<div style=""display: flex; justify-content: center; align-items: center;"">
                <img src=""images/causal/causal_series_17/causal_series_17_d.jpg"" style=""width: 300px; height: 300px;"" />
              </div>","null",""
"","","","","","html-keyboard-response","52","888018","0.0-36.0","502060A98610498DBC32348A33A1EE33","a562be1c-5d7d-4ba6-8108-4e0404be536d","23db58b9-63b0-4bce-8714-07ce439e665e","","null","<div style=""display: flex; justify-content: center; align-items: center;"">
                <img src=""images/other/blank.jpg"" style=""width: 300px; height: 300px;"" />
              </div>","null",""
"","","","","","html-keyboard-response","53","891022","0.0-37.0","502060A98610498DBC32348A33A1EE33","a562be1c-5d7d-4ba6-8108-4e0404be536d","23db58b9-63b0-4bce-8714-07ce439e665e","","null","<div style=""display: flex; justify-content: center; align-items: center;"">
                <img src=""images/causal/causal_series_15/causal_series_15_a.jpg"" style=""width: 300px; height: 300px;"" />
              </div>","null",""
"","","","","","html-button-response","54","908047","0.0-38.0","502060A98610498DBC32348A33A1EE33","a562be1c-5d7d-4ba6-8108-4e0404be536d","23db58b9-63b0-4bce-8714-07ce439e665e","","17023","
    <div style=""display: flex; justify-content: center; align-items: center;"">
      <img src=""images/red_deck_2.png"" style=""width: 300px; height: 300px; margin-right: 10px;"" />
      <img src=""images/blue_deck_1.png"" style=""width: 300px; height: 300px;"" />
    </div>","1","1"
"","","","","","html-keyboard-response","55","911049","0.0-39.0-1.0-0.0","502060A98610498DBC32348A33A1EE33","a562be1c-5d7d-4ba6-8108-4e0404be536d","23db58b9-63b0-4bce-8714-07ce439e665e","","null","<div style=""display: flex; justify-content: center; align-items: center;"">
                <img src=""images/semantic/semantic_series_6/semantic_series_6_d.jpg"" style=""width: 300px; height: 300px;"" />
              </div>","null",""
"","","","","","html-keyboard-response","56","914051","0.0-39.0-1.0-1.0","502060A98610498DBC32348A33A1EE33","a562be1c-5d7d-4ba6-8108-4e0404be536d","23db58b9-63b0-4bce-8714-07ce439e665e","","null","<div style=""display: flex; justify-content: center; align-items: center;"">
                <img src=""images/semantic/semantic_series_7/semantic_series_7_d.jpg"" style=""width: 300px; height: 300px;"" />
              </div>","null",""
"","","","","","html-keyboard-response","57","917053","0.0-39.0-1.0-2.0","502060A98610498DBC32348A33A1EE33","a562be1c-5d7d-4ba6-8108-4e0404be536d","23db58b9-63b0-4bce-8714-07ce439e665e","","null","<div style=""display: flex; justify-content: center; align-items: center;"">
                <img src=""images/semantic/semantic_series_8/semantic_series_8_d.jpg"" style=""width: 300px; height: 300px;"" />
              </div>","null",""
"","","","","","html-keyboard-response","58","920056","0.0-40.0","502060A98610498DBC32348A33A1EE33","a562be1c-5d7d-4ba6-8108-4e0404be536d","23db58b9-63b0-4bce-8714-07ce439e665e","","null","<div style=""display: flex; justify-content: center; align-items: center;"">
                <img src=""images/other/blank.jpg"" style=""width: 300px; height: 300px;"" />
              </div>","null",""
"","","","","","html-keyboard-response","59","923057","0.0-41.0","502060A98610498DBC32348A33A1EE33","a562be1c-5d7d-4ba6-8108-4e0404be536d","23db58b9-63b0-4bce-8714-07ce439e665e","","null","<div style=""display: flex; justify-content: center; align-items: center;"">
                <img src=""images/causal/causal_series_7/causal_series_7_a.jpg"" style=""width: 300px; height: 300px;"" />
              </div>","null",""
"","","","","","html-button-response","60","933946","0.0-42.0","502060A98610498DBC32348A33A1EE33","a562be1c-5d7d-4ba6-8108-4e0404be536d","23db58b9-63b0-4bce-8714-07ce439e665e","","10888","
    <div style=""display: flex; justify-content: center; align-items: center;"">
      <img src=""images/red_deck_2.png"" style=""width: 300px; height: 300px; margin-right: 10px;"" />
      <img src=""images/blue_deck_1.png"" style=""width: 300px; height: 300px;"" />
    </div>","1","1"
"","","","","","html-keyboard-response","61","936949","0.0-43.0-1.0-0.0","502060A98610498DBC32348A33A1EE33","a562be1c-5d7d-4ba6-8108-4e0404be536d","23db58b9-63b0-4bce-8714-07ce439e665e","","null","<div style=""display: flex; justify-content: center; align-items: center;"">
                <img src=""images/semantic/semantic_series_18/semantic_series_18_d.jpg"" style=""width: 300px; height: 300px;"" />
              </div>","null",""
"","","","","","html-keyboard-response","62","939952","0.0-43.0-1.0-1.0","502060A98610498DBC32348A33A1EE33","a562be1c-5d7d-4ba6-8108-4e0404be536d","23db58b9-63b0-4bce-8714-07ce439e665e","","null","<div style=""display: flex; justify-content: center; align-items: center;"">
                <img src=""images/semantic/semantic_series_1/semantic_series_1_d.jpg"" style=""width: 300px; height: 300px;"" />
              </div>","null",""
"","","","","","html-keyboard-response","63","942955","0.0-43.0-1.0-2.0","502060A98610498DBC32348A33A1EE33","a562be1c-5d7d-4ba6-8108-4e0404be536d","23db58b9-63b0-4bce-8714-07ce439e665e","","null","<div style=""display: flex; justify-content: center; align-items: center;"">
                <img src=""images/semantic/semantic_series_2/semantic_series_2_d.jpg"" style=""width: 300px; height: 300px;"" />
              </div>","null",""
"","","","","","html-keyboard-response","64","945957","0.0-44.0","502060A98610498DBC32348A33A1EE33","a562be1c-5d7d-4ba6-8108-4e0404be536d","23db58b9-63b0-4bce-8714-07ce439e665e","","null","<div style=""display: flex; justify-content: center; align-items: center;"">
                <img src=""images/other/blank.jpg"" style=""width: 300px; height: 300px;"" />
              </div>","null",""
"","","","","","html-keyboard-response","65","948959","0.0-45.0","502060A98610498DBC32348A33A1EE33","a562be1c-5d7d-4ba6-8108-4e0404be536d","23db58b9-63b0-4bce-8714-07ce439e665e","","null","<div style=""display: flex; justify-content: center; align-items: center;"">
                <img src=""images/causal/causal_series_11/causal_series_11_a.jpg"" style=""width: 300px; height: 300px;"" />
              </div>","null",""
"","","","","","html-button-response","66","954106","0.0-46.0","502060A98610498DBC32348A33A1EE33","a562be1c-5d7d-4ba6-8108-4e0404be536d","23db58b9-63b0-4bce-8714-07ce439e665e","","5146","
    <div style=""display: flex; justify-content: center; align-items: center;"">
      <img src=""images/red_deck_2.png"" style=""width: 300px; height: 300px; margin-right: 10px;"" />
      <img src=""images/blue_deck_1.png"" style=""width: 300px; height: 300px;"" />
    </div>","0","0"
"","","","","","html-keyboard-response","67","957109","0.0-47.0-0.0-0.0","502060A98610498DBC32348A33A1EE33","a562be1c-5d7d-4ba6-8108-4e0404be536d","23db58b9-63b0-4bce-8714-07ce439e665e","","null","<div style=""display: flex; justify-content: center; align-items: center;"">
                <img src=""images/causal/causal_series_11/causal_series_11_b.jpg"" style=""width: 300px; height: 300px;"" />
              </div>","null",""
"","","","","","html-keyboard-response","68","960112","0.0-47.0-0.0-1.0","502060A98610498DBC32348A33A1EE33","a562be1c-5d7d-4ba6-8108-4e0404be536d","23db58b9-63b0-4bce-8714-07ce439e665e","","null","<div style=""display: flex; justify-content: center; align-items: center;"">
                <img src=""images/causal/causal_series_11/causal_series_11_c.jpg"" style=""width: 300px; height: 300px;"" />
              </div>","null",""
"","","","","","html-keyboard-response","69","963115","0.0-47.0-0.0-2.0","502060A98610498DBC32348A33A1EE33","a562be1c-5d7d-4ba6-8108-4e0404be536d","23db58b9-63b0-4bce-8714-07ce439e665e","","null","<div style=""display: flex; justify-content: center; align-items: center;"">
                <img src=""images/causal/causal_series_11/causal_series_11_d.jpg"" style=""width: 300px; height: 300px;"" />
              </div>","null",""
"","","","","","html-keyboard-response","70","966116","0.0-48.0","502060A98610498DBC32348A33A1EE33","a562be1c-5d7d-4ba6-8108-4e0404be536d","23db58b9-63b0-4bce-8714-07ce439e665e","","null","<div style=""display: flex; justify-content: center; align-items: center;"">
                <img src=""images/other/blank.jpg"" style=""width: 300px; height: 300px;"" />
              </div>","null",""
"","","","","","html-keyboard-response","71","969119","0.0-49.0","502060A98610498DBC32348A33A1EE33","a562be1c-5d7d-4ba6-8108-4e0404be536d","23db58b9-63b0-4bce-8714-07ce439e665e","","null","<div style=""display: flex; justify-content: center; align-items: center;"">
                <img src=""images/causal/causal_series_1/causal_series_1_a.jpg"" style=""width: 300px; height: 300px;"" />
              </div>","null",""
"","","","","","html-button-response","72","971189","0.0-50.0","502060A98610498DBC32348A33A1EE33","a562be1c-5d7d-4ba6-8108-4e0404be536d","23db58b9-63b0-4bce-8714-07ce439e665e","","2069","
    <div style=""display: flex; justify-content: center; align-items: center;"">
      <img src=""images/red_deck_2.png"" style=""width: 300px; height: 300px; margin-right: 10px;"" />
      <img src=""images/blue_deck_1.png"" style=""width: 300px; height: 300px;"" />
    </div>","0","0"
"","","","","","html-keyboard-response","73","974190","0.0-51.0-0.0-0.0","502060A98610498DBC32348A33A1EE33","a562be1c-5d7d-4ba6-8108-4e0404be536d","23db58b9-63b0-4bce-8714-07ce439e665e","","null","<div style=""display: flex; justify-content: center; align-items: center;"">
                <img src=""images/causal/causal_series_1/causal_series_1_b.jpg"" style=""width: 300px; height: 300px;"" />
              </div>","null",""
"","","","","","html-keyboard-response","74","977192","0.0-51.0-0.0-1.0","502060A98610498DBC32348A33A1EE33","a562be1c-5d7d-4ba6-8108-4e0404be536d","23db58b9-63b0-4bce-8714-07ce439e665e","","null","<div style=""display: flex; justify-content: center; align-items: center;"">
                <img src=""images/causal/causal_series_1/causal_series_1_c.jpg"" style=""width: 300px; height: 300px;"" />
              </div>","null",""
"","","","","","html-keyboard-response","75","980194","0.0-51.0-0.0-2.0","502060A98610498DBC32348A33A1EE33","a562be1c-5d7d-4ba6-8108-4e0404be536d","23db58b9-63b0-4bce-8714-07ce439e665e","","null","<div style=""display: flex; justify-content: center; align-items: center;"">
                <img src=""images/causal/causal_series_1/causal_series_1_d.jpg"" style=""width: 300px; height: 300px;"" />
              </div>","null",""
"","","","","","html-keyboard-response","76","983196","0.0-52.0","502060A98610498DBC32348A33A1EE33","a562be1c-5d7d-4ba6-8108-4e0404be536d","23db58b9-63b0-4bce-8714-07ce439e665e","","null","<div style=""display: flex; justify-content: center; align-items: center;"">
                <img src=""images/other/blank.jpg"" style=""width: 300px; height: 300px;"" />
              </div>","null",""
"","","","","","html-keyboard-response","77","986198","0.0-53.0","502060A98610498DBC32348A33A1EE33","a562be1c-5d7d-4ba6-8108-4e0404be536d","23db58b9-63b0-4bce-8714-07ce439e665e","","null","<div style=""display: flex; justify-content: center; align-items: center;"">
                <img src=""images/causal/causal_series_8/causal_series_8_a.jpg"" style=""width: 300px; height: 300px;"" />
              </div>","null",""
"","","","","","html-button-response","78","989019","0.0-54.0","502060A98610498DBC32348A33A1EE33","a562be1c-5d7d-4ba6-8108-4e0404be536d","23db58b9-63b0-4bce-8714-07ce439e665e","","2820","
    <div style=""display: flex; justify-content: center; align-items: center;"">
      <img src=""images/red_deck_2.png"" style=""width: 300px; height: 300px; margin-right: 10px;"" />
      <img src=""images/blue_deck_1.png"" style=""width: 300px; height: 300px;"" />
    </div>","0","0"
"","","","","","html-keyboard-response","79","992021","0.0-55.0-0.0-0.0","502060A98610498DBC32348A33A1EE33","a562be1c-5d7d-4ba6-8108-4e0404be536d","23db58b9-63b0-4bce-8714-07ce439e665e","","null","<div style=""display: flex; justify-content: center; align-items: center;"">
                <img src=""images/causal/causal_series_8/causal_series_8_b.jpg"" style=""width: 300px; height: 300px;"" />
              </div>","null",""
"","","","","","html-keyboard-response","80","995022","0.0-55.0-0.0-1.0","502060A98610498DBC32348A33A1EE33","a562be1c-5d7d-4ba6-8108-4e0404be536d","23db58b9-63b0-4bce-8714-07ce439e665e","","null","<div style=""display: flex; justify-content: center; align-items: center;"">
                <img src=""images/causal/causal_series_8/causal_series_8_c.jpg"" style=""width: 300px; height: 300px;"" />
              </div>","null",""
"","","","","","html-keyboard-response","81","998025","0.0-55.0-0.0-2.0","502060A98610498DBC32348A33A1EE33","a562be1c-5d7d-4ba6-8108-4e0404be536d","23db58b9-63b0-4bce-8714-07ce439e665e","","null","<div style=""display: flex; justify-content: center; align-items: center;"">
                <img src=""images/causal/causal_series_8/causal_series_8_d.jpg"" style=""width: 300px; height: 300px;"" />
              </div>","null",""
"","","","","","html-keyboard-response","82","1001027","0.0-56.0","502060A98610498DBC32348A33A1EE33","a562be1c-5d7d-4ba6-8108-4e0404be536d","23db58b9-63b0-4bce-8714-07ce439e665e","","null","<div style=""display: flex; justify-content: center; align-items: center;"">
                <img src=""images/other/blank.jpg"" style=""width: 300px; height: 300px;"" />
              </div>","null",""
"","","","","","html-keyboard-response","83","1004029","0.0-57.0","502060A98610498DBC32348A33A1EE33","a562be1c-5d7d-4ba6-8108-4e0404be536d","23db58b9-63b0-4bce-8714-07ce439e665e","","null","<div style=""display: flex; justify-content: center; align-items: center;"">
                <img src=""images/causal/causal_series_9/causal_series_9_a.jpg"" style=""width: 300px; height: 300px;"" />
              </div>","null",""
"","","","","","html-button-response","84","1011079","0.0-58.0","502060A98610498DBC32348A33A1EE33","a562be1c-5d7d-4ba6-8108-4e0404be536d","23db58b9-63b0-4bce-8714-07ce439e665e","","7048","
    <div style=""display: flex; justify-content: center; align-items: center;"">
      <img src=""images/red_deck_2.png"" style=""width: 300px; height: 300px; margin-right: 10px;"" />
      <img src=""images/blue_deck_1.png"" style=""width: 300px; height: 300px;"" />
    </div>","1","1"
"","","","","","html-keyboard-response","85","1014081","0.0-59.0-1.0-0.0","502060A98610498DBC32348A33A1EE33","a562be1c-5d7d-4ba6-8108-4e0404be536d","23db58b9-63b0-4bce-8714-07ce439e665e","","null","<div style=""display: flex; justify-content: center; align-items: center;"">
                <img src=""images/semantic/semantic_series_6/semantic_series_6_d.jpg"" style=""width: 300px; height: 300px;"" />
              </div>","null",""
"","","","","","html-keyboard-response","86","1017084","0.0-59.0-1.0-1.0","502060A98610498DBC32348A33A1EE33","a562be1c-5d7d-4ba6-8108-4e0404be536d","23db58b9-63b0-4bce-8714-07ce439e665e","","null","<div style=""display: flex; justify-content: center; align-items: center;"">
                <img src=""images/semantic/semantic_series_7/semantic_series_7_d.jpg"" style=""width: 300px; height: 300px;"" />
              </div>","null",""
"","","","","","html-keyboard-response","87","1020086","0.0-59.0-1.0-2.0","502060A98610498DBC32348A33A1EE33","a562be1c-5d7d-4ba6-8108-4e0404be536d","23db58b9-63b0-4bce-8714-07ce439e665e","","null","<div style=""display: flex; justify-content: center; align-items: center;"">
                <img src=""images/semantic/semantic_series_8/semantic_series_8_d.jpg"" style=""width: 300px; height: 300px;"" />
              </div>","null",""
"","","","","","html-keyboard-response","88","1023088","0.0-60.0","502060A98610498DBC32348A33A1EE33","a562be1c-5d7d-4ba6-8108-4e0404be536d","23db58b9-63b0-4bce-8714-07ce439e665e","","null","<div style=""display: flex; justify-content: center; align-items: center;"">
                <img src=""images/other/blank.jpg"" style=""width: 300px; height: 300px;"" />
              </div>","null",""
"","","","","","html-keyboard-response","89","1026089","0.0-61.0","502060A98610498DBC32348A33A1EE33","a562be1c-5d7d-4ba6-8108-4e0404be536d","23db58b9-63b0-4bce-8714-07ce439e665e","","null","<div style=""display: flex; justify-content: center; align-items: center;"">
                <img src=""images/causal/causal_series_6/causal_series_6_a.jpg"" style=""width: 300px; height: 300px;"" />
              </div>","null",""
"","","","","","html-button-response","90","1029870","0.0-62.0","502060A98610498DBC32348A33A1EE33","a562be1c-5d7d-4ba6-8108-4e0404be536d","23db58b9-63b0-4bce-8714-07ce439e665e","","3780","
    <div style=""display: flex; justify-content: center; align-items: center;"">
      <img src=""images/red_deck_2.png"" style=""width: 300px; height: 300px; margin-right: 10px;"" />
      <img src=""images/blue_deck_1.png"" style=""width: 300px; height: 300px;"" />
    </div>","0","0"
"","","","","","html-keyboard-response","91","1032872","0.0-63.0-0.0-0.0","502060A98610498DBC32348A33A1EE33","a562be1c-5d7d-4ba6-8108-4e0404be536d","23db58b9-63b0-4bce-8714-07ce439e665e","","null","<div style=""display: flex; justify-content: center; align-items: center;"">
                <img src=""images/causal/causal_series_6/causal_series_6_b.jpg"" style=""width: 300px; height: 300px;"" />
              </div>","null",""
"","","","","","html-keyboard-response","92","1035874","0.0-63.0-0.0-1.0","502060A98610498DBC32348A33A1EE33","a562be1c-5d7d-4ba6-8108-4e0404be536d","23db58b9-63b0-4bce-8714-07ce439e665e","","null","<div style=""display: flex; justify-content: center; align-items: center;"">
                <img src=""images/causal/causal_series_6/causal_series_6_c.jpg"" style=""width: 300px; height: 300px;"" />
              </div>","null",""
"","","","","","html-keyboard-response","93","1038876","0.0-63.0-0.0-2.0","502060A98610498DBC32348A33A1EE33","a562be1c-5d7d-4ba6-8108-4e0404be536d","23db58b9-63b0-4bce-8714-07ce439e665e","","null","<div style=""display: flex; justify-content: center; align-items: center;"">
                <img src=""images/causal/causal_series_6/causal_series_6_d.jpg"" style=""width: 300px; height: 300px;"" />
              </div>","null",""
"","","","","","html-keyboard-response","94","1041878","0.0-64.0","502060A98610498DBC32348A33A1EE33","a562be1c-5d7d-4ba6-8108-4e0404be536d","23db58b9-63b0-4bce-8714-07ce439e665e","","null","<div style=""display: flex; justify-content: center; align-items: center;"">
                <img src=""images/other/blank.jpg"" style=""width: 300px; height: 300px;"" />
              </div>","null",""
"","","","","","html-keyboard-response","95","1044880","0.0-65.0","502060A98610498DBC32348A33A1EE33","a562be1c-5d7d-4ba6-8108-4e0404be536d","23db58b9-63b0-4bce-8714-07ce439e665e","","null","<div style=""display: flex; justify-content: center; align-items: center;"">
                <img src=""images/causal/causal_series_4/causal_series_4_a.jpg"" style=""width: 300px; height: 300px;"" />
              </div>","null",""
"","","","","","html-button-response","96","1047417","0.0-66.0","502060A98610498DBC32348A33A1EE33","a562be1c-5d7d-4ba6-8108-4e0404be536d","23db58b9-63b0-4bce-8714-07ce439e665e","","2537","
    <div style=""display: flex; justify-content: center; align-items: center;"">
      <img src=""images/red_deck_2.png"" style=""width: 300px; height: 300px; margin-right: 10px;"" />
      <img src=""images/blue_deck_1.png"" style=""width: 300px; height: 300px;"" />
    </div>","0","0"
"","","","","","html-keyboard-response","97","1050420","0.0-67.0-0.0-0.0","502060A98610498DBC32348A33A1EE33","a562be1c-5d7d-4ba6-8108-4e0404be536d","23db58b9-63b0-4bce-8714-07ce439e665e","","null","<div style=""display: flex; justify-content: center; align-items: center;"">
                <img src=""images/causal/causal_series_4/causal_series_4_b.jpg"" style=""width: 300px; height: 300px;"" />
              </div>","null",""
"","","","","","html-keyboard-response","98","1053422","0.0-67.0-0.0-1.0","502060A98610498DBC32348A33A1EE33","a562be1c-5d7d-4ba6-8108-4e0404be536d","23db58b9-63b0-4bce-8714-07ce439e665e","","null","<div style=""display: flex; justify-content: center; align-items: center;"">
                <img src=""images/causal/causal_series_4/causal_series_4_c.jpg"" style=""width: 300px; height: 300px;"" />
              </div>","null",""
"","","","","","html-keyboard-response","99","1056425","0.0-67.0-0.0-2.0","502060A98610498DBC32348A33A1EE33","a562be1c-5d7d-4ba6-8108-4e0404be536d","23db58b9-63b0-4bce-8714-07ce439e665e","","null","<div style=""display: flex; justify-content: center; align-items: center;"">
                <img src=""images/causal/causal_series_4/causal_series_4_d.jpg"" style=""width: 300px; height: 300px;"" />
              </div>","null",""
"","","","","","html-keyboard-response","100","1059427","0.0-68.0","502060A98610498DBC32348A33A1EE33","a562be1c-5d7d-4ba6-8108-4e0404be536d","23db58b9-63b0-4bce-8714-07ce439e665e","","null","<div style=""display: flex; justify-content: center; align-items: center;"">
                <img src=""images/other/blank.jpg"" style=""width: 300px; height: 300px;"" />
              </div>","null",""
"","","","","","html-keyboard-response","101","1062431","0.0-69.0","502060A98610498DBC32348A33A1EE33","a562be1c-5d7d-4ba6-8108-4e0404be536d","23db58b9-63b0-4bce-8714-07ce439e665e","","null","<div style=""display: flex; justify-content: center; align-items: center;"">
                <img src=""images/causal/causal_series_18/causal_series_18_a.jpg"" style=""width: 300px; height: 300px;"" />
              </div>","null",""
"","","","","","html-button-response","102","1077676","0.0-70.0","502060A98610498DBC32348A33A1EE33","a562be1c-5d7d-4ba6-8108-4e0404be536d","23db58b9-63b0-4bce-8714-07ce439e665e","","15242","
    <div style=""display: flex; justify-content: center; align-items: center;"">
      <img src=""images/red_deck_2.png"" style=""width: 300px; height: 300px; margin-right: 10px;"" />
      <img src=""images/blue_deck_1.png"" style=""width: 300px; height: 300px;"" />
    </div>","0","0"
"","","","","","html-keyboard-response","103","1080679","0.0-71.0-0.0-0.0","502060A98610498DBC32348A33A1EE33","a562be1c-5d7d-4ba6-8108-4e0404be536d","23db58b9-63b0-4bce-8714-07ce439e665e","","null","<div style=""display: flex; justify-content: center; align-items: center;"">
                <img src=""images/causal/causal_series_18/causal_series_18_b.jpg"" style=""width: 300px; height: 300px;"" />
              </div>","null",""
"","","","","","html-keyboard-response","104","1083681","0.0-71.0-0.0-1.0","502060A98610498DBC32348A33A1EE33","a562be1c-5d7d-4ba6-8108-4e0404be536d","23db58b9-63b0-4bce-8714-07ce439e665e","","null","<div style=""display: flex; justify-content: center; align-items: center;"">
                <img src=""images/causal/causal_series_18/causal_series_18_c.jpg"" style=""width: 300px; height: 300px;"" />
              </div>","null",""
"","","","","","html-keyboard-response","105","1086683","0.0-71.0-0.0-2.0","502060A98610498DBC32348A33A1EE33","a562be1c-5d7d-4ba6-8108-4e0404be536d","23db58b9-63b0-4bce-8714-07ce439e665e","","null","<div style=""display: flex; justify-content: center; align-items: center;"">
                <img src=""images/causal/causal_series_18/causal_series_18_d.jpg"" style=""width: 300px; height: 300px;"" />
              </div>","null",""
"","","","","","html-keyboard-response","106","1089684","0.0-72.0","502060A98610498DBC32348A33A1EE33","a562be1c-5d7d-4ba6-8108-4e0404be536d","23db58b9-63b0-4bce-8714-07ce439e665e","","null","<div style=""display: flex; justify-content: center; align-items: center;"">
                <img src=""images/other/blank.jpg"" style=""width: 300px; height: 300px;"" />
              </div>","null",""
"","","","","","html-keyboard-response","107","1092686","0.0-73.0","502060A98610498DBC32348A33A1EE33","a562be1c-5d7d-4ba6-8108-4e0404be536d","23db58b9-63b0-4bce-8714-07ce439e665e","","null","<div style=""display: flex; justify-content: center; align-items: center;"">
                <img src=""images/causal/causal_series_16/causal_series_16_a.jpg"" style=""width: 300px; height: 300px;"" />
              </div>","null",""
"","","","","","html-button-response","108","1096622","0.0-74.0","502060A98610498DBC32348A33A1EE33","a562be1c-5d7d-4ba6-8108-4e0404be536d","23db58b9-63b0-4bce-8714-07ce439e665e","","3935","
    <div style=""display: flex; justify-content: center; align-items: center;"">
      <img src=""images/red_deck_2.png"" style=""width: 300px; height: 300px; margin-right: 10px;"" />
      <img src=""images/blue_deck_1.png"" style=""width: 300px; height: 300px;"" />
    </div>","0","0"
"","","","","","html-keyboard-response","109","1099624","0.0-75.0-0.0-0.0","502060A98610498DBC32348A33A1EE33","a562be1c-5d7d-4ba6-8108-4e0404be536d","23db58b9-63b0-4bce-8714-07ce439e665e","","null","<div style=""display: flex; justify-content: center; align-items: center;"">
                <img src=""images/causal/causal_series_16/causal_series_16_b.jpg"" style=""width: 300px; height: 300px;"" />
              </div>","null",""
"","","","","","html-keyboard-response","110","1102627","0.0-75.0-0.0-1.0","502060A98610498DBC32348A33A1EE33","a562be1c-5d7d-4ba6-8108-4e0404be536d","23db58b9-63b0-4bce-8714-07ce439e665e","","null","<div style=""display: flex; justify-content: center; align-items: center;"">
                <img src=""images/causal/causal_series_16/causal_series_16_c.jpg"" style=""width: 300px; height: 300px;"" />
              </div>","null",""
"","","","","","html-keyboard-response","111","1105631","0.0-75.0-0.0-2.0","502060A98610498DBC32348A33A1EE33","a562be1c-5d7d-4ba6-8108-4e0404be536d","23db58b9-63b0-4bce-8714-07ce439e665e","","null","<div style=""display: flex; justify-content: center; align-items: center;"">
                <img src=""images/causal/causal_series_16/causal_series_16_d.jpg"" style=""width: 300px; height: 300px;"" />
              </div>","null",""
"","","","","","html-keyboard-response","112","1108634","0.0-76.0","502060A98610498DBC32348A33A1EE33","a562be1c-5d7d-4ba6-8108-4e0404be536d","23db58b9-63b0-4bce-8714-07ce439e665e","","null","<div style=""display: flex; justify-content: center; align-items: center;"">
                <img src=""images/other/blank.jpg"" style=""width: 300px; height: 300px;"" />
              </div>","null",""
"","","","","","survey-text","113","1127589","0.0-77.0","502060A98610498DBC32348A33A1EE33","a562be1c-5d7d-4ba6-8108-4e0404be536d","23db58b9-63b0-4bce-8714-07ce439e665e","","18950","","{""Q0"":""one was blue colored and the other was red ""}",""
"","","","","","survey-text","114","1141111","0.0-78.0","502060A98610498DBC32348A33A1EE33","a562be1c-5d7d-4ba6-8108-4e0404be536d","23db58b9-63b0-4bce-8714-07ce439e665e","","13521","","{""Q0"":""red it seemed like the design popped more ""}",""
"","","","","","html-button-response","115","1147455","0.0-79.0","502060A98610498DBC32348A33A1EE33","a562be1c-5d7d-4ba6-8108-4e0404be536d","23db58b9-63b0-4bce-8714-07ce439e665e","","6343","Which color deck does the fourth image continue the story from the series?","1",""
"","","","","","html-button-response","116","1150771","0.0-80.0","502060A98610498DBC32348A33A1EE33","a562be1c-5d7d-4ba6-8108-4e0404be536d","23db58b9-63b0-4bce-8714-07ce439e665e","","3316","Which color deck does the fourth image not follow the story from the series?","0",""
"","","","","","survey-text","117","1156886","0.0-81.0","502060A98610498DBC32348A33A1EE33","a562be1c-5d7d-4ba6-8108-4e0404be536d","23db58b9-63b0-4bce-8714-07ce439e665e","","6113","","{""Q0"":""Female"",""Q1"":""56""}",""
"","","","","","instructions","118","1159938","0.0-82.0","502060A98610498DBC32348A33A1EE33","a562be1c-5d7d-4ba6-8108-4e0404be536d","23db58b9-63b0-4bce-8714-07ce439e665e","[{""page_index"":0,""viewing_time"":3051}]","3051","","",""
