"success","timeout","failed_images","failed_audio","failed_video","trial_type","trial_index","time_elapsed","internal_node_id","subject_id","study_id","session_id","view_history","rt","stimulus","response","choice"
"true","false","[]","[]","[]","preload","0","6207","0.0-0.0","DDF654B04475461CAA83D9BFD3636F52","320c5bdd-807e-406a-8ee5-daf2a38a0f1f","683bf07d-1a26-40b1-9cff-5abdc1eed0ee","","","","",""
"","","","","","instructions","1","14107","0.0-1.0","DDF654B04475461CAA83D9BFD3636F52","320c5bdd-807e-406a-8ee5-daf2a38a0f1f","683bf07d-1a26-40b1-9cff-5abdc1eed0ee","[{""page_index"":0,""viewing_time"":7899}]","7899","","",""
"","","","","","instructions","2","21349","0.0-2.0","DDF654B04475461CAA83D9BFD3636F52","320c5bdd-807e-406a-8ee5-daf2a38a0f1f","683bf07d-1a26-40b1-9cff-5abdc1eed0ee","[{""page_index"":0,""viewing_time"":7242}]","7242","","",""
"true","","","","","fullscreen","3","31715","0.0-3.0","DDF654B04475461CAA83D9BFD3636F52","320c5bdd-807e-406a-8ee5-daf2a38a0f1f","683bf07d-1a26-40b1-9cff-5abdc1eed0ee","","9350","","",""
"","","","","","instructions","4","171190","0.0-4.0","DDF654B04475461CAA83D9BFD3636F52","320c5bdd-807e-406a-8ee5-daf2a38a0f1f","683bf07d-1a26-40b1-9cff-5abdc1eed0ee","[{""page_index"":0,""viewing_time"":139475}]","139475","","",""
"","","","","","html-keyboard-response","5","174192","0.0-5.0","DDF654B04475461CAA83D9BFD3636F52","320c5bdd-807e-406a-8ee5-daf2a38a0f1f","683bf07d-1a26-40b1-9cff-5abdc1eed0ee","","null","<div style=""display: flex; justify-content: center; align-items: center;"">
                <img src=""images/causal/causal_series_6/causal_series_6_a.jpg"" style=""width: 300px; height: 300px;"" />
              </div>","null",""
"","","","","","html-keyboard-response","6","177201","0.0-6.0","DDF654B04475461CAA83D9BFD3636F52","320c5bdd-807e-406a-8ee5-daf2a38a0f1f","683bf07d-1a26-40b1-9cff-5abdc1eed0ee","","null","<div style=""display: flex; justify-content: center; align-items: center;"">
                <img src=""images/causal/causal_series_6/causal_series_6_b.jpg"" style=""width: 300px; height: 300px;"" />
              </div>","null",""
"","","","","","html-keyboard-response","7","180213","0.0-7.0","DDF654B04475461CAA83D9BFD3636F52","320c5bdd-807e-406a-8ee5-daf2a38a0f1f","683bf07d-1a26-40b1-9cff-5abdc1eed0ee","","null","<div style=""display: flex; justify-content: center; align-items: center;"">
                <img src=""images/causal/causal_series_6/causal_series_6_c.jpg"" style=""width: 300px; height: 300px;"" />
              </div>","null",""
"","","","","","html-button-response","8","189798","0.0-8.0","DDF654B04475461CAA83D9BFD3636F52","320c5bdd-807e-406a-8ee5-daf2a38a0f1f","683bf07d-1a26-40b1-9cff-5abdc1eed0ee","","9583","
    <div style=""display: flex; justify-content: center; align-items: center;"">
      <img src=""images/red_deck_2.png"" style=""width: 300px; height: 300px; margin-right: 10px;"" />
      <img src=""images/blue_deck_1.png"" style=""width: 300px; height: 300px;"" />
    </div>","0","0"
"","","","","","html-keyboard-response","9","192803","0.0-9.0-0.0-0.0","DDF654B04475461CAA83D9BFD3636F52","320c5bdd-807e-406a-8ee5-daf2a38a0f1f","683bf07d-1a26-40b1-9cff-5abdc1eed0ee","","null","<div style=""display: flex; justify-content: center; align-items: center;"">
                <img src=""images/causal/causal_series_6/causal_series_6_d.jpg"" style=""width: 300px; height: 300px;"" />
              </div>","null",""
"","","","","","html-keyboard-response","10","195813","0.0-10.0","DDF654B04475461CAA83D9BFD3636F52","320c5bdd-807e-406a-8ee5-daf2a38a0f1f","683bf07d-1a26-40b1-9cff-5abdc1eed0ee","","null","<div style=""display: flex; justify-content: center; align-items: center;"">
                <img src=""images/other/blank.jpg"" style=""width: 300px; height: 300px;"" />
              </div>","null",""
"","","","","","html-keyboard-response","11","198816","0.0-11.0","DDF654B04475461CAA83D9BFD3636F52","320c5bdd-807e-406a-8ee5-daf2a38a0f1f","683bf07d-1a26-40b1-9cff-5abdc1eed0ee","","null","<div style=""display: flex; justify-content: center; align-items: center;"">
                <img src=""images/causal/causal_series_13/causal_series_13_a.jpg"" style=""width: 300px; height: 300px;"" />
              </div>","null",""
"","","","","","html-keyboard-response","12","201819","0.0-12.0","DDF654B04475461CAA83D9BFD3636F52","320c5bdd-807e-406a-8ee5-daf2a38a0f1f","683bf07d-1a26-40b1-9cff-5abdc1eed0ee","","null","<div style=""display: flex; justify-content: center; align-items: center;"">
                <img src=""images/causal/causal_series_13/causal_series_13_b.jpg"" style=""width: 300px; height: 300px;"" />
              </div>","null",""
"","","","","","html-keyboard-response","13","204821","0.0-13.0","DDF654B04475461CAA83D9BFD3636F52","320c5bdd-807e-406a-8ee5-daf2a38a0f1f","683bf07d-1a26-40b1-9cff-5abdc1eed0ee","","null","<div style=""display: flex; justify-content: center; align-items: center;"">
                <img src=""images/causal/causal_series_13/causal_series_13_c.jpg"" style=""width: 300px; height: 300px;"" />
              </div>","null",""
"","","","","","html-button-response","14","211092","0.0-14.0","DDF654B04475461CAA83D9BFD3636F52","320c5bdd-807e-406a-8ee5-daf2a38a0f1f","683bf07d-1a26-40b1-9cff-5abdc1eed0ee","","6270","
    <div style=""display: flex; justify-content: center; align-items: center;"">
      <img src=""images/red_deck_2.png"" style=""width: 300px; height: 300px; margin-right: 10px;"" />
      <img src=""images/blue_deck_1.png"" style=""width: 300px; height: 300px;"" />
    </div>","0","0"
"","","","","","html-keyboard-response","15","214097","0.0-15.0-0.0-0.0","DDF654B04475461CAA83D9BFD3636F52","320c5bdd-807e-406a-8ee5-daf2a38a0f1f","683bf07d-1a26-40b1-9cff-5abdc1eed0ee","","null","<div style=""display: flex; justify-content: center; align-items: center;"">
                <img src=""images/causal/causal_series_13/causal_series_13_d.jpg"" style=""width: 300px; height: 300px;"" />
              </div>","null",""
"","","","","","html-keyboard-response","16","217113","0.0-16.0","DDF654B04475461CAA83D9BFD3636F52","320c5bdd-807e-406a-8ee5-daf2a38a0f1f","683bf07d-1a26-40b1-9cff-5abdc1eed0ee","","null","<div style=""display: flex; justify-content: center; align-items: center;"">
                <img src=""images/other/blank.jpg"" style=""width: 300px; height: 300px;"" />
              </div>","null",""
"","","","","","html-keyboard-response","17","220119","0.0-17.0","DDF654B04475461CAA83D9BFD3636F52","320c5bdd-807e-406a-8ee5-daf2a38a0f1f","683bf07d-1a26-40b1-9cff-5abdc1eed0ee","","null","<div style=""display: flex; justify-content: center; align-items: center;"">
                <img src=""images/causal/causal_series_1/causal_series_1_a.jpg"" style=""width: 300px; height: 300px;"" />
              </div>","null",""
"","","","","","html-keyboard-response","18","223122","0.0-18.0","DDF654B04475461CAA83D9BFD3636F52","320c5bdd-807e-406a-8ee5-daf2a38a0f1f","683bf07d-1a26-40b1-9cff-5abdc1eed0ee","","null","<div style=""display: flex; justify-content: center; align-items: center;"">
                <img src=""images/causal/causal_series_1/causal_series_1_b.jpg"" style=""width: 300px; height: 300px;"" />
              </div>","null",""
"","","","","","html-keyboard-response","19","226124","0.0-19.0","DDF654B04475461CAA83D9BFD3636F52","320c5bdd-807e-406a-8ee5-daf2a38a0f1f","683bf07d-1a26-40b1-9cff-5abdc1eed0ee","","null","<div style=""display: flex; justify-content: center; align-items: center;"">
                <img src=""images/causal/causal_series_1/causal_series_1_c.jpg"" style=""width: 300px; height: 300px;"" />
              </div>","null",""
"","","","","","html-button-response","20","236730","0.0-20.0","DDF654B04475461CAA83D9BFD3636F52","320c5bdd-807e-406a-8ee5-daf2a38a0f1f","683bf07d-1a26-40b1-9cff-5abdc1eed0ee","","10605","
    <div style=""display: flex; justify-content: center; align-items: center;"">
      <img src=""images/red_deck_2.png"" style=""width: 300px; height: 300px; margin-right: 10px;"" />
      <img src=""images/blue_deck_1.png"" style=""width: 300px; height: 300px;"" />
    </div>","1","1"
"","","","","","html-keyboard-response","21","239739","0.0-21.0-1.0-0.0","DDF654B04475461CAA83D9BFD3636F52","320c5bdd-807e-406a-8ee5-daf2a38a0f1f","683bf07d-1a26-40b1-9cff-5abdc1eed0ee","","null","<div style=""display: flex; justify-content: center; align-items: center;"">
                <img src=""images/semantic/semantic_series_18/semantic_series_18_d.jpg"" style=""width: 300px; height: 300px;"" />
              </div>","null",""
"","","","","","html-keyboard-response","22","242753","0.0-22.0","DDF654B04475461CAA83D9BFD3636F52","320c5bdd-807e-406a-8ee5-daf2a38a0f1f","683bf07d-1a26-40b1-9cff-5abdc1eed0ee","","null","<div style=""display: flex; justify-content: center; align-items: center;"">
                <img src=""images/other/blank.jpg"" style=""width: 300px; height: 300px;"" />
              </div>","null",""
"","","","","","html-keyboard-response","23","245759","0.0-23.0","DDF654B04475461CAA83D9BFD3636F52","320c5bdd-807e-406a-8ee5-daf2a38a0f1f","683bf07d-1a26-40b1-9cff-5abdc1eed0ee","","null","<div style=""display: flex; justify-content: center; align-items: center;"">
                <img src=""images/causal/causal_series_15/causal_series_15_a.jpg"" style=""width: 300px; height: 300px;"" />
              </div>","null",""
"","","","","","html-keyboard-response","24","248762","0.0-24.0","DDF654B04475461CAA83D9BFD3636F52","320c5bdd-807e-406a-8ee5-daf2a38a0f1f","683bf07d-1a26-40b1-9cff-5abdc1eed0ee","","null","<div style=""display: flex; justify-content: center; align-items: center;"">
                <img src=""images/causal/causal_series_15/causal_series_15_b.jpg"" style=""width: 300px; height: 300px;"" />
              </div>","null",""
"","","","","","html-keyboard-response","25","251765","0.0-25.0","DDF654B04475461CAA83D9BFD3636F52","320c5bdd-807e-406a-8ee5-daf2a38a0f1f","683bf07d-1a26-40b1-9cff-5abdc1eed0ee","","null","<div style=""display: flex; justify-content: center; align-items: center;"">
                <img src=""images/causal/causal_series_15/causal_series_15_c.jpg"" style=""width: 300px; height: 300px;"" />
              </div>","null",""
"","","","","","html-button-response","26","259188","0.0-26.0","DDF654B04475461CAA83D9BFD3636F52","320c5bdd-807e-406a-8ee5-daf2a38a0f1f","683bf07d-1a26-40b1-9cff-5abdc1eed0ee","","7421","
    <div style=""display: flex; justify-content: center; align-items: center;"">
      <img src=""images/red_deck_2.png"" style=""width: 300px; height: 300px; margin-right: 10px;"" />
      <img src=""images/blue_deck_1.png"" style=""width: 300px; height: 300px;"" />
    </div>","1","1"
"","","","","","html-keyboard-response","27","262190","0.0-27.0-1.0-0.0","DDF654B04475461CAA83D9BFD3636F52","320c5bdd-807e-406a-8ee5-daf2a38a0f1f","683bf07d-1a26-40b1-9cff-5abdc1eed0ee","","null","<div style=""display: flex; justify-content: center; align-items: center;"">
                <img src=""images/semantic/semantic_series_14/semantic_series_14_d.jpg"" style=""width: 300px; height: 300px;"" />
              </div>","null",""
"","","","","","html-keyboard-response","28","265194","0.0-28.0","DDF654B04475461CAA83D9BFD3636F52","320c5bdd-807e-406a-8ee5-daf2a38a0f1f","683bf07d-1a26-40b1-9cff-5abdc1eed0ee","","null","<div style=""display: flex; justify-content: center; align-items: center;"">
                <img src=""images/other/blank.jpg"" style=""width: 300px; height: 300px;"" />
              </div>","null",""
"","","","","","html-keyboard-response","29","268198","0.0-29.0","DDF654B04475461CAA83D9BFD3636F52","320c5bdd-807e-406a-8ee5-daf2a38a0f1f","683bf07d-1a26-40b1-9cff-5abdc1eed0ee","","null","<div style=""display: flex; justify-content: center; align-items: center;"">
                <img src=""images/causal/causal_series_14/causal_series_14_a.jpg"" style=""width: 300px; height: 300px;"" />
              </div>","null",""
"","","","","","html-keyboard-response","30","271201","0.0-30.0","DDF654B04475461CAA83D9BFD3636F52","320c5bdd-807e-406a-8ee5-daf2a38a0f1f","683bf07d-1a26-40b1-9cff-5abdc1eed0ee","","null","<div style=""display: flex; justify-content: center; align-items: center;"">
                <img src=""images/causal/causal_series_14/causal_series_14_b.jpg"" style=""width: 300px; height: 300px;"" />
              </div>","null",""
"","","","","","html-keyboard-response","31","274202","0.0-31.0","DDF654B04475461CAA83D9BFD3636F52","320c5bdd-807e-406a-8ee5-daf2a38a0f1f","683bf07d-1a26-40b1-9cff-5abdc1eed0ee","","null","<div style=""display: flex; justify-content: center; align-items: center;"">
                <img src=""images/causal/causal_series_14/causal_series_14_c.jpg"" style=""width: 300px; height: 300px;"" />
              </div>","null",""
"","","","","","html-button-response","32","276140","0.0-32.0","DDF654B04475461CAA83D9BFD3636F52","320c5bdd-807e-406a-8ee5-daf2a38a0f1f","683bf07d-1a26-40b1-9cff-5abdc1eed0ee","","1936","
    <div style=""display: flex; justify-content: center; align-items: center;"">
      <img src=""images/red_deck_2.png"" style=""width: 300px; height: 300px; margin-right: 10px;"" />
      <img src=""images/blue_deck_1.png"" style=""width: 300px; height: 300px;"" />
    </div>","0","0"
"","","","","","html-keyboard-response","33","279155","0.0-33.0-0.0-0.0","DDF654B04475461CAA83D9BFD3636F52","320c5bdd-807e-406a-8ee5-daf2a38a0f1f","683bf07d-1a26-40b1-9cff-5abdc1eed0ee","","null","<div style=""display: flex; justify-content: center; align-items: center;"">
                <img src=""images/causal/causal_series_14/causal_series_14_d.jpg"" style=""width: 300px; height: 300px;"" />
              </div>","null",""
"","","","","","html-keyboard-response","34","282158","0.0-34.0","DDF654B04475461CAA83D9BFD3636F52","320c5bdd-807e-406a-8ee5-daf2a38a0f1f","683bf07d-1a26-40b1-9cff-5abdc1eed0ee","","null","<div style=""display: flex; justify-content: center; align-items: center;"">
                <img src=""images/other/blank.jpg"" style=""width: 300px; height: 300px;"" />
              </div>","null",""
"","","","","","html-keyboard-response","35","285162","0.0-35.0","DDF654B04475461CAA83D9BFD3636F52","320c5bdd-807e-406a-8ee5-daf2a38a0f1f","683bf07d-1a26-40b1-9cff-5abdc1eed0ee","","null","<div style=""display: flex; justify-content: center; align-items: center;"">
                <img src=""images/causal/causal_series_9/causal_series_9_a.jpg"" style=""width: 300px; height: 300px;"" />
              </div>","null",""
"","","","","","html-keyboard-response","36","288165","0.0-36.0","DDF654B04475461CAA83D9BFD3636F52","320c5bdd-807e-406a-8ee5-daf2a38a0f1f","683bf07d-1a26-40b1-9cff-5abdc1eed0ee","","null","<div style=""display: flex; justify-content: center; align-items: center;"">
                <img src=""images/causal/causal_series_9/causal_series_9_b.jpg"" style=""width: 300px; height: 300px;"" />
              </div>","null",""
"","","","","","html-keyboard-response","37","291168","0.0-37.0","DDF654B04475461CAA83D9BFD3636F52","320c5bdd-807e-406a-8ee5-daf2a38a0f1f","683bf07d-1a26-40b1-9cff-5abdc1eed0ee","","null","<div style=""display: flex; justify-content: center; align-items: center;"">
                <img src=""images/causal/causal_series_9/causal_series_9_c.jpg"" style=""width: 300px; height: 300px;"" />
              </div>","null",""
"","","","","","html-button-response","38","293065","0.0-38.0","DDF654B04475461CAA83D9BFD3636F52","320c5bdd-807e-406a-8ee5-daf2a38a0f1f","683bf07d-1a26-40b1-9cff-5abdc1eed0ee","","1896","
    <div style=""display: flex; justify-content: center; align-items: center;"">
      <img src=""images/red_deck_2.png"" style=""width: 300px; height: 300px; margin-right: 10px;"" />
      <img src=""images/blue_deck_1.png"" style=""width: 300px; height: 300px;"" />
    </div>","0","0"
"","","","","","html-keyboard-response","39","296068","0.0-39.0-0.0-0.0","DDF654B04475461CAA83D9BFD3636F52","320c5bdd-807e-406a-8ee5-daf2a38a0f1f","683bf07d-1a26-40b1-9cff-5abdc1eed0ee","","null","<div style=""display: flex; justify-content: center; align-items: center;"">
                <img src=""images/causal/causal_series_9/causal_series_9_d.jpg"" style=""width: 300px; height: 300px;"" />
              </div>","null",""
"","","","","","html-keyboard-response","40","299069","0.0-40.0","DDF654B04475461CAA83D9BFD3636F52","320c5bdd-807e-406a-8ee5-daf2a38a0f1f","683bf07d-1a26-40b1-9cff-5abdc1eed0ee","","null","<div style=""display: flex; justify-content: center; align-items: center;"">
                <img src=""images/other/blank.jpg"" style=""width: 300px; height: 300px;"" />
              </div>","null",""
"","","","","","html-keyboard-response","41","302084","0.0-41.0","DDF654B04475461CAA83D9BFD3636F52","320c5bdd-807e-406a-8ee5-daf2a38a0f1f","683bf07d-1a26-40b1-9cff-5abdc1eed0ee","","null","<div style=""display: flex; justify-content: center; align-items: center;"">
                <img src=""images/causal/causal_series_17/causal_series_17_a.jpg"" style=""width: 300px; height: 300px;"" />
              </div>","null",""
"","","","","","html-keyboard-response","42","305097","0.0-42.0","DDF654B04475461CAA83D9BFD3636F52","320c5bdd-807e-406a-8ee5-daf2a38a0f1f","683bf07d-1a26-40b1-9cff-5abdc1eed0ee","","null","<div style=""display: flex; justify-content: center; align-items: center;"">
                <img src=""images/causal/causal_series_17/causal_series_17_b.jpg"" style=""width: 300px; height: 300px;"" />
              </div>","null",""
"","","","","","html-keyboard-response","43","308102","0.0-43.0","DDF654B04475461CAA83D9BFD3636F52","320c5bdd-807e-406a-8ee5-daf2a38a0f1f","683bf07d-1a26-40b1-9cff-5abdc1eed0ee","","null","<div style=""display: flex; justify-content: center; align-items: center;"">
                <img src=""images/causal/causal_series_17/causal_series_17_c.jpg"" style=""width: 300px; height: 300px;"" />
              </div>","null",""
"","","","","","html-button-response","44","308929","0.0-44.0","DDF654B04475461CAA83D9BFD3636F52","320c5bdd-807e-406a-8ee5-daf2a38a0f1f","683bf07d-1a26-40b1-9cff-5abdc1eed0ee","","827","
    <div style=""display: flex; justify-content: center; align-items: center;"">
      <img src=""images/red_deck_2.png"" style=""width: 300px; height: 300px; margin-right: 10px;"" />
      <img src=""images/blue_deck_1.png"" style=""width: 300px; height: 300px;"" />
    </div>","1","1"
"","","","","","html-keyboard-response","45","311938","0.0-45.0-1.0-0.0","DDF654B04475461CAA83D9BFD3636F52","320c5bdd-807e-406a-8ee5-daf2a38a0f1f","683bf07d-1a26-40b1-9cff-5abdc1eed0ee","","null","<div style=""display: flex; justify-content: center; align-items: center;"">
                <img src=""images/semantic/semantic_series_16/semantic_series_16_d.jpg"" style=""width: 300px; height: 300px;"" />
              </div>","null",""
"","","","","","html-keyboard-response","46","314941","0.0-46.0","DDF654B04475461CAA83D9BFD3636F52","320c5bdd-807e-406a-8ee5-daf2a38a0f1f","683bf07d-1a26-40b1-9cff-5abdc1eed0ee","","null","<div style=""display: flex; justify-content: center; align-items: center;"">
                <img src=""images/other/blank.jpg"" style=""width: 300px; height: 300px;"" />
              </div>","null",""
"","","","","","html-keyboard-response","47","317945","0.0-47.0","DDF654B04475461CAA83D9BFD3636F52","320c5bdd-807e-406a-8ee5-daf2a38a0f1f","683bf07d-1a26-40b1-9cff-5abdc1eed0ee","","null","<div style=""display: flex; justify-content: center; align-items: center;"">
                <img src=""images/causal/causal_series_11/causal_series_11_a.jpg"" style=""width: 300px; height: 300px;"" />
              </div>","null",""
"","","","","","html-keyboard-response","48","320949","0.0-48.0","DDF654B04475461CAA83D9BFD3636F52","320c5bdd-807e-406a-8ee5-daf2a38a0f1f","683bf07d-1a26-40b1-9cff-5abdc1eed0ee","","null","<div style=""display: flex; justify-content: center; align-items: center;"">
                <img src=""images/causal/causal_series_11/causal_series_11_b.jpg"" style=""width: 300px; height: 300px;"" />
              </div>","null",""
"","","","","","html-keyboard-response","49","323965","0.0-49.0","DDF654B04475461CAA83D9BFD3636F52","320c5bdd-807e-406a-8ee5-daf2a38a0f1f","683bf07d-1a26-40b1-9cff-5abdc1eed0ee","","null","<div style=""display: flex; justify-content: center; align-items: center;"">
                <img src=""images/causal/causal_series_11/causal_series_11_c.jpg"" style=""width: 300px; height: 300px;"" />
              </div>","null",""
"","","","","","html-button-response","50","324957","0.0-50.0","DDF654B04475461CAA83D9BFD3636F52","320c5bdd-807e-406a-8ee5-daf2a38a0f1f","683bf07d-1a26-40b1-9cff-5abdc1eed0ee","","991","
    <div style=""display: flex; justify-content: center; align-items: center;"">
      <img src=""images/red_deck_2.png"" style=""width: 300px; height: 300px; margin-right: 10px;"" />
      <img src=""images/blue_deck_1.png"" style=""width: 300px; height: 300px;"" />
    </div>","1","1"
"","","","","","html-keyboard-response","51","327967","0.0-51.0-1.0-0.0","DDF654B04475461CAA83D9BFD3636F52","320c5bdd-807e-406a-8ee5-daf2a38a0f1f","683bf07d-1a26-40b1-9cff-5abdc1eed0ee","","null","<div style=""display: flex; justify-content: center; align-items: center;"">
                <img src=""images/semantic/semantic_series_10/semantic_series_10_d.jpg"" style=""width: 300px; height: 300px;"" />
              </div>","null",""
"","","","","","html-keyboard-response","52","330972","0.0-52.0","DDF654B04475461CAA83D9BFD3636F52","320c5bdd-807e-406a-8ee5-daf2a38a0f1f","683bf07d-1a26-40b1-9cff-5abdc1eed0ee","","null","<div style=""display: flex; justify-content: center; align-items: center;"">
                <img src=""images/other/blank.jpg"" style=""width: 300px; height: 300px;"" />
              </div>","null",""
"","","","","","html-keyboard-response","53","333987","0.0-53.0","DDF654B04475461CAA83D9BFD3636F52","320c5bdd-807e-406a-8ee5-daf2a38a0f1f","683bf07d-1a26-40b1-9cff-5abdc1eed0ee","","null","<div style=""display: flex; justify-content: center; align-items: center;"">
                <img src=""images/causal/causal_series_5/causal_series_5_a.jpg"" style=""width: 300px; height: 300px;"" />
              </div>","null",""
"","","","","","html-keyboard-response","54","337003","0.0-54.0","DDF654B04475461CAA83D9BFD3636F52","320c5bdd-807e-406a-8ee5-daf2a38a0f1f","683bf07d-1a26-40b1-9cff-5abdc1eed0ee","","null","<div style=""display: flex; justify-content: center; align-items: center;"">
                <img src=""images/causal/causal_series_5/causal_series_5_b.jpg"" style=""width: 300px; height: 300px;"" />
              </div>","null",""
"","","","","","html-keyboard-response","55","340013","0.0-55.0","DDF654B04475461CAA83D9BFD3636F52","320c5bdd-807e-406a-8ee5-daf2a38a0f1f","683bf07d-1a26-40b1-9cff-5abdc1eed0ee","","null","<div style=""display: flex; justify-content: center; align-items: center;"">
                <img src=""images/causal/causal_series_5/causal_series_5_c.jpg"" style=""width: 300px; height: 300px;"" />
              </div>","null",""
"","","","","","html-button-response","56","342773","0.0-56.0","DDF654B04475461CAA83D9BFD3636F52","320c5bdd-807e-406a-8ee5-daf2a38a0f1f","683bf07d-1a26-40b1-9cff-5abdc1eed0ee","","2759","
    <div style=""display: flex; justify-content: center; align-items: center;"">
      <img src=""images/red_deck_2.png"" style=""width: 300px; height: 300px; margin-right: 10px;"" />
      <img src=""images/blue_deck_1.png"" style=""width: 300px; height: 300px;"" />
    </div>","0","0"
"","","","","","html-keyboard-response","57","345783","0.0-57.0-0.0-0.0","DDF654B04475461CAA83D9BFD3636F52","320c5bdd-807e-406a-8ee5-daf2a38a0f1f","683bf07d-1a26-40b1-9cff-5abdc1eed0ee","","null","<div style=""display: flex; justify-content: center; align-items: center;"">
                <img src=""images/causal/causal_series_5/causal_series_5_d.jpg"" style=""width: 300px; height: 300px;"" />
              </div>","null",""
"","","","","","html-keyboard-response","58","348788","0.0-58.0","DDF654B04475461CAA83D9BFD3636F52","320c5bdd-807e-406a-8ee5-daf2a38a0f1f","683bf07d-1a26-40b1-9cff-5abdc1eed0ee","","null","<div style=""display: flex; justify-content: center; align-items: center;"">
                <img src=""images/other/blank.jpg"" style=""width: 300px; height: 300px;"" />
              </div>","null",""
"","","","","","html-keyboard-response","59","351792","0.0-59.0","DDF654B04475461CAA83D9BFD3636F52","320c5bdd-807e-406a-8ee5-daf2a38a0f1f","683bf07d-1a26-40b1-9cff-5abdc1eed0ee","","null","<div style=""display: flex; justify-content: center; align-items: center;"">
                <img src=""images/causal/causal_series_12/causal_series_12_a.jpg"" style=""width: 300px; height: 300px;"" />
              </div>","null",""
"","","","","","html-keyboard-response","60","354799","0.0-60.0","DDF654B04475461CAA83D9BFD3636F52","320c5bdd-807e-406a-8ee5-daf2a38a0f1f","683bf07d-1a26-40b1-9cff-5abdc1eed0ee","","null","<div style=""display: flex; justify-content: center; align-items: center;"">
                <img src=""images/causal/causal_series_12/causal_series_12_b.jpg"" style=""width: 300px; height: 300px;"" />
              </div>","null",""
"","","","","","html-keyboard-response","61","357813","0.0-61.0","DDF654B04475461CAA83D9BFD3636F52","320c5bdd-807e-406a-8ee5-daf2a38a0f1f","683bf07d-1a26-40b1-9cff-5abdc1eed0ee","","null","<div style=""display: flex; justify-content: center; align-items: center;"">
                <img src=""images/causal/causal_series_12/causal_series_12_c.jpg"" style=""width: 300px; height: 300px;"" />
              </div>","null",""
"","","","","","html-button-response","62","360589","0.0-62.0","DDF654B04475461CAA83D9BFD3636F52","320c5bdd-807e-406a-8ee5-daf2a38a0f1f","683bf07d-1a26-40b1-9cff-5abdc1eed0ee","","2775","
    <div style=""display: flex; justify-content: center; align-items: center;"">
      <img src=""images/red_deck_2.png"" style=""width: 300px; height: 300px; margin-right: 10px;"" />
      <img src=""images/blue_deck_1.png"" style=""width: 300px; height: 300px;"" />
    </div>","1","1"
"","","","","","html-keyboard-response","63","363603","0.0-63.0-1.0-0.0","DDF654B04475461CAA83D9BFD3636F52","320c5bdd-807e-406a-8ee5-daf2a38a0f1f","683bf07d-1a26-40b1-9cff-5abdc1eed0ee","","null","<div style=""display: flex; justify-content: center; align-items: center;"">
                <img src=""images/semantic/semantic_series_11/semantic_series_11_d.jpg"" style=""width: 300px; height: 300px;"" />
              </div>","null",""
"","","","","","html-keyboard-response","64","366605","0.0-64.0","DDF654B04475461CAA83D9BFD3636F52","320c5bdd-807e-406a-8ee5-daf2a38a0f1f","683bf07d-1a26-40b1-9cff-5abdc1eed0ee","","null","<div style=""display: flex; justify-content: center; align-items: center;"">
                <img src=""images/other/blank.jpg"" style=""width: 300px; height: 300px;"" />
              </div>","null",""
"","","","","","html-keyboard-response","65","369616","0.0-65.0","DDF654B04475461CAA83D9BFD3636F52","320c5bdd-807e-406a-8ee5-daf2a38a0f1f","683bf07d-1a26-40b1-9cff-5abdc1eed0ee","","null","<div style=""display: flex; justify-content: center; align-items: center;"">
                <img src=""images/causal/causal_series_2/causal_series_2_a.jpg"" style=""width: 300px; height: 300px;"" />
              </div>","null",""
"","","","","","html-keyboard-response","66","372618","0.0-66.0","DDF654B04475461CAA83D9BFD3636F52","320c5bdd-807e-406a-8ee5-daf2a38a0f1f","683bf07d-1a26-40b1-9cff-5abdc1eed0ee","","null","<div style=""display: flex; justify-content: center; align-items: center;"">
                <img src=""images/causal/causal_series_2/causal_series_2_b.jpg"" style=""width: 300px; height: 300px;"" />
              </div>","null",""
"","","","","","html-keyboard-response","67","375619","0.0-67.0","DDF654B04475461CAA83D9BFD3636F52","320c5bdd-807e-406a-8ee5-daf2a38a0f1f","683bf07d-1a26-40b1-9cff-5abdc1eed0ee","","null","<div style=""display: flex; justify-content: center; align-items: center;"">
                <img src=""images/causal/causal_series_2/causal_series_2_c.jpg"" style=""width: 300px; height: 300px;"" />
              </div>","null",""
"","","","","","html-button-response","68","378087","0.0-68.0","DDF654B04475461CAA83D9BFD3636F52","320c5bdd-807e-406a-8ee5-daf2a38a0f1f","683bf07d-1a26-40b1-9cff-5abdc1eed0ee","","2468","
    <div style=""display: flex; justify-content: center; align-items: center;"">
      <img src=""images/red_deck_2.png"" style=""width: 300px; height: 300px; margin-right: 10px;"" />
      <img src=""images/blue_deck_1.png"" style=""width: 300px; height: 300px;"" />
    </div>","0","0"
"","","","","","html-keyboard-response","69","381088","0.0-69.0-0.0-0.0","DDF654B04475461CAA83D9BFD3636F52","320c5bdd-807e-406a-8ee5-daf2a38a0f1f","683bf07d-1a26-40b1-9cff-5abdc1eed0ee","","null","<div style=""display: flex; justify-content: center; align-items: center;"">
                <img src=""images/causal/causal_series_2/causal_series_2_d.jpg"" style=""width: 300px; height: 300px;"" />
              </div>","null",""
"","","","","","html-keyboard-response","70","384092","0.0-70.0","DDF654B04475461CAA83D9BFD3636F52","320c5bdd-807e-406a-8ee5-daf2a38a0f1f","683bf07d-1a26-40b1-9cff-5abdc1eed0ee","","null","<div style=""display: flex; justify-content: center; align-items: center;"">
                <img src=""images/other/blank.jpg"" style=""width: 300px; height: 300px;"" />
              </div>","null",""
"","","","","","html-keyboard-response","71","387106","0.0-71.0","DDF654B04475461CAA83D9BFD3636F52","320c5bdd-807e-406a-8ee5-daf2a38a0f1f","683bf07d-1a26-40b1-9cff-5abdc1eed0ee","","null","<div style=""display: flex; justify-content: center; align-items: center;"">
                <img src=""images/causal/causal_series_4/causal_series_4_a.jpg"" style=""width: 300px; height: 300px;"" />
              </div>","null",""
"","","","","","html-keyboard-response","72","390119","0.0-72.0","DDF654B04475461CAA83D9BFD3636F52","320c5bdd-807e-406a-8ee5-daf2a38a0f1f","683bf07d-1a26-40b1-9cff-5abdc1eed0ee","","null","<div style=""display: flex; justify-content: center; align-items: center;"">
                <img src=""images/causal/causal_series_4/causal_series_4_b.jpg"" style=""width: 300px; height: 300px;"" />
              </div>","null",""
"","","","","","html-keyboard-response","73","393131","0.0-73.0","DDF654B04475461CAA83D9BFD3636F52","320c5bdd-807e-406a-8ee5-daf2a38a0f1f","683bf07d-1a26-40b1-9cff-5abdc1eed0ee","","null","<div style=""display: flex; justify-content: center; align-items: center;"">
                <img src=""images/causal/causal_series_4/causal_series_4_c.jpg"" style=""width: 300px; height: 300px;"" />
              </div>","null",""
"","","","","","html-button-response","74","395653","0.0-74.0","DDF654B04475461CAA83D9BFD3636F52","320c5bdd-807e-406a-8ee5-daf2a38a0f1f","683bf07d-1a26-40b1-9cff-5abdc1eed0ee","","2521","
    <div style=""display: flex; justify-content: center; align-items: center;"">
      <img src=""images/red_deck_2.png"" style=""width: 300px; height: 300px; margin-right: 10px;"" />
      <img src=""images/blue_deck_1.png"" style=""width: 300px; height: 300px;"" />
    </div>","1","1"
"","","","","","html-keyboard-response","75","398654","0.0-75.0-1.0-0.0","DDF654B04475461CAA83D9BFD3636F52","320c5bdd-807e-406a-8ee5-daf2a38a0f1f","683bf07d-1a26-40b1-9cff-5abdc1eed0ee","","null","<div style=""display: flex; justify-content: center; align-items: center;"">
                <img src=""images/semantic/semantic_series_3/semantic_series_3_d.jpg"" style=""width: 300px; height: 300px;"" />
              </div>","null",""
"","","","","","html-keyboard-response","76","401657","0.0-76.0","DDF654B04475461CAA83D9BFD3636F52","320c5bdd-807e-406a-8ee5-daf2a38a0f1f","683bf07d-1a26-40b1-9cff-5abdc1eed0ee","","null","<div style=""display: flex; justify-content: center; align-items: center;"">
                <img src=""images/other/blank.jpg"" style=""width: 300px; height: 300px;"" />
              </div>","null",""
"","","","","","html-keyboard-response","77","404669","0.0-77.0","DDF654B04475461CAA83D9BFD3636F52","320c5bdd-807e-406a-8ee5-daf2a38a0f1f","683bf07d-1a26-40b1-9cff-5abdc1eed0ee","","null","<div style=""display: flex; justify-content: center; align-items: center;"">
                <img src=""images/causal/causal_series_7/causal_series_7_a.jpg"" style=""width: 300px; height: 300px;"" />
              </div>","null",""
"","","","","","html-keyboard-response","78","407680","0.0-78.0","DDF654B04475461CAA83D9BFD3636F52","320c5bdd-807e-406a-8ee5-daf2a38a0f1f","683bf07d-1a26-40b1-9cff-5abdc1eed0ee","","null","<div style=""display: flex; justify-content: center; align-items: center;"">
                <img src=""images/causal/causal_series_7/causal_series_7_b.jpg"" style=""width: 300px; height: 300px;"" />
              </div>","null",""
"","","","","","html-keyboard-response","79","410681","0.0-79.0","DDF654B04475461CAA83D9BFD3636F52","320c5bdd-807e-406a-8ee5-daf2a38a0f1f","683bf07d-1a26-40b1-9cff-5abdc1eed0ee","","null","<div style=""display: flex; justify-content: center; align-items: center;"">
                <img src=""images/causal/causal_series_7/causal_series_7_c.jpg"" style=""width: 300px; height: 300px;"" />
              </div>","null",""
"","","","","","html-button-response","80","412627","0.0-80.0","DDF654B04475461CAA83D9BFD3636F52","320c5bdd-807e-406a-8ee5-daf2a38a0f1f","683bf07d-1a26-40b1-9cff-5abdc1eed0ee","","1945","
    <div style=""display: flex; justify-content: center; align-items: center;"">
      <img src=""images/red_deck_2.png"" style=""width: 300px; height: 300px; margin-right: 10px;"" />
      <img src=""images/blue_deck_1.png"" style=""width: 300px; height: 300px;"" />
    </div>","1","1"
"","","","","","html-keyboard-response","81","415637","0.0-81.0-1.0-0.0","DDF654B04475461CAA83D9BFD3636F52","320c5bdd-807e-406a-8ee5-daf2a38a0f1f","683bf07d-1a26-40b1-9cff-5abdc1eed0ee","","null","<div style=""display: flex; justify-content: center; align-items: center;"">
                <img src=""images/semantic/semantic_series_6/semantic_series_6_d.jpg"" style=""width: 300px; height: 300px;"" />
              </div>","null",""
"","","","","","html-keyboard-response","82","418644","0.0-82.0","DDF654B04475461CAA83D9BFD3636F52","320c5bdd-807e-406a-8ee5-daf2a38a0f1f","683bf07d-1a26-40b1-9cff-5abdc1eed0ee","","null","<div style=""display: flex; justify-content: center; align-items: center;"">
                <img src=""images/other/blank.jpg"" style=""width: 300px; height: 300px;"" />
              </div>","null",""
"","","","","","html-keyboard-response","83","421654","0.0-83.0","DDF654B04475461CAA83D9BFD3636F52","320c5bdd-807e-406a-8ee5-daf2a38a0f1f","683bf07d-1a26-40b1-9cff-5abdc1eed0ee","","null","<div style=""display: flex; justify-content: center; align-items: center;"">
                <img src=""images/causal/causal_series_3/causal_series_3_a.jpg"" style=""width: 300px; height: 300px;"" />
              </div>","null",""
"","","","","","html-keyboard-response","84","424666","0.0-84.0","DDF654B04475461CAA83D9BFD3636F52","320c5bdd-807e-406a-8ee5-daf2a38a0f1f","683bf07d-1a26-40b1-9cff-5abdc1eed0ee","","null","<div style=""display: flex; justify-content: center; align-items: center;"">
                <img src=""images/causal/causal_series_3/causal_series_3_b.jpg"" style=""width: 300px; height: 300px;"" />
              </div>","null",""
"","","","","","html-keyboard-response","85","427676","0.0-85.0","DDF654B04475461CAA83D9BFD3636F52","320c5bdd-807e-406a-8ee5-daf2a38a0f1f","683bf07d-1a26-40b1-9cff-5abdc1eed0ee","","null","<div style=""display: flex; justify-content: center; align-items: center;"">
                <img src=""images/causal/causal_series_3/causal_series_3_c.jpg"" style=""width: 300px; height: 300px;"" />
              </div>","null",""
"","","","","","html-button-response","86","430479","0.0-86.0","DDF654B04475461CAA83D9BFD3636F52","320c5bdd-807e-406a-8ee5-daf2a38a0f1f","683bf07d-1a26-40b1-9cff-5abdc1eed0ee","","2803","
    <div style=""display: flex; justify-content: center; align-items: center;"">
      <img src=""images/red_deck_2.png"" style=""width: 300px; height: 300px; margin-right: 10px;"" />
      <img src=""images/blue_deck_1.png"" style=""width: 300px; height: 300px;"" />
    </div>","0","0"
"","","","","","html-keyboard-response","87","433493","0.0-87.0-0.0-0.0","DDF654B04475461CAA83D9BFD3636F52","320c5bdd-807e-406a-8ee5-daf2a38a0f1f","683bf07d-1a26-40b1-9cff-5abdc1eed0ee","","null","<div style=""display: flex; justify-content: center; align-items: center;"">
                <img src=""images/causal/causal_series_3/causal_series_3_d.jpg"" style=""width: 300px; height: 300px;"" />
              </div>","null",""
"","","","","","html-keyboard-response","88","436504","0.0-88.0","DDF654B04475461CAA83D9BFD3636F52","320c5bdd-807e-406a-8ee5-daf2a38a0f1f","683bf07d-1a26-40b1-9cff-5abdc1eed0ee","","null","<div style=""display: flex; justify-content: center; align-items: center;"">
                <img src=""images/other/blank.jpg"" style=""width: 300px; height: 300px;"" />
              </div>","null",""
"","","","","","html-keyboard-response","89","439511","0.0-89.0","DDF654B04475461CAA83D9BFD3636F52","320c5bdd-807e-406a-8ee5-daf2a38a0f1f","683bf07d-1a26-40b1-9cff-5abdc1eed0ee","","null","<div style=""display: flex; justify-content: center; align-items: center;"">
                <img src=""images/causal/causal_series_16/causal_series_16_a.jpg"" style=""width: 300px; height: 300px;"" />
              </div>","null",""
"","","","","","html-keyboard-response","90","442514","0.0-90.0","DDF654B04475461CAA83D9BFD3636F52","320c5bdd-807e-406a-8ee5-daf2a38a0f1f","683bf07d-1a26-40b1-9cff-5abdc1eed0ee","","null","<div style=""display: flex; justify-content: center; align-items: center;"">
                <img src=""images/causal/causal_series_16/causal_series_16_b.jpg"" style=""width: 300px; height: 300px;"" />
              </div>","null",""
"","","","","","html-keyboard-response","91","445517","0.0-91.0","DDF654B04475461CAA83D9BFD3636F52","320c5bdd-807e-406a-8ee5-daf2a38a0f1f","683bf07d-1a26-40b1-9cff-5abdc1eed0ee","","null","<div style=""display: flex; justify-content: center; align-items: center;"">
                <img src=""images/causal/causal_series_16/causal_series_16_c.jpg"" style=""width: 300px; height: 300px;"" />
              </div>","null",""
"","","","","","html-button-response","92","449801","0.0-92.0","DDF654B04475461CAA83D9BFD3636F52","320c5bdd-807e-406a-8ee5-daf2a38a0f1f","683bf07d-1a26-40b1-9cff-5abdc1eed0ee","","4283","
    <div style=""display: flex; justify-content: center; align-items: center;"">
      <img src=""images/red_deck_2.png"" style=""width: 300px; height: 300px; margin-right: 10px;"" />
      <img src=""images/blue_deck_1.png"" style=""width: 300px; height: 300px;"" />
    </div>","1","1"
"","","","","","html-keyboard-response","93","452811","0.0-93.0-1.0-0.0","DDF654B04475461CAA83D9BFD3636F52","320c5bdd-807e-406a-8ee5-daf2a38a0f1f","683bf07d-1a26-40b1-9cff-5abdc1eed0ee","","null","<div style=""display: flex; justify-content: center; align-items: center;"">
                <img src=""images/semantic/semantic_series_15/semantic_series_15_d.jpg"" style=""width: 300px; height: 300px;"" />
              </div>","null",""
"","","","","","html-keyboard-response","94","455824","0.0-94.0","DDF654B04475461CAA83D9BFD3636F52","320c5bdd-807e-406a-8ee5-daf2a38a0f1f","683bf07d-1a26-40b1-9cff-5abdc1eed0ee","","null","<div style=""display: flex; justify-content: center; align-items: center;"">
                <img src=""images/other/blank.jpg"" style=""width: 300px; height: 300px;"" />
              </div>","null",""
"","","","","","html-keyboard-response","95","458828","0.0-95.0","DDF654B04475461CAA83D9BFD3636F52","320c5bdd-807e-406a-8ee5-daf2a38a0f1f","683bf07d-1a26-40b1-9cff-5abdc1eed0ee","","null","<div style=""display: flex; justify-content: center; align-items: center;"">
                <img src=""images/causal/causal_series_10/causal_series_10_a.jpg"" style=""width: 300px; height: 300px;"" />
              </div>","null",""
"","","","","","html-keyboard-response","96","461831","0.0-96.0","DDF654B04475461CAA83D9BFD3636F52","320c5bdd-807e-406a-8ee5-daf2a38a0f1f","683bf07d-1a26-40b1-9cff-5abdc1eed0ee","","null","<div style=""display: flex; justify-content: center; align-items: center;"">
                <img src=""images/causal/causal_series_10/causal_series_10_b.jpg"" style=""width: 300px; height: 300px;"" />
              </div>","null",""
"","","","","","html-keyboard-response","97","464834","0.0-97.0","DDF654B04475461CAA83D9BFD3636F52","320c5bdd-807e-406a-8ee5-daf2a38a0f1f","683bf07d-1a26-40b1-9cff-5abdc1eed0ee","","null","<div style=""display: flex; justify-content: center; align-items: center;"">
                <img src=""images/causal/causal_series_10/causal_series_10_c.jpg"" style=""width: 300px; height: 300px;"" />
              </div>","null",""
"","","","","","html-button-response","98","471016","0.0-98.0","DDF654B04475461CAA83D9BFD3636F52","320c5bdd-807e-406a-8ee5-daf2a38a0f1f","683bf07d-1a26-40b1-9cff-5abdc1eed0ee","","6182","
    <div style=""display: flex; justify-content: center; align-items: center;"">
      <img src=""images/red_deck_2.png"" style=""width: 300px; height: 300px; margin-right: 10px;"" />
      <img src=""images/blue_deck_1.png"" style=""width: 300px; height: 300px;"" />
    </div>","0","0"
"","","","","","html-keyboard-response","99","474023","0.0-99.0-0.0-0.0","DDF654B04475461CAA83D9BFD3636F52","320c5bdd-807e-406a-8ee5-daf2a38a0f1f","683bf07d-1a26-40b1-9cff-5abdc1eed0ee","","null","<div style=""display: flex; justify-content: center; align-items: center;"">
                <img src=""images/causal/causal_series_10/causal_series_10_d.jpg"" style=""width: 300px; height: 300px;"" />
              </div>","null",""
"","","","","","html-keyboard-response","100","477034","0.0-100.0","DDF654B04475461CAA83D9BFD3636F52","320c5bdd-807e-406a-8ee5-daf2a38a0f1f","683bf07d-1a26-40b1-9cff-5abdc1eed0ee","","null","<div style=""display: flex; justify-content: center; align-items: center;"">
                <img src=""images/other/blank.jpg"" style=""width: 300px; height: 300px;"" />
              </div>","null",""
"","","","","","html-keyboard-response","101","480047","0.0-101.0","DDF654B04475461CAA83D9BFD3636F52","320c5bdd-807e-406a-8ee5-daf2a38a0f1f","683bf07d-1a26-40b1-9cff-5abdc1eed0ee","","null","<div style=""display: flex; justify-content: center; align-items: center;"">
                <img src=""images/causal/causal_series_18/causal_series_18_a.jpg"" style=""width: 300px; height: 300px;"" />
              </div>","null",""
"","","","","","html-keyboard-response","102","483051","0.0-102.0","DDF654B04475461CAA83D9BFD3636F52","320c5bdd-807e-406a-8ee5-daf2a38a0f1f","683bf07d-1a26-40b1-9cff-5abdc1eed0ee","","null","<div style=""display: flex; justify-content: center; align-items: center;"">
                <img src=""images/causal/causal_series_18/causal_series_18_b.jpg"" style=""width: 300px; height: 300px;"" />
              </div>","null",""
"","","","","","html-keyboard-response","103","486055","0.0-103.0","DDF654B04475461CAA83D9BFD3636F52","320c5bdd-807e-406a-8ee5-daf2a38a0f1f","683bf07d-1a26-40b1-9cff-5abdc1eed0ee","","null","<div style=""display: flex; justify-content: center; align-items: center;"">
                <img src=""images/causal/causal_series_18/causal_series_18_c.jpg"" style=""width: 300px; height: 300px;"" />
              </div>","null",""
"","","","","","html-button-response","104","487709","0.0-104.0","DDF654B04475461CAA83D9BFD3636F52","320c5bdd-807e-406a-8ee5-daf2a38a0f1f","683bf07d-1a26-40b1-9cff-5abdc1eed0ee","","1652","
    <div style=""display: flex; justify-content: center; align-items: center;"">
      <img src=""images/red_deck_2.png"" style=""width: 300px; height: 300px; margin-right: 10px;"" />
      <img src=""images/blue_deck_1.png"" style=""width: 300px; height: 300px;"" />
    </div>","1","1"
"","","","","","html-keyboard-response","105","490725","0.0-105.0-1.0-0.0","DDF654B04475461CAA83D9BFD3636F52","320c5bdd-807e-406a-8ee5-daf2a38a0f1f","683bf07d-1a26-40b1-9cff-5abdc1eed0ee","","null","<div style=""display: flex; justify-content: center; align-items: center;"">
                <img src=""images/semantic/semantic_series_17/semantic_series_17_d.jpg"" style=""width: 300px; height: 300px;"" />
              </div>","null",""
"","","","","","html-keyboard-response","106","493740","0.0-106.0","DDF654B04475461CAA83D9BFD3636F52","320c5bdd-807e-406a-8ee5-daf2a38a0f1f","683bf07d-1a26-40b1-9cff-5abdc1eed0ee","","null","<div style=""display: flex; justify-content: center; align-items: center;"">
                <img src=""images/other/blank.jpg"" style=""width: 300px; height: 300px;"" />
              </div>","null",""
"","","","","","html-keyboard-response","107","496746","0.0-107.0","DDF654B04475461CAA83D9BFD3636F52","320c5bdd-807e-406a-8ee5-daf2a38a0f1f","683bf07d-1a26-40b1-9cff-5abdc1eed0ee","","null","<div style=""display: flex; justify-content: center; align-items: center;"">
                <img src=""images/causal/causal_series_8/causal_series_8_a.jpg"" style=""width: 300px; height: 300px;"" />
              </div>","null",""
"","","","","","html-keyboard-response","108","499752","0.0-108.0","DDF654B04475461CAA83D9BFD3636F52","320c5bdd-807e-406a-8ee5-daf2a38a0f1f","683bf07d-1a26-40b1-9cff-5abdc1eed0ee","","null","<div style=""display: flex; justify-content: center; align-items: center;"">
                <img src=""images/causal/causal_series_8/causal_series_8_b.jpg"" style=""width: 300px; height: 300px;"" />
              </div>","null",""
"","","","","","html-keyboard-response","109","502755","0.0-109.0","DDF654B04475461CAA83D9BFD3636F52","320c5bdd-807e-406a-8ee5-daf2a38a0f1f","683bf07d-1a26-40b1-9cff-5abdc1eed0ee","","null","<div style=""display: flex; justify-content: center; align-items: center;"">
                <img src=""images/causal/causal_series_8/causal_series_8_c.jpg"" style=""width: 300px; height: 300px;"" />
              </div>","null",""
"","","","","","html-button-response","110","504850","0.0-110.0","DDF654B04475461CAA83D9BFD3636F52","320c5bdd-807e-406a-8ee5-daf2a38a0f1f","683bf07d-1a26-40b1-9cff-5abdc1eed0ee","","2094","
    <div style=""display: flex; justify-content: center; align-items: center;"">
      <img src=""images/red_deck_2.png"" style=""width: 300px; height: 300px; margin-right: 10px;"" />
      <img src=""images/blue_deck_1.png"" style=""width: 300px; height: 300px;"" />
    </div>","1","1"
"","","","","","html-keyboard-response","111","507867","0.0-111.0-1.0-0.0","DDF654B04475461CAA83D9BFD3636F52","320c5bdd-807e-406a-8ee5-daf2a38a0f1f","683bf07d-1a26-40b1-9cff-5abdc1eed0ee","","null","<div style=""display: flex; justify-content: center; align-items: center;"">
                <img src=""images/semantic/semantic_series_7/semantic_series_7_d.jpg"" style=""width: 300px; height: 300px;"" />
              </div>","null",""
"","","","","","html-keyboard-response","112","510872","0.0-112.0","DDF654B04475461CAA83D9BFD3636F52","320c5bdd-807e-406a-8ee5-daf2a38a0f1f","683bf07d-1a26-40b1-9cff-5abdc1eed0ee","","null","<div style=""display: flex; justify-content: center; align-items: center;"">
                <img src=""images/other/blank.jpg"" style=""width: 300px; height: 300px;"" />
              </div>","null",""
"","","","","","survey-text","113","520829","0.0-113.0","DDF654B04475461CAA83D9BFD3636F52","320c5bdd-807e-406a-8ee5-daf2a38a0f1f","683bf07d-1a26-40b1-9cff-5abdc1eed0ee","","9947","","{""Q0"":""one is blue and one is red ""}",""
"","","","","","survey-text","114","535819","0.0-114.0","DDF654B04475461CAA83D9BFD3636F52","320c5bdd-807e-406a-8ee5-daf2a38a0f1f","683bf07d-1a26-40b1-9cff-5abdc1eed0ee","","14987","","{""Q0"":""neither was interesting ""}",""
"","","","","","html-button-response","115","545986","0.0-115.0","DDF654B04475461CAA83D9BFD3636F52","320c5bdd-807e-406a-8ee5-daf2a38a0f1f","683bf07d-1a26-40b1-9cff-5abdc1eed0ee","","10167","Which color deck does the fourth image continue the story from the series?","0",""
"","","","","","html-button-response","116","551085","0.0-116.0","DDF654B04475461CAA83D9BFD3636F52","320c5bdd-807e-406a-8ee5-daf2a38a0f1f","683bf07d-1a26-40b1-9cff-5abdc1eed0ee","","5098","Which color deck does the fourth image not follow the story from the series?","1",""
"","","","","","survey-text","117","562862","0.0-117.0","DDF654B04475461CAA83D9BFD3636F52","320c5bdd-807e-406a-8ee5-daf2a38a0f1f","683bf07d-1a26-40b1-9cff-5abdc1eed0ee","","11774","","{""Q0"":""Male"",""Q1"":""30""}",""
"","","","","","instructions","118","569824","0.0-118.0","DDF654B04475461CAA83D9BFD3636F52","320c5bdd-807e-406a-8ee5-daf2a38a0f1f","683bf07d-1a26-40b1-9cff-5abdc1eed0ee","[{""page_index"":0,""viewing_time"":6961}]","6961","","",""
