"success","timeout","failed_images","failed_audio","failed_video","trial_type","trial_index","time_elapsed","internal_node_id","subject_id","study_id","session_id","view_history","rt","stimulus","response","series","repetition","phase","choice","question_order"
"true","false","[]","[]","[]","preload","0","600","0.0-0.0","C9298204F3014C94AE46CC6488F19F8F","0199d680-655c-7d0d-ada5-4c68c580de04","0199d675-8795-765b-adc2-c813de8cd3d1","","","","","","","","",""
"","","","","","instructions","1","24912","0.0-1.0","C9298204F3014C94AE46CC6488F19F8F","0199d680-655c-7d0d-ada5-4c68c580de04","0199d675-8795-765b-adc2-c813de8cd3d1","[{""page_index"":0,""viewing_time"":24311}]","24312","","","","","","",""
"","","","","","instructions","2","40874","0.0-2.0","C9298204F3014C94AE46CC6488F19F8F","0199d680-655c-7d0d-ada5-4c68c580de04","0199d675-8795-765b-adc2-c813de8cd3d1","[{""page_index"":0,""viewing_time"":15943}]","15944","","","","","","",""
"true","","","","","fullscreen","3","43616","0.0-3.0","C9298204F3014C94AE46CC6488F19F8F","0199d680-655c-7d0d-ada5-4c68c580de04","0199d675-8795-765b-adc2-c813de8cd3d1","","1703","","","","","","",""
"","","","","","instructions","4","66606","0.0-4.0","C9298204F3014C94AE46CC6488F19F8F","0199d680-655c-7d0d-ada5-4c68c580de04","0199d675-8795-765b-adc2-c813de8cd3d1","[{""page_index"":0,""viewing_time"":22989}]","22989","","","","","","",""
"","","","","","html-keyboard-response","5","72616","0.0-5.0","C9298204F3014C94AE46CC6488F19F8F","0199d680-655c-7d0d-ada5-4c68c580de04","0199d675-8795-765b-adc2-c813de8cd3d1","","null","<div style=""display: flex; justify-content: center; align-items: center;"">
                     <img src=""images/causal/causal_series_6/causal_series_6_a.png"" style=""width: 300px; height: 300px;"" />
                   </div>","null","6","1","A","",""
"","","","","","html-button-response","6","74699","0.0-6.0","C9298204F3014C94AE46CC6488F19F8F","0199d680-655c-7d0d-ada5-4c68c580de04","0199d675-8795-765b-adc2-c813de8cd3d1","","2081","
        <div style=""display: flex; justify-content: center; align-items: center;"">
          <img src=""images/red_deck_2.png"" style=""width: 300px; height: 300px; margin-right: 10px;"" />
          <img src=""images/blue_deck_1.png"" style=""width: 300px; height: 300px;"" />
        </div>","0","6","1","choice","0",""
"","","","","","html-keyboard-response","7","80703","0.0-7.0-0.0-0.0","C9298204F3014C94AE46CC6488F19F8F","0199d680-655c-7d0d-ada5-4c68c580de04","0199d675-8795-765b-adc2-c813de8cd3d1","","null","<div style=""display: flex; justify-content: center; align-items: center;"">
                     <img src=""images/causal/causal_series_6/causal_series_6_b.png"" style=""width: 300px; height: 300px;"" />
                   </div>","null","6","1","B","",""
"","","","","","html-keyboard-response","8","86720","0.0-7.0-0.0-1.0","C9298204F3014C94AE46CC6488F19F8F","0199d680-655c-7d0d-ada5-4c68c580de04","0199d675-8795-765b-adc2-c813de8cd3d1","","null","<div style=""display: flex; justify-content: center; align-items: center;"">
                     <img src=""images/causal/causal_series_6/causal_series_6_c.png"" style=""width: 300px; height: 300px;"" />
                   </div>","null","6","1","C","",""
"","","","","","html-keyboard-response","9","92728","0.0-7.0-0.0-2.0","C9298204F3014C94AE46CC6488F19F8F","0199d680-655c-7d0d-ada5-4c68c580de04","0199d675-8795-765b-adc2-c813de8cd3d1","","null","<div style=""display: flex; justify-content: center; align-items: center;"">
                     <img src=""images/causal/causal_series_6/causal_series_6_d.png"" style=""width: 300px; height: 300px;"" />
                   </div>","null","6","1","D","",""
"","","","","","survey-likert","10","98133","0.0-8.0","C9298204F3014C94AE46CC6488F19F8F","0199d680-655c-7d0d-ada5-4c68c580de04","0199d675-8795-765b-adc2-c813de8cd3d1","","5382","","{""Q0"":3}","6","1","surprise_rating","","[0]"
"","","","","","survey-likert","11","100274","0.0-9.0","C9298204F3014C94AE46CC6488F19F8F","0199d680-655c-7d0d-ada5-4c68c580de04","0199d675-8795-765b-adc2-c813de8cd3d1","","2140","","{""Q0"":3}","6","1","enjoyment_rating","","[0]"
"","","","","","html-keyboard-response","12","106291","0.0-10.0","C9298204F3014C94AE46CC6488F19F8F","0199d680-655c-7d0d-ada5-4c68c580de04","0199d675-8795-765b-adc2-c813de8cd3d1","","null","<div style=""display: flex; justify-content: center; align-items: center;"">
                     <img src=""images/other/blank.png"" style=""width: 300px; height: 300px;"" />
                   </div>","null","0","0","blank","",""
"","","","","","html-keyboard-response","13","112295","0.0-11.0","C9298204F3014C94AE46CC6488F19F8F","0199d680-655c-7d0d-ada5-4c68c580de04","0199d675-8795-765b-adc2-c813de8cd3d1","","null","<div style=""display: flex; justify-content: center; align-items: center;"">
                     <img src=""images/causal/causal_series_10/causal_series_10_a.png"" style=""width: 300px; height: 300px;"" />
                   </div>","null","10","1","A","",""
"","","","","","html-button-response","14","114168","0.0-12.0","C9298204F3014C94AE46CC6488F19F8F","0199d680-655c-7d0d-ada5-4c68c580de04","0199d675-8795-765b-adc2-c813de8cd3d1","","1872","
        <div style=""display: flex; justify-content: center; align-items: center;"">
          <img src=""images/red_deck_2.png"" style=""width: 300px; height: 300px; margin-right: 10px;"" />
          <img src=""images/blue_deck_1.png"" style=""width: 300px; height: 300px;"" />
        </div>","1","10","1","choice","1",""
"","","","","","html-keyboard-response","15","120170","0.0-13.0-1.0-0.0","C9298204F3014C94AE46CC6488F19F8F","0199d680-655c-7d0d-ada5-4c68c580de04","0199d675-8795-765b-adc2-c813de8cd3d1","","null","<div style=""display: flex; justify-content: center; align-items: center;"">
                     <img src=""images/semantic/semantic_series_10/semantic_series_10_b.png"" style=""width: 300px; height: 300px;"" />
                   </div>","null","10","1","B","",""
"","","","","","html-keyboard-response","16","126179","0.0-13.0-1.0-1.0","C9298204F3014C94AE46CC6488F19F8F","0199d680-655c-7d0d-ada5-4c68c580de04","0199d675-8795-765b-adc2-c813de8cd3d1","","null","<div style=""display: flex; justify-content: center; align-items: center;"">
                     <img src=""images/semantic/semantic_series_10/semantic_series_10_c.png"" style=""width: 300px; height: 300px;"" />
                   </div>","null","10","1","C","",""
"","","","","","html-keyboard-response","17","132187","0.0-13.0-1.0-2.0","C9298204F3014C94AE46CC6488F19F8F","0199d680-655c-7d0d-ada5-4c68c580de04","0199d675-8795-765b-adc2-c813de8cd3d1","","null","<div style=""display: flex; justify-content: center; align-items: center;"">
                     <img src=""images/semantic/semantic_series_10/semantic_series_10_d.png"" style=""width: 300px; height: 300px;"" />
                   </div>","null","10","1","D","",""
"","","","","","survey-likert","18","135890","0.0-14.0","C9298204F3014C94AE46CC6488F19F8F","0199d680-655c-7d0d-ada5-4c68c580de04","0199d675-8795-765b-adc2-c813de8cd3d1","","3702","","{""Q0"":4}","10","1","surprise_rating","","[0]"
"","","","","","survey-likert","19","137900","0.0-15.0","C9298204F3014C94AE46CC6488F19F8F","0199d680-655c-7d0d-ada5-4c68c580de04","0199d675-8795-765b-adc2-c813de8cd3d1","","2009","","{""Q0"":1}","10","1","enjoyment_rating","","[0]"
"","","","","","html-keyboard-response","20","143912","0.0-16.0","C9298204F3014C94AE46CC6488F19F8F","0199d680-655c-7d0d-ada5-4c68c580de04","0199d675-8795-765b-adc2-c813de8cd3d1","","null","<div style=""display: flex; justify-content: center; align-items: center;"">
                     <img src=""images/other/blank.png"" style=""width: 300px; height: 300px;"" />
                   </div>","null","0","0","blank","",""
"","","","","","html-keyboard-response","21","149929","0.0-17.0","C9298204F3014C94AE46CC6488F19F8F","0199d680-655c-7d0d-ada5-4c68c580de04","0199d675-8795-765b-adc2-c813de8cd3d1","","null","<div style=""display: flex; justify-content: center; align-items: center;"">
                     <img src=""images/causal/causal_series_8/causal_series_8_a.png"" style=""width: 300px; height: 300px;"" />
                   </div>","null","8","2","A","",""
"","","","","","html-button-response","22","151121","0.0-18.0","C9298204F3014C94AE46CC6488F19F8F","0199d680-655c-7d0d-ada5-4c68c580de04","0199d675-8795-765b-adc2-c813de8cd3d1","","1192","
        <div style=""display: flex; justify-content: center; align-items: center;"">
          <img src=""images/red_deck_2.png"" style=""width: 300px; height: 300px; margin-right: 10px;"" />
          <img src=""images/blue_deck_1.png"" style=""width: 300px; height: 300px;"" />
        </div>","0","8","2","choice","0",""
"","","","","","html-keyboard-response","23","157137","0.0-19.0-0.0-0.0","C9298204F3014C94AE46CC6488F19F8F","0199d680-655c-7d0d-ada5-4c68c580de04","0199d675-8795-765b-adc2-c813de8cd3d1","","null","<div style=""display: flex; justify-content: center; align-items: center;"">
                     <img src=""images/causal/causal_series_8/causal_series_8_b.png"" style=""width: 300px; height: 300px;"" />
                   </div>","null","8","2","B","",""
"","","","","","html-keyboard-response","24","163147","0.0-19.0-0.0-1.0","C9298204F3014C94AE46CC6488F19F8F","0199d680-655c-7d0d-ada5-4c68c580de04","0199d675-8795-765b-adc2-c813de8cd3d1","","null","<div style=""display: flex; justify-content: center; align-items: center;"">
                     <img src=""images/causal/causal_series_8/causal_series_8_c.png"" style=""width: 300px; height: 300px;"" />
                   </div>","null","8","2","C","",""
"","","","","","html-keyboard-response","25","169156","0.0-19.0-0.0-2.0","C9298204F3014C94AE46CC6488F19F8F","0199d680-655c-7d0d-ada5-4c68c580de04","0199d675-8795-765b-adc2-c813de8cd3d1","","null","<div style=""display: flex; justify-content: center; align-items: center;"">
                     <img src=""images/causal/causal_series_8/causal_series_8_d.png"" style=""width: 300px; height: 300px;"" />
                   </div>","null","8","2","D","",""
"","","","","","survey-likert","26","173375","0.0-20.0","C9298204F3014C94AE46CC6488F19F8F","0199d680-655c-7d0d-ada5-4c68c580de04","0199d675-8795-765b-adc2-c813de8cd3d1","","4218","","{""Q0"":4}","8","2","surprise_rating","","[0]"
"","","","","","survey-likert","27","175482","0.0-21.0","C9298204F3014C94AE46CC6488F19F8F","0199d680-655c-7d0d-ada5-4c68c580de04","0199d675-8795-765b-adc2-c813de8cd3d1","","2106","","{""Q0"":3}","8","2","enjoyment_rating","","[0]"
"","","","","","html-keyboard-response","28","181495","0.0-22.0","C9298204F3014C94AE46CC6488F19F8F","0199d680-655c-7d0d-ada5-4c68c580de04","0199d675-8795-765b-adc2-c813de8cd3d1","","null","<div style=""display: flex; justify-content: center; align-items: center;"">
                     <img src=""images/other/blank.png"" style=""width: 300px; height: 300px;"" />
                   </div>","null","0","0","blank","",""
"","","","","","html-keyboard-response","29","187507","0.0-23.0","C9298204F3014C94AE46CC6488F19F8F","0199d680-655c-7d0d-ada5-4c68c580de04","0199d675-8795-765b-adc2-c813de8cd3d1","","null","<div style=""display: flex; justify-content: center; align-items: center;"">
                     <img src=""images/causal/causal_series_8/causal_series_8_a.png"" style=""width: 300px; height: 300px;"" />
                   </div>","null","8","1","A","",""
"","","","","","html-button-response","30","188993","0.0-24.0","C9298204F3014C94AE46CC6488F19F8F","0199d680-655c-7d0d-ada5-4c68c580de04","0199d675-8795-765b-adc2-c813de8cd3d1","","1484","
        <div style=""display: flex; justify-content: center; align-items: center;"">
          <img src=""images/red_deck_2.png"" style=""width: 300px; height: 300px; margin-right: 10px;"" />
          <img src=""images/blue_deck_1.png"" style=""width: 300px; height: 300px;"" />
        </div>","0","8","1","choice","0",""
"","","","","","html-keyboard-response","31","195011","0.0-25.0-0.0-0.0","C9298204F3014C94AE46CC6488F19F8F","0199d680-655c-7d0d-ada5-4c68c580de04","0199d675-8795-765b-adc2-c813de8cd3d1","","null","<div style=""display: flex; justify-content: center; align-items: center;"">
                     <img src=""images/causal/causal_series_8/causal_series_8_b.png"" style=""width: 300px; height: 300px;"" />
                   </div>","null","8","1","B","",""
"","","","","","html-keyboard-response","32","201025","0.0-25.0-0.0-1.0","C9298204F3014C94AE46CC6488F19F8F","0199d680-655c-7d0d-ada5-4c68c580de04","0199d675-8795-765b-adc2-c813de8cd3d1","","null","<div style=""display: flex; justify-content: center; align-items: center;"">
                     <img src=""images/causal/causal_series_8/causal_series_8_c.png"" style=""width: 300px; height: 300px;"" />
                   </div>","null","8","1","C","",""
"","","","","","html-keyboard-response","33","207028","0.0-25.0-0.0-2.0","C9298204F3014C94AE46CC6488F19F8F","0199d680-655c-7d0d-ada5-4c68c580de04","0199d675-8795-765b-adc2-c813de8cd3d1","","null","<div style=""display: flex; justify-content: center; align-items: center;"">
                     <img src=""images/causal/causal_series_8/causal_series_8_d.png"" style=""width: 300px; height: 300px;"" />
                   </div>","null","8","1","D","",""
"","","","","","survey-likert","34","210113","0.0-26.0","C9298204F3014C94AE46CC6488F19F8F","0199d680-655c-7d0d-ada5-4c68c580de04","0199d675-8795-765b-adc2-c813de8cd3d1","","3083","","{""Q0"":0}","8","1","surprise_rating","","[0]"
"","","","","","survey-likert","35","212672","0.0-27.0","C9298204F3014C94AE46CC6488F19F8F","0199d680-655c-7d0d-ada5-4c68c580de04","0199d675-8795-765b-adc2-c813de8cd3d1","","2558","","{""Q0"":2}","8","1","enjoyment_rating","","[0]"
"","","","","","html-keyboard-response","36","218675","0.0-28.0","C9298204F3014C94AE46CC6488F19F8F","0199d680-655c-7d0d-ada5-4c68c580de04","0199d675-8795-765b-adc2-c813de8cd3d1","","null","<div style=""display: flex; justify-content: center; align-items: center;"">
                     <img src=""images/other/blank.png"" style=""width: 300px; height: 300px;"" />
                   </div>","null","0","0","blank","",""
"","","","","","html-keyboard-response","37","224686","0.0-29.0","C9298204F3014C94AE46CC6488F19F8F","0199d680-655c-7d0d-ada5-4c68c580de04","0199d675-8795-765b-adc2-c813de8cd3d1","","null","<div style=""display: flex; justify-content: center; align-items: center;"">
                     <img src=""images/causal/causal_series_4/causal_series_4_a.png"" style=""width: 300px; height: 300px;"" />
                   </div>","null","4","2","A","",""
"","","","","","html-button-response","38","226090","0.0-30.0","C9298204F3014C94AE46CC6488F19F8F","0199d680-655c-7d0d-ada5-4c68c580de04","0199d675-8795-765b-adc2-c813de8cd3d1","","1403","
        <div style=""display: flex; justify-content: center; align-items: center;"">
          <img src=""images/red_deck_2.png"" style=""width: 300px; height: 300px; margin-right: 10px;"" />
          <img src=""images/blue_deck_1.png"" style=""width: 300px; height: 300px;"" />
        </div>","1","4","2","choice","1",""
"","","","","","html-keyboard-response","39","232099","0.0-31.0-1.0-0.0","C9298204F3014C94AE46CC6488F19F8F","0199d680-655c-7d0d-ada5-4c68c580de04","0199d675-8795-765b-adc2-c813de8cd3d1","","null","<div style=""display: flex; justify-content: center; align-items: center;"">
                     <img src=""images/semantic/semantic_series_4/semantic_series_4_b.png"" style=""width: 300px; height: 300px;"" />
                   </div>","null","4","2","B","",""
"","","","","","html-keyboard-response","40","238113","0.0-31.0-1.0-1.0","C9298204F3014C94AE46CC6488F19F8F","0199d680-655c-7d0d-ada5-4c68c580de04","0199d675-8795-765b-adc2-c813de8cd3d1","","null","<div style=""display: flex; justify-content: center; align-items: center;"">
                     <img src=""images/semantic/semantic_series_4/semantic_series_4_c.png"" style=""width: 300px; height: 300px;"" />
                   </div>","null","4","2","C","",""
"","","","","","html-keyboard-response","41","244114","0.0-31.0-1.0-2.0","C9298204F3014C94AE46CC6488F19F8F","0199d680-655c-7d0d-ada5-4c68c580de04","0199d675-8795-765b-adc2-c813de8cd3d1","","null","<div style=""display: flex; justify-content: center; align-items: center;"">
                     <img src=""images/semantic/semantic_series_4/semantic_series_4_d.png"" style=""width: 300px; height: 300px;"" />
                   </div>","null","4","2","D","",""
"","","","","","survey-likert","42","247206","0.0-32.0","C9298204F3014C94AE46CC6488F19F8F","0199d680-655c-7d0d-ada5-4c68c580de04","0199d675-8795-765b-adc2-c813de8cd3d1","","3091","","{""Q0"":4}","4","2","surprise_rating","","[0]"
"","","","","","survey-likert","43","250016","0.0-33.0","C9298204F3014C94AE46CC6488F19F8F","0199d680-655c-7d0d-ada5-4c68c580de04","0199d675-8795-765b-adc2-c813de8cd3d1","","2809","","{""Q0"":4}","4","2","enjoyment_rating","","[0]"
"","","","","","html-keyboard-response","44","256020","0.0-34.0","C9298204F3014C94AE46CC6488F19F8F","0199d680-655c-7d0d-ada5-4c68c580de04","0199d675-8795-765b-adc2-c813de8cd3d1","","null","<div style=""display: flex; justify-content: center; align-items: center;"">
                     <img src=""images/other/blank.png"" style=""width: 300px; height: 300px;"" />
                   </div>","null","0","0","blank","",""
"","","","","","html-keyboard-response","45","262021","0.0-35.0","C9298204F3014C94AE46CC6488F19F8F","0199d680-655c-7d0d-ada5-4c68c580de04","0199d675-8795-765b-adc2-c813de8cd3d1","","null","<div style=""display: flex; justify-content: center; align-items: center;"">
                     <img src=""images/causal/causal_series_5/causal_series_5_a.png"" style=""width: 300px; height: 300px;"" />
                   </div>","null","5","1","A","",""
"","","","","","html-button-response","46","263352","0.0-36.0","C9298204F3014C94AE46CC6488F19F8F","0199d680-655c-7d0d-ada5-4c68c580de04","0199d675-8795-765b-adc2-c813de8cd3d1","","1330","
        <div style=""display: flex; justify-content: center; align-items: center;"">
          <img src=""images/red_deck_2.png"" style=""width: 300px; height: 300px; margin-right: 10px;"" />
          <img src=""images/blue_deck_1.png"" style=""width: 300px; height: 300px;"" />
        </div>","0","5","1","choice","0",""
"","","","","","html-keyboard-response","47","269361","0.0-37.0-0.0-0.0","C9298204F3014C94AE46CC6488F19F8F","0199d680-655c-7d0d-ada5-4c68c580de04","0199d675-8795-765b-adc2-c813de8cd3d1","","null","<div style=""display: flex; justify-content: center; align-items: center;"">
                     <img src=""images/causal/causal_series_5/causal_series_5_b.png"" style=""width: 300px; height: 300px;"" />
                   </div>","null","5","1","B","",""
"","","","","","html-keyboard-response","48","275372","0.0-37.0-0.0-1.0","C9298204F3014C94AE46CC6488F19F8F","0199d680-655c-7d0d-ada5-4c68c580de04","0199d675-8795-765b-adc2-c813de8cd3d1","","null","<div style=""display: flex; justify-content: center; align-items: center;"">
                     <img src=""images/causal/causal_series_5/causal_series_5_c.png"" style=""width: 300px; height: 300px;"" />
                   </div>","null","5","1","C","",""
"","","","","","html-keyboard-response","49","281380","0.0-37.0-0.0-2.0","C9298204F3014C94AE46CC6488F19F8F","0199d680-655c-7d0d-ada5-4c68c580de04","0199d675-8795-765b-adc2-c813de8cd3d1","","null","<div style=""display: flex; justify-content: center; align-items: center;"">
                     <img src=""images/causal/causal_series_5/causal_series_5_d.png"" style=""width: 300px; height: 300px;"" />
                   </div>","null","5","1","D","",""
"","","","","","survey-likert","50","285698","0.0-38.0","C9298204F3014C94AE46CC6488F19F8F","0199d680-655c-7d0d-ada5-4c68c580de04","0199d675-8795-765b-adc2-c813de8cd3d1","","4317","","{""Q0"":4}","5","1","surprise_rating","","[0]"
"","","","","","survey-likert","51","287451","0.0-39.0","C9298204F3014C94AE46CC6488F19F8F","0199d680-655c-7d0d-ada5-4c68c580de04","0199d675-8795-765b-adc2-c813de8cd3d1","","1752","","{""Q0"":4}","5","1","enjoyment_rating","","[0]"
"","","","","","html-keyboard-response","52","293453","0.0-40.0","C9298204F3014C94AE46CC6488F19F8F","0199d680-655c-7d0d-ada5-4c68c580de04","0199d675-8795-765b-adc2-c813de8cd3d1","","null","<div style=""display: flex; justify-content: center; align-items: center;"">
                     <img src=""images/other/blank.png"" style=""width: 300px; height: 300px;"" />
                   </div>","null","0","0","blank","",""
"","","","","","html-keyboard-response","53","299464","0.0-41.0","C9298204F3014C94AE46CC6488F19F8F","0199d680-655c-7d0d-ada5-4c68c580de04","0199d675-8795-765b-adc2-c813de8cd3d1","","null","<div style=""display: flex; justify-content: center; align-items: center;"">
                     <img src=""images/causal/causal_series_5/causal_series_5_a.png"" style=""width: 300px; height: 300px;"" />
                   </div>","null","5","2","A","",""
"","","","","","html-button-response","54","300998","0.0-42.0","C9298204F3014C94AE46CC6488F19F8F","0199d680-655c-7d0d-ada5-4c68c580de04","0199d675-8795-765b-adc2-c813de8cd3d1","","1533","
        <div style=""display: flex; justify-content: center; align-items: center;"">
          <img src=""images/red_deck_2.png"" style=""width: 300px; height: 300px; margin-right: 10px;"" />
          <img src=""images/blue_deck_1.png"" style=""width: 300px; height: 300px;"" />
        </div>","1","5","2","choice","1",""
"","","","","","html-keyboard-response","55","307011","0.0-43.0-1.0-0.0","C9298204F3014C94AE46CC6488F19F8F","0199d680-655c-7d0d-ada5-4c68c580de04","0199d675-8795-765b-adc2-c813de8cd3d1","","null","<div style=""display: flex; justify-content: center; align-items: center;"">
                     <img src=""images/semantic/semantic_series_5/semantic_series_5_b.png"" style=""width: 300px; height: 300px;"" />
                   </div>","null","5","2","B","",""
"","","","","","html-keyboard-response","56","313012","0.0-43.0-1.0-1.0","C9298204F3014C94AE46CC6488F19F8F","0199d680-655c-7d0d-ada5-4c68c580de04","0199d675-8795-765b-adc2-c813de8cd3d1","","null","<div style=""display: flex; justify-content: center; align-items: center;"">
                     <img src=""images/semantic/semantic_series_5/semantic_series_5_c.png"" style=""width: 300px; height: 300px;"" />
                   </div>","null","5","2","C","",""
"","","","","","html-keyboard-response","57","319030","0.0-43.0-1.0-2.0","C9298204F3014C94AE46CC6488F19F8F","0199d680-655c-7d0d-ada5-4c68c580de04","0199d675-8795-765b-adc2-c813de8cd3d1","","null","<div style=""display: flex; justify-content: center; align-items: center;"">
                     <img src=""images/semantic/semantic_series_5/semantic_series_5_d.png"" style=""width: 300px; height: 300px;"" />
                   </div>","null","5","2","D","",""
"","","","","","survey-likert","58","323027","0.0-44.0","C9298204F3014C94AE46CC6488F19F8F","0199d680-655c-7d0d-ada5-4c68c580de04","0199d675-8795-765b-adc2-c813de8cd3d1","","3996","","{""Q0"":3}","5","2","surprise_rating","","[0]"
"","","","","","survey-likert","59","324806","0.0-45.0","C9298204F3014C94AE46CC6488F19F8F","0199d680-655c-7d0d-ada5-4c68c580de04","0199d675-8795-765b-adc2-c813de8cd3d1","","1778","","{""Q0"":1}","5","2","enjoyment_rating","","[0]"
"","","","","","html-keyboard-response","60","330811","0.0-46.0","C9298204F3014C94AE46CC6488F19F8F","0199d680-655c-7d0d-ada5-4c68c580de04","0199d675-8795-765b-adc2-c813de8cd3d1","","null","<div style=""display: flex; justify-content: center; align-items: center;"">
                     <img src=""images/other/blank.png"" style=""width: 300px; height: 300px;"" />
                   </div>","null","0","0","blank","",""
"","","","","","html-keyboard-response","61","336823","0.0-47.0","C9298204F3014C94AE46CC6488F19F8F","0199d680-655c-7d0d-ada5-4c68c580de04","0199d675-8795-765b-adc2-c813de8cd3d1","","null","<div style=""display: flex; justify-content: center; align-items: center;"">
                     <img src=""images/causal/causal_series_2/causal_series_2_a.png"" style=""width: 300px; height: 300px;"" />
                   </div>","null","2","1","A","",""
"","","","","","html-button-response","62","339140","0.0-48.0","C9298204F3014C94AE46CC6488F19F8F","0199d680-655c-7d0d-ada5-4c68c580de04","0199d675-8795-765b-adc2-c813de8cd3d1","","2316","
        <div style=""display: flex; justify-content: center; align-items: center;"">
          <img src=""images/red_deck_2.png"" style=""width: 300px; height: 300px; margin-right: 10px;"" />
          <img src=""images/blue_deck_1.png"" style=""width: 300px; height: 300px;"" />
        </div>","0","2","1","choice","0",""
"","","","","","html-keyboard-response","63","345151","0.0-49.0-0.0-0.0","C9298204F3014C94AE46CC6488F19F8F","0199d680-655c-7d0d-ada5-4c68c580de04","0199d675-8795-765b-adc2-c813de8cd3d1","","null","<div style=""display: flex; justify-content: center; align-items: center;"">
                     <img src=""images/causal/causal_series_2/causal_series_2_b.png"" style=""width: 300px; height: 300px;"" />
                   </div>","null","2","1","B","",""
"","","","","","html-keyboard-response","64","351161","0.0-49.0-0.0-1.0","C9298204F3014C94AE46CC6488F19F8F","0199d680-655c-7d0d-ada5-4c68c580de04","0199d675-8795-765b-adc2-c813de8cd3d1","","null","<div style=""display: flex; justify-content: center; align-items: center;"">
                     <img src=""images/causal/causal_series_2/causal_series_2_c.png"" style=""width: 300px; height: 300px;"" />
                   </div>","null","2","1","C","",""
"","","","","","html-keyboard-response","65","357171","0.0-49.0-0.0-2.0","C9298204F3014C94AE46CC6488F19F8F","0199d680-655c-7d0d-ada5-4c68c580de04","0199d675-8795-765b-adc2-c813de8cd3d1","","null","<div style=""display: flex; justify-content: center; align-items: center;"">
                     <img src=""images/causal/causal_series_2/causal_series_2_d.png"" style=""width: 300px; height: 300px;"" />
                   </div>","null","2","1","D","",""
"","","","","","survey-likert","66","360882","0.0-50.0","C9298204F3014C94AE46CC6488F19F8F","0199d680-655c-7d0d-ada5-4c68c580de04","0199d675-8795-765b-adc2-c813de8cd3d1","","3710","","{""Q0"":4}","2","1","surprise_rating","","[0]"
"","","","","","survey-likert","67","363200","0.0-51.0","C9298204F3014C94AE46CC6488F19F8F","0199d680-655c-7d0d-ada5-4c68c580de04","0199d675-8795-765b-adc2-c813de8cd3d1","","2316","","{""Q0"":2}","2","1","enjoyment_rating","","[0]"
"","","","","","html-keyboard-response","68","369211","0.0-52.0","C9298204F3014C94AE46CC6488F19F8F","0199d680-655c-7d0d-ada5-4c68c580de04","0199d675-8795-765b-adc2-c813de8cd3d1","","null","<div style=""display: flex; justify-content: center; align-items: center;"">
                     <img src=""images/other/blank.png"" style=""width: 300px; height: 300px;"" />
                   </div>","null","0","0","blank","",""
"","","","","","html-keyboard-response","69","375219","0.0-53.0","C9298204F3014C94AE46CC6488F19F8F","0199d680-655c-7d0d-ada5-4c68c580de04","0199d675-8795-765b-adc2-c813de8cd3d1","","null","<div style=""display: flex; justify-content: center; align-items: center;"">
                     <img src=""images/causal/causal_series_3/causal_series_3_a.png"" style=""width: 300px; height: 300px;"" />
                   </div>","null","3","1","A","",""
"","","","","","html-button-response","70","377800","0.0-54.0","C9298204F3014C94AE46CC6488F19F8F","0199d680-655c-7d0d-ada5-4c68c580de04","0199d675-8795-765b-adc2-c813de8cd3d1","","2580","
        <div style=""display: flex; justify-content: center; align-items: center;"">
          <img src=""images/red_deck_2.png"" style=""width: 300px; height: 300px; margin-right: 10px;"" />
          <img src=""images/blue_deck_1.png"" style=""width: 300px; height: 300px;"" />
        </div>","1","3","1","choice","1",""
"","","","","","html-keyboard-response","71","383806","0.0-55.0-1.0-0.0","C9298204F3014C94AE46CC6488F19F8F","0199d680-655c-7d0d-ada5-4c68c580de04","0199d675-8795-765b-adc2-c813de8cd3d1","","null","<div style=""display: flex; justify-content: center; align-items: center;"">
                     <img src=""images/semantic/semantic_series_3/semantic_series_3_b.png"" style=""width: 300px; height: 300px;"" />
                   </div>","null","3","1","B","",""
"","","","","","html-keyboard-response","72","389813","0.0-55.0-1.0-1.0","C9298204F3014C94AE46CC6488F19F8F","0199d680-655c-7d0d-ada5-4c68c580de04","0199d675-8795-765b-adc2-c813de8cd3d1","","null","<div style=""display: flex; justify-content: center; align-items: center;"">
                     <img src=""images/semantic/semantic_series_3/semantic_series_3_c.png"" style=""width: 300px; height: 300px;"" />
                   </div>","null","3","1","C","",""
"","","","","","html-keyboard-response","73","395823","0.0-55.0-1.0-2.0","C9298204F3014C94AE46CC6488F19F8F","0199d680-655c-7d0d-ada5-4c68c580de04","0199d675-8795-765b-adc2-c813de8cd3d1","","null","<div style=""display: flex; justify-content: center; align-items: center;"">
                     <img src=""images/semantic/semantic_series_3/semantic_series_3_d.png"" style=""width: 300px; height: 300px;"" />
                   </div>","null","3","1","D","",""
"","","","","","survey-likert","74","398852","0.0-56.0","C9298204F3014C94AE46CC6488F19F8F","0199d680-655c-7d0d-ada5-4c68c580de04","0199d675-8795-765b-adc2-c813de8cd3d1","","3028","","{""Q0"":3}","3","1","surprise_rating","","[0]"
"","","","","","survey-likert","75","400672","0.0-57.0","C9298204F3014C94AE46CC6488F19F8F","0199d680-655c-7d0d-ada5-4c68c580de04","0199d675-8795-765b-adc2-c813de8cd3d1","","1819","","{""Q0"":0}","3","1","enjoyment_rating","","[0]"
"","","","","","html-keyboard-response","76","406685","0.0-58.0","C9298204F3014C94AE46CC6488F19F8F","0199d680-655c-7d0d-ada5-4c68c580de04","0199d675-8795-765b-adc2-c813de8cd3d1","","null","<div style=""display: flex; justify-content: center; align-items: center;"">
                     <img src=""images/other/blank.png"" style=""width: 300px; height: 300px;"" />
                   </div>","null","0","0","blank","",""
"","","","","","html-keyboard-response","77","412693","0.0-59.0","C9298204F3014C94AE46CC6488F19F8F","0199d680-655c-7d0d-ada5-4c68c580de04","0199d675-8795-765b-adc2-c813de8cd3d1","","null","<div style=""display: flex; justify-content: center; align-items: center;"">
                     <img src=""images/causal/causal_series_10/causal_series_10_a.png"" style=""width: 300px; height: 300px;"" />
                   </div>","null","10","2","A","",""
"","","","","","html-button-response","78","414032","0.0-60.0","C9298204F3014C94AE46CC6488F19F8F","0199d680-655c-7d0d-ada5-4c68c580de04","0199d675-8795-765b-adc2-c813de8cd3d1","","1338","
        <div style=""display: flex; justify-content: center; align-items: center;"">
          <img src=""images/red_deck_2.png"" style=""width: 300px; height: 300px; margin-right: 10px;"" />
          <img src=""images/blue_deck_1.png"" style=""width: 300px; height: 300px;"" />
        </div>","0","10","2","choice","0",""
"","","","","","html-keyboard-response","79","420035","0.0-61.0-0.0-0.0","C9298204F3014C94AE46CC6488F19F8F","0199d680-655c-7d0d-ada5-4c68c580de04","0199d675-8795-765b-adc2-c813de8cd3d1","","null","<div style=""display: flex; justify-content: center; align-items: center;"">
                     <img src=""images/causal/causal_series_10/causal_series_10_b.png"" style=""width: 300px; height: 300px;"" />
                   </div>","null","10","2","B","",""
"","","","","","html-keyboard-response","80","426041","0.0-61.0-0.0-1.0","C9298204F3014C94AE46CC6488F19F8F","0199d680-655c-7d0d-ada5-4c68c580de04","0199d675-8795-765b-adc2-c813de8cd3d1","","null","<div style=""display: flex; justify-content: center; align-items: center;"">
                     <img src=""images/causal/causal_series_10/causal_series_10_c.png"" style=""width: 300px; height: 300px;"" />
                   </div>","null","10","2","C","",""
"","","","","","html-keyboard-response","81","432054","0.0-61.0-0.0-2.0","C9298204F3014C94AE46CC6488F19F8F","0199d680-655c-7d0d-ada5-4c68c580de04","0199d675-8795-765b-adc2-c813de8cd3d1","","null","<div style=""display: flex; justify-content: center; align-items: center;"">
                     <img src=""images/causal/causal_series_10/causal_series_10_d.png"" style=""width: 300px; height: 300px;"" />
                   </div>","null","10","2","D","",""
"","","","","","survey-likert","82","436297","0.0-62.0","C9298204F3014C94AE46CC6488F19F8F","0199d680-655c-7d0d-ada5-4c68c580de04","0199d675-8795-765b-adc2-c813de8cd3d1","","4241","","{""Q0"":4}","10","2","surprise_rating","","[0]"
"","","","","","survey-likert","83","437906","0.0-63.0","C9298204F3014C94AE46CC6488F19F8F","0199d680-655c-7d0d-ada5-4c68c580de04","0199d675-8795-765b-adc2-c813de8cd3d1","","1608","","{""Q0"":3}","10","2","enjoyment_rating","","[0]"
"","","","","","html-keyboard-response","84","443908","0.0-64.0","C9298204F3014C94AE46CC6488F19F8F","0199d680-655c-7d0d-ada5-4c68c580de04","0199d675-8795-765b-adc2-c813de8cd3d1","","null","<div style=""display: flex; justify-content: center; align-items: center;"">
                     <img src=""images/other/blank.png"" style=""width: 300px; height: 300px;"" />
                   </div>","null","0","0","blank","",""
"","","","","","html-keyboard-response","85","449913","0.0-65.0","C9298204F3014C94AE46CC6488F19F8F","0199d680-655c-7d0d-ada5-4c68c580de04","0199d675-8795-765b-adc2-c813de8cd3d1","","null","<div style=""display: flex; justify-content: center; align-items: center;"">
                     <img src=""images/causal/causal_series_2/causal_series_2_a.png"" style=""width: 300px; height: 300px;"" />
                   </div>","null","2","2","A","",""
"","","","","","html-button-response","86","450949","0.0-66.0","C9298204F3014C94AE46CC6488F19F8F","0199d680-655c-7d0d-ada5-4c68c580de04","0199d675-8795-765b-adc2-c813de8cd3d1","","1034","
        <div style=""display: flex; justify-content: center; align-items: center;"">
          <img src=""images/red_deck_2.png"" style=""width: 300px; height: 300px; margin-right: 10px;"" />
          <img src=""images/blue_deck_1.png"" style=""width: 300px; height: 300px;"" />
        </div>","1","2","2","choice","1",""
"","","","","","html-keyboard-response","87","456964","0.0-67.0-1.0-0.0","C9298204F3014C94AE46CC6488F19F8F","0199d680-655c-7d0d-ada5-4c68c580de04","0199d675-8795-765b-adc2-c813de8cd3d1","","null","<div style=""display: flex; justify-content: center; align-items: center;"">
                     <img src=""images/semantic/semantic_series_2/semantic_series_2_b.png"" style=""width: 300px; height: 300px;"" />
                   </div>","null","2","2","B","",""
"","","","","","html-keyboard-response","88","462970","0.0-67.0-1.0-1.0","C9298204F3014C94AE46CC6488F19F8F","0199d680-655c-7d0d-ada5-4c68c580de04","0199d675-8795-765b-adc2-c813de8cd3d1","","null","<div style=""display: flex; justify-content: center; align-items: center;"">
                     <img src=""images/semantic/semantic_series_2/semantic_series_2_c.png"" style=""width: 300px; height: 300px;"" />
                   </div>","null","2","2","C","",""
"","","","","","html-keyboard-response","89","468985","0.0-67.0-1.0-2.0","C9298204F3014C94AE46CC6488F19F8F","0199d680-655c-7d0d-ada5-4c68c580de04","0199d675-8795-765b-adc2-c813de8cd3d1","","null","<div style=""display: flex; justify-content: center; align-items: center;"">
                     <img src=""images/semantic/semantic_series_2/semantic_series_2_d.png"" style=""width: 300px; height: 300px;"" />
                   </div>","null","2","2","D","",""
"","","","","","survey-likert","90","474224","0.0-68.0","C9298204F3014C94AE46CC6488F19F8F","0199d680-655c-7d0d-ada5-4c68c580de04","0199d675-8795-765b-adc2-c813de8cd3d1","","5238","","{""Q0"":3}","2","2","surprise_rating","","[0]"
"","","","","","survey-likert","91","476030","0.0-69.0","C9298204F3014C94AE46CC6488F19F8F","0199d680-655c-7d0d-ada5-4c68c580de04","0199d675-8795-765b-adc2-c813de8cd3d1","","1804","","{""Q0"":4}","2","2","enjoyment_rating","","[0]"
"","","","","","html-keyboard-response","92","482045","0.0-70.0","C9298204F3014C94AE46CC6488F19F8F","0199d680-655c-7d0d-ada5-4c68c580de04","0199d675-8795-765b-adc2-c813de8cd3d1","","null","<div style=""display: flex; justify-content: center; align-items: center;"">
                     <img src=""images/other/blank.png"" style=""width: 300px; height: 300px;"" />
                   </div>","null","0","0","blank","",""
"","","","","","html-keyboard-response","93","488051","0.0-71.0","C9298204F3014C94AE46CC6488F19F8F","0199d680-655c-7d0d-ada5-4c68c580de04","0199d675-8795-765b-adc2-c813de8cd3d1","","null","<div style=""display: flex; justify-content: center; align-items: center;"">
                     <img src=""images/causal/causal_series_9/causal_series_9_a.png"" style=""width: 300px; height: 300px;"" />
                   </div>","null","9","1","A","",""
"","","","","","html-button-response","94","489489","0.0-72.0","C9298204F3014C94AE46CC6488F19F8F","0199d680-655c-7d0d-ada5-4c68c580de04","0199d675-8795-765b-adc2-c813de8cd3d1","","1437","
        <div style=""display: flex; justify-content: center; align-items: center;"">
          <img src=""images/red_deck_2.png"" style=""width: 300px; height: 300px; margin-right: 10px;"" />
          <img src=""images/blue_deck_1.png"" style=""width: 300px; height: 300px;"" />
        </div>","0","9","1","choice","0",""
"","","","","","html-keyboard-response","95","495500","0.0-73.0-0.0-0.0","C9298204F3014C94AE46CC6488F19F8F","0199d680-655c-7d0d-ada5-4c68c580de04","0199d675-8795-765b-adc2-c813de8cd3d1","","null","<div style=""display: flex; justify-content: center; align-items: center;"">
                     <img src=""images/causal/causal_series_9/causal_series_9_b.png"" style=""width: 300px; height: 300px;"" />
                   </div>","null","9","1","B","",""
"","","","","","html-keyboard-response","96","501512","0.0-73.0-0.0-1.0","C9298204F3014C94AE46CC6488F19F8F","0199d680-655c-7d0d-ada5-4c68c580de04","0199d675-8795-765b-adc2-c813de8cd3d1","","null","<div style=""display: flex; justify-content: center; align-items: center;"">
                     <img src=""images/causal/causal_series_9/causal_series_9_c.png"" style=""width: 300px; height: 300px;"" />
                   </div>","null","9","1","C","",""
"","","","","","html-keyboard-response","97","507528","0.0-73.0-0.0-2.0","C9298204F3014C94AE46CC6488F19F8F","0199d680-655c-7d0d-ada5-4c68c580de04","0199d675-8795-765b-adc2-c813de8cd3d1","","null","<div style=""display: flex; justify-content: center; align-items: center;"">
                     <img src=""images/causal/causal_series_9/causal_series_9_d.png"" style=""width: 300px; height: 300px;"" />
                   </div>","null","9","1","D","",""
"","","","","","survey-likert","98","510852","0.0-74.0","C9298204F3014C94AE46CC6488F19F8F","0199d680-655c-7d0d-ada5-4c68c580de04","0199d675-8795-765b-adc2-c813de8cd3d1","","3323","","{""Q0"":4}","9","1","surprise_rating","","[0]"
"","","","","","survey-likert","99","513477","0.0-75.0","C9298204F3014C94AE46CC6488F19F8F","0199d680-655c-7d0d-ada5-4c68c580de04","0199d675-8795-765b-adc2-c813de8cd3d1","","2624","","{""Q0"":0}","9","1","enjoyment_rating","","[0]"
"","","","","","html-keyboard-response","100","519491","0.0-76.0","C9298204F3014C94AE46CC6488F19F8F","0199d680-655c-7d0d-ada5-4c68c580de04","0199d675-8795-765b-adc2-c813de8cd3d1","","null","<div style=""display: flex; justify-content: center; align-items: center;"">
                     <img src=""images/other/blank.png"" style=""width: 300px; height: 300px;"" />
                   </div>","null","0","0","blank","",""
"","","","","","html-keyboard-response","101","525492","0.0-77.0","C9298204F3014C94AE46CC6488F19F8F","0199d680-655c-7d0d-ada5-4c68c580de04","0199d675-8795-765b-adc2-c813de8cd3d1","","null","<div style=""display: flex; justify-content: center; align-items: center;"">
                     <img src=""images/causal/causal_series_3/causal_series_3_a.png"" style=""width: 300px; height: 300px;"" />
                   </div>","null","3","2","A","",""
"","","","","","html-button-response","102","526896","0.0-78.0","C9298204F3014C94AE46CC6488F19F8F","0199d680-655c-7d0d-ada5-4c68c580de04","0199d675-8795-765b-adc2-c813de8cd3d1","","1403","
        <div style=""display: flex; justify-content: center; align-items: center;"">
          <img src=""images/red_deck_2.png"" style=""width: 300px; height: 300px; margin-right: 10px;"" />
          <img src=""images/blue_deck_1.png"" style=""width: 300px; height: 300px;"" />
        </div>","0","3","2","choice","0",""
"","","","","","html-keyboard-response","103","532906","0.0-79.0-0.0-0.0","C9298204F3014C94AE46CC6488F19F8F","0199d680-655c-7d0d-ada5-4c68c580de04","0199d675-8795-765b-adc2-c813de8cd3d1","","null","<div style=""display: flex; justify-content: center; align-items: center;"">
                     <img src=""images/causal/causal_series_3/causal_series_3_b.png"" style=""width: 300px; height: 300px;"" />
                   </div>","null","3","2","B","",""
"","","","","","html-keyboard-response","104","538918","0.0-79.0-0.0-1.0","C9298204F3014C94AE46CC6488F19F8F","0199d680-655c-7d0d-ada5-4c68c580de04","0199d675-8795-765b-adc2-c813de8cd3d1","","null","<div style=""display: flex; justify-content: center; align-items: center;"">
                     <img src=""images/causal/causal_series_3/causal_series_3_c.png"" style=""width: 300px; height: 300px;"" />
                   </div>","null","3","2","C","",""
"","","","","","html-keyboard-response","105","544921","0.0-79.0-0.0-2.0","C9298204F3014C94AE46CC6488F19F8F","0199d680-655c-7d0d-ada5-4c68c580de04","0199d675-8795-765b-adc2-c813de8cd3d1","","null","<div style=""display: flex; justify-content: center; align-items: center;"">
                     <img src=""images/causal/causal_series_3/causal_series_3_d.png"" style=""width: 300px; height: 300px;"" />
                   </div>","null","3","2","D","",""
"","","","","","survey-likert","106","549762","0.0-80.0","C9298204F3014C94AE46CC6488F19F8F","0199d680-655c-7d0d-ada5-4c68c580de04","0199d675-8795-765b-adc2-c813de8cd3d1","","4840","","{""Q0"":4}","3","2","surprise_rating","","[0]"
"","","","","","survey-likert","107","551816","0.0-81.0","C9298204F3014C94AE46CC6488F19F8F","0199d680-655c-7d0d-ada5-4c68c580de04","0199d675-8795-765b-adc2-c813de8cd3d1","","2053","","{""Q0"":1}","3","2","enjoyment_rating","","[0]"
"","","","","","html-keyboard-response","108","557835","0.0-82.0","C9298204F3014C94AE46CC6488F19F8F","0199d680-655c-7d0d-ada5-4c68c580de04","0199d675-8795-765b-adc2-c813de8cd3d1","","null","<div style=""display: flex; justify-content: center; align-items: center;"">
                     <img src=""images/other/blank.png"" style=""width: 300px; height: 300px;"" />
                   </div>","null","0","0","blank","",""
"","","","","","html-keyboard-response","109","563839","0.0-83.0","C9298204F3014C94AE46CC6488F19F8F","0199d680-655c-7d0d-ada5-4c68c580de04","0199d675-8795-765b-adc2-c813de8cd3d1","","null","<div style=""display: flex; justify-content: center; align-items: center;"">
                     <img src=""images/causal/causal_series_6/causal_series_6_a.png"" style=""width: 300px; height: 300px;"" />
                   </div>","null","6","2","A","",""
"","","","","","html-button-response","110","564718","0.0-84.0","C9298204F3014C94AE46CC6488F19F8F","0199d680-655c-7d0d-ada5-4c68c580de04","0199d675-8795-765b-adc2-c813de8cd3d1","","878","
        <div style=""display: flex; justify-content: center; align-items: center;"">
          <img src=""images/red_deck_2.png"" style=""width: 300px; height: 300px; margin-right: 10px;"" />
          <img src=""images/blue_deck_1.png"" style=""width: 300px; height: 300px;"" />
        </div>","0","6","2","choice","0",""
"","","","","","html-keyboard-response","111","570735","0.0-85.0-0.0-0.0","C9298204F3014C94AE46CC6488F19F8F","0199d680-655c-7d0d-ada5-4c68c580de04","0199d675-8795-765b-adc2-c813de8cd3d1","","null","<div style=""display: flex; justify-content: center; align-items: center;"">
                     <img src=""images/causal/causal_series_6/causal_series_6_b.png"" style=""width: 300px; height: 300px;"" />
                   </div>","null","6","2","B","",""
"","","","","","html-keyboard-response","112","576739","0.0-85.0-0.0-1.0","C9298204F3014C94AE46CC6488F19F8F","0199d680-655c-7d0d-ada5-4c68c580de04","0199d675-8795-765b-adc2-c813de8cd3d1","","null","<div style=""display: flex; justify-content: center; align-items: center;"">
                     <img src=""images/causal/causal_series_6/causal_series_6_c.png"" style=""width: 300px; height: 300px;"" />
                   </div>","null","6","2","C","",""
"","","","","","html-keyboard-response","113","582741","0.0-85.0-0.0-2.0","C9298204F3014C94AE46CC6488F19F8F","0199d680-655c-7d0d-ada5-4c68c580de04","0199d675-8795-765b-adc2-c813de8cd3d1","","null","<div style=""display: flex; justify-content: center; align-items: center;"">
                     <img src=""images/causal/causal_series_6/causal_series_6_d.png"" style=""width: 300px; height: 300px;"" />
                   </div>","null","6","2","D","",""
"","","","","","survey-likert","114","586777","0.0-86.0","C9298204F3014C94AE46CC6488F19F8F","0199d680-655c-7d0d-ada5-4c68c580de04","0199d675-8795-765b-adc2-c813de8cd3d1","","4036","","{""Q0"":3}","6","2","surprise_rating","","[0]"
"","","","","","survey-likert","115","590038","0.0-87.0","C9298204F3014C94AE46CC6488F19F8F","0199d680-655c-7d0d-ada5-4c68c580de04","0199d675-8795-765b-adc2-c813de8cd3d1","","3260","","{""Q0"":2}","6","2","enjoyment_rating","","[0]"
"","","","","","html-keyboard-response","116","596049","0.0-88.0","C9298204F3014C94AE46CC6488F19F8F","0199d680-655c-7d0d-ada5-4c68c580de04","0199d675-8795-765b-adc2-c813de8cd3d1","","null","<div style=""display: flex; justify-content: center; align-items: center;"">
                     <img src=""images/other/blank.png"" style=""width: 300px; height: 300px;"" />
                   </div>","null","0","0","blank","",""
"","","","","","html-keyboard-response","117","602059","0.0-89.0","C9298204F3014C94AE46CC6488F19F8F","0199d680-655c-7d0d-ada5-4c68c580de04","0199d675-8795-765b-adc2-c813de8cd3d1","","null","<div style=""display: flex; justify-content: center; align-items: center;"">
                     <img src=""images/causal/causal_series_7/causal_series_7_a.png"" style=""width: 300px; height: 300px;"" />
                   </div>","null","7","1","A","",""
"","","","","","html-button-response","118","607620","0.0-90.0","C9298204F3014C94AE46CC6488F19F8F","0199d680-655c-7d0d-ada5-4c68c580de04","0199d675-8795-765b-adc2-c813de8cd3d1","","5560","
        <div style=""display: flex; justify-content: center; align-items: center;"">
          <img src=""images/red_deck_2.png"" style=""width: 300px; height: 300px; margin-right: 10px;"" />
          <img src=""images/blue_deck_1.png"" style=""width: 300px; height: 300px;"" />
        </div>","0","7","1","choice","0",""
"","","","","","html-keyboard-response","119","613637","0.0-91.0-0.0-0.0","C9298204F3014C94AE46CC6488F19F8F","0199d680-655c-7d0d-ada5-4c68c580de04","0199d675-8795-765b-adc2-c813de8cd3d1","","null","<div style=""display: flex; justify-content: center; align-items: center;"">
                     <img src=""images/causal/causal_series_7/causal_series_7_b.png"" style=""width: 300px; height: 300px;"" />
                   </div>","null","7","1","B","",""
"","","","","","html-keyboard-response","120","619654","0.0-91.0-0.0-1.0","C9298204F3014C94AE46CC6488F19F8F","0199d680-655c-7d0d-ada5-4c68c580de04","0199d675-8795-765b-adc2-c813de8cd3d1","","null","<div style=""display: flex; justify-content: center; align-items: center;"">
                     <img src=""images/causal/causal_series_7/causal_series_7_c.png"" style=""width: 300px; height: 300px;"" />
                   </div>","null","7","1","C","",""
"","","","","","html-keyboard-response","121","625656","0.0-91.0-0.0-2.0","C9298204F3014C94AE46CC6488F19F8F","0199d680-655c-7d0d-ada5-4c68c580de04","0199d675-8795-765b-adc2-c813de8cd3d1","","null","<div style=""display: flex; justify-content: center; align-items: center;"">
                     <img src=""images/causal/causal_series_7/causal_series_7_d.png"" style=""width: 300px; height: 300px;"" />
                   </div>","null","7","1","D","",""
"","","","","","survey-likert","122","627416","0.0-92.0","C9298204F3014C94AE46CC6488F19F8F","0199d680-655c-7d0d-ada5-4c68c580de04","0199d675-8795-765b-adc2-c813de8cd3d1","","1760","","{""Q0"":4}","7","1","surprise_rating","","[0]"
"","","","","","survey-likert","123","629406","0.0-93.0","C9298204F3014C94AE46CC6488F19F8F","0199d680-655c-7d0d-ada5-4c68c580de04","0199d675-8795-765b-adc2-c813de8cd3d1","","1989","","{""Q0"":3}","7","1","enjoyment_rating","","[0]"
"","","","","","html-keyboard-response","124","635421","0.0-94.0","C9298204F3014C94AE46CC6488F19F8F","0199d680-655c-7d0d-ada5-4c68c580de04","0199d675-8795-765b-adc2-c813de8cd3d1","","null","<div style=""display: flex; justify-content: center; align-items: center;"">
                     <img src=""images/other/blank.png"" style=""width: 300px; height: 300px;"" />
                   </div>","null","0","0","blank","",""
"","","","","","html-keyboard-response","125","641432","0.0-95.0","C9298204F3014C94AE46CC6488F19F8F","0199d680-655c-7d0d-ada5-4c68c580de04","0199d675-8795-765b-adc2-c813de8cd3d1","","null","<div style=""display: flex; justify-content: center; align-items: center;"">
                     <img src=""images/causal/causal_series_1/causal_series_1_a.png"" style=""width: 300px; height: 300px;"" />
                   </div>","null","1","2","A","",""
"","","","","","html-button-response","126","643499","0.0-96.0","C9298204F3014C94AE46CC6488F19F8F","0199d680-655c-7d0d-ada5-4c68c580de04","0199d675-8795-765b-adc2-c813de8cd3d1","","2067","
        <div style=""display: flex; justify-content: center; align-items: center;"">
          <img src=""images/red_deck_2.png"" style=""width: 300px; height: 300px; margin-right: 10px;"" />
          <img src=""images/blue_deck_1.png"" style=""width: 300px; height: 300px;"" />
        </div>","1","1","2","choice","1",""
"","","","","","html-keyboard-response","127","649505","0.0-97.0-1.0-0.0","C9298204F3014C94AE46CC6488F19F8F","0199d680-655c-7d0d-ada5-4c68c580de04","0199d675-8795-765b-adc2-c813de8cd3d1","","null","<div style=""display: flex; justify-content: center; align-items: center;"">
                     <img src=""images/semantic/semantic_series_1/semantic_series_1_b.png"" style=""width: 300px; height: 300px;"" />
                   </div>","null","1","2","B","",""
"","","","","","html-keyboard-response","128","655512","0.0-97.0-1.0-1.0","C9298204F3014C94AE46CC6488F19F8F","0199d680-655c-7d0d-ada5-4c68c580de04","0199d675-8795-765b-adc2-c813de8cd3d1","","null","<div style=""display: flex; justify-content: center; align-items: center;"">
                     <img src=""images/semantic/semantic_series_1/semantic_series_1_c.png"" style=""width: 300px; height: 300px;"" />
                   </div>","null","1","2","C","",""
"","","","","","html-keyboard-response","129","661527","0.0-97.0-1.0-2.0","C9298204F3014C94AE46CC6488F19F8F","0199d680-655c-7d0d-ada5-4c68c580de04","0199d675-8795-765b-adc2-c813de8cd3d1","","null","<div style=""display: flex; justify-content: center; align-items: center;"">
                     <img src=""images/semantic/semantic_series_1/semantic_series_1_d.png"" style=""width: 300px; height: 300px;"" />
                   </div>","null","1","2","D","",""
"","","","","","survey-likert","130","667371","0.0-98.0","C9298204F3014C94AE46CC6488F19F8F","0199d680-655c-7d0d-ada5-4c68c580de04","0199d675-8795-765b-adc2-c813de8cd3d1","","5843","","{""Q0"":4}","1","2","surprise_rating","","[0]"
"","","","","","survey-likert","131","669600","0.0-99.0","C9298204F3014C94AE46CC6488F19F8F","0199d680-655c-7d0d-ada5-4c68c580de04","0199d675-8795-765b-adc2-c813de8cd3d1","","2228","","{""Q0"":2}","1","2","enjoyment_rating","","[0]"
"","","","","","html-keyboard-response","132","675603","0.0-100.0","C9298204F3014C94AE46CC6488F19F8F","0199d680-655c-7d0d-ada5-4c68c580de04","0199d675-8795-765b-adc2-c813de8cd3d1","","null","<div style=""display: flex; justify-content: center; align-items: center;"">
                     <img src=""images/other/blank.png"" style=""width: 300px; height: 300px;"" />
                   </div>","null","0","0","blank","",""
"","","","","","html-keyboard-response","133","681610","0.0-101.0","C9298204F3014C94AE46CC6488F19F8F","0199d680-655c-7d0d-ada5-4c68c580de04","0199d675-8795-765b-adc2-c813de8cd3d1","","null","<div style=""display: flex; justify-content: center; align-items: center;"">
                     <img src=""images/causal/causal_series_9/causal_series_9_a.png"" style=""width: 300px; height: 300px;"" />
                   </div>","null","9","2","A","",""
"","","","","","html-button-response","134","682573","0.0-102.0","C9298204F3014C94AE46CC6488F19F8F","0199d680-655c-7d0d-ada5-4c68c580de04","0199d675-8795-765b-adc2-c813de8cd3d1","","962","
        <div style=""display: flex; justify-content: center; align-items: center;"">
          <img src=""images/red_deck_2.png"" style=""width: 300px; height: 300px; margin-right: 10px;"" />
          <img src=""images/blue_deck_1.png"" style=""width: 300px; height: 300px;"" />
        </div>","1","9","2","choice","1",""
"","","","","","html-keyboard-response","135","688575","0.0-103.0-1.0-0.0","C9298204F3014C94AE46CC6488F19F8F","0199d680-655c-7d0d-ada5-4c68c580de04","0199d675-8795-765b-adc2-c813de8cd3d1","","null","<div style=""display: flex; justify-content: center; align-items: center;"">
                     <img src=""images/semantic/semantic_series_9/semantic_series_9_b.png"" style=""width: 300px; height: 300px;"" />
                   </div>","null","9","2","B","",""
"","","","","","html-keyboard-response","136","694583","0.0-103.0-1.0-1.0","C9298204F3014C94AE46CC6488F19F8F","0199d680-655c-7d0d-ada5-4c68c580de04","0199d675-8795-765b-adc2-c813de8cd3d1","","null","<div style=""display: flex; justify-content: center; align-items: center;"">
                     <img src=""images/semantic/semantic_series_9/semantic_series_9_c.png"" style=""width: 300px; height: 300px;"" />
                   </div>","null","9","2","C","",""
"","","","","","html-keyboard-response","137","700588","0.0-103.0-1.0-2.0","C9298204F3014C94AE46CC6488F19F8F","0199d680-655c-7d0d-ada5-4c68c580de04","0199d675-8795-765b-adc2-c813de8cd3d1","","null","<div style=""display: flex; justify-content: center; align-items: center;"">
                     <img src=""images/semantic/semantic_series_9/semantic_series_9_d.png"" style=""width: 300px; height: 300px;"" />
                   </div>","null","9","2","D","",""
"","","","","","survey-likert","138","703458","0.0-104.0","C9298204F3014C94AE46CC6488F19F8F","0199d680-655c-7d0d-ada5-4c68c580de04","0199d675-8795-765b-adc2-c813de8cd3d1","","2869","","{""Q0"":4}","9","2","surprise_rating","","[0]"
"","","","","","survey-likert","139","705746","0.0-105.0","C9298204F3014C94AE46CC6488F19F8F","0199d680-655c-7d0d-ada5-4c68c580de04","0199d675-8795-765b-adc2-c813de8cd3d1","","2286","","{""Q0"":2}","9","2","enjoyment_rating","","[0]"
"","","","","","html-keyboard-response","140","711750","0.0-106.0","C9298204F3014C94AE46CC6488F19F8F","0199d680-655c-7d0d-ada5-4c68c580de04","0199d675-8795-765b-adc2-c813de8cd3d1","","null","<div style=""display: flex; justify-content: center; align-items: center;"">
                     <img src=""images/other/blank.png"" style=""width: 300px; height: 300px;"" />
                   </div>","null","0","0","blank","",""
"","","","","","html-keyboard-response","141","717752","0.0-107.0","C9298204F3014C94AE46CC6488F19F8F","0199d680-655c-7d0d-ada5-4c68c580de04","0199d675-8795-765b-adc2-c813de8cd3d1","","null","<div style=""display: flex; justify-content: center; align-items: center;"">
                     <img src=""images/causal/causal_series_1/causal_series_1_a.png"" style=""width: 300px; height: 300px;"" />
                   </div>","null","1","1","A","",""
"","","","","","html-button-response","142","718888","0.0-108.0","C9298204F3014C94AE46CC6488F19F8F","0199d680-655c-7d0d-ada5-4c68c580de04","0199d675-8795-765b-adc2-c813de8cd3d1","","1135","
        <div style=""display: flex; justify-content: center; align-items: center;"">
          <img src=""images/red_deck_2.png"" style=""width: 300px; height: 300px; margin-right: 10px;"" />
          <img src=""images/blue_deck_1.png"" style=""width: 300px; height: 300px;"" />
        </div>","0","1","1","choice","0",""
"","","","","","html-keyboard-response","143","724896","0.0-109.0-0.0-0.0","C9298204F3014C94AE46CC6488F19F8F","0199d680-655c-7d0d-ada5-4c68c580de04","0199d675-8795-765b-adc2-c813de8cd3d1","","null","<div style=""display: flex; justify-content: center; align-items: center;"">
                     <img src=""images/causal/causal_series_1/causal_series_1_b.png"" style=""width: 300px; height: 300px;"" />
                   </div>","null","1","1","B","",""
"","","","","","html-keyboard-response","144","730909","0.0-109.0-0.0-1.0","C9298204F3014C94AE46CC6488F19F8F","0199d680-655c-7d0d-ada5-4c68c580de04","0199d675-8795-765b-adc2-c813de8cd3d1","","null","<div style=""display: flex; justify-content: center; align-items: center;"">
                     <img src=""images/causal/causal_series_1/causal_series_1_c.png"" style=""width: 300px; height: 300px;"" />
                   </div>","null","1","1","C","",""
"","","","","","html-keyboard-response","145","736912","0.0-109.0-0.0-2.0","C9298204F3014C94AE46CC6488F19F8F","0199d680-655c-7d0d-ada5-4c68c580de04","0199d675-8795-765b-adc2-c813de8cd3d1","","null","<div style=""display: flex; justify-content: center; align-items: center;"">
                     <img src=""images/causal/causal_series_1/causal_series_1_d.png"" style=""width: 300px; height: 300px;"" />
                   </div>","null","1","1","D","",""
"","","","","","survey-likert","146","740274","0.0-110.0","C9298204F3014C94AE46CC6488F19F8F","0199d680-655c-7d0d-ada5-4c68c580de04","0199d675-8795-765b-adc2-c813de8cd3d1","","3361","","{""Q0"":4}","1","1","surprise_rating","","[0]"
"","","","","","survey-likert","147","742744","0.0-111.0","C9298204F3014C94AE46CC6488F19F8F","0199d680-655c-7d0d-ada5-4c68c580de04","0199d675-8795-765b-adc2-c813de8cd3d1","","2469","","{""Q0"":1}","1","1","enjoyment_rating","","[0]"
"","","","","","html-keyboard-response","148","748750","0.0-112.0","C9298204F3014C94AE46CC6488F19F8F","0199d680-655c-7d0d-ada5-4c68c580de04","0199d675-8795-765b-adc2-c813de8cd3d1","","null","<div style=""display: flex; justify-content: center; align-items: center;"">
                     <img src=""images/other/blank.png"" style=""width: 300px; height: 300px;"" />
                   </div>","null","0","0","blank","",""
"","","","","","html-keyboard-response","149","754765","0.0-113.0","C9298204F3014C94AE46CC6488F19F8F","0199d680-655c-7d0d-ada5-4c68c580de04","0199d675-8795-765b-adc2-c813de8cd3d1","","null","<div style=""display: flex; justify-content: center; align-items: center;"">
                     <img src=""images/causal/causal_series_4/causal_series_4_a.png"" style=""width: 300px; height: 300px;"" />
                   </div>","null","4","1","A","",""
"","","","","","html-button-response","150","757652","0.0-114.0","C9298204F3014C94AE46CC6488F19F8F","0199d680-655c-7d0d-ada5-4c68c580de04","0199d675-8795-765b-adc2-c813de8cd3d1","","2886","
        <div style=""display: flex; justify-content: center; align-items: center;"">
          <img src=""images/red_deck_2.png"" style=""width: 300px; height: 300px; margin-right: 10px;"" />
          <img src=""images/blue_deck_1.png"" style=""width: 300px; height: 300px;"" />
        </div>","0","4","1","choice","0",""
"","","","","","html-keyboard-response","151","763666","0.0-115.0-0.0-0.0","C9298204F3014C94AE46CC6488F19F8F","0199d680-655c-7d0d-ada5-4c68c580de04","0199d675-8795-765b-adc2-c813de8cd3d1","","null","<div style=""display: flex; justify-content: center; align-items: center;"">
                     <img src=""images/causal/causal_series_4/causal_series_4_b.png"" style=""width: 300px; height: 300px;"" />
                   </div>","null","4","1","B","",""
"","","","","","html-keyboard-response","152","769669","0.0-115.0-0.0-1.0","C9298204F3014C94AE46CC6488F19F8F","0199d680-655c-7d0d-ada5-4c68c580de04","0199d675-8795-765b-adc2-c813de8cd3d1","","null","<div style=""display: flex; justify-content: center; align-items: center;"">
                     <img src=""images/causal/causal_series_4/causal_series_4_c.png"" style=""width: 300px; height: 300px;"" />
                   </div>","null","4","1","C","",""
"","","","","","html-keyboard-response","153","775680","0.0-115.0-0.0-2.0","C9298204F3014C94AE46CC6488F19F8F","0199d680-655c-7d0d-ada5-4c68c580de04","0199d675-8795-765b-adc2-c813de8cd3d1","","null","<div style=""display: flex; justify-content: center; align-items: center;"">
                     <img src=""images/causal/causal_series_4/causal_series_4_d.png"" style=""width: 300px; height: 300px;"" />
                   </div>","null","4","1","D","",""
"","","","","","survey-likert","154","778418","0.0-116.0","C9298204F3014C94AE46CC6488F19F8F","0199d680-655c-7d0d-ada5-4c68c580de04","0199d675-8795-765b-adc2-c813de8cd3d1","","2737","","{""Q0"":4}","4","1","surprise_rating","","[0]"
"","","","","","survey-likert","155","781336","0.0-117.0","C9298204F3014C94AE46CC6488F19F8F","0199d680-655c-7d0d-ada5-4c68c580de04","0199d675-8795-765b-adc2-c813de8cd3d1","","2917","","{""Q0"":4}","4","1","enjoyment_rating","","[0]"
"","","","","","html-keyboard-response","156","787351","0.0-118.0","C9298204F3014C94AE46CC6488F19F8F","0199d680-655c-7d0d-ada5-4c68c580de04","0199d675-8795-765b-adc2-c813de8cd3d1","","null","<div style=""display: flex; justify-content: center; align-items: center;"">
                     <img src=""images/other/blank.png"" style=""width: 300px; height: 300px;"" />
                   </div>","null","0","0","blank","",""
"","","","","","html-keyboard-response","157","793368","0.0-119.0","C9298204F3014C94AE46CC6488F19F8F","0199d680-655c-7d0d-ada5-4c68c580de04","0199d675-8795-765b-adc2-c813de8cd3d1","","null","<div style=""display: flex; justify-content: center; align-items: center;"">
                     <img src=""images/causal/causal_series_7/causal_series_7_a.png"" style=""width: 300px; height: 300px;"" />
                   </div>","null","7","2","A","",""
"","","","","","html-button-response","158","794878","0.0-120.0","C9298204F3014C94AE46CC6488F19F8F","0199d680-655c-7d0d-ada5-4c68c580de04","0199d675-8795-765b-adc2-c813de8cd3d1","","1509","
        <div style=""display: flex; justify-content: center; align-items: center;"">
          <img src=""images/red_deck_2.png"" style=""width: 300px; height: 300px; margin-right: 10px;"" />
          <img src=""images/blue_deck_1.png"" style=""width: 300px; height: 300px;"" />
        </div>","1","7","2","choice","1",""
"","","","","","html-keyboard-response","159","800885","0.0-121.0-1.0-0.0","C9298204F3014C94AE46CC6488F19F8F","0199d680-655c-7d0d-ada5-4c68c580de04","0199d675-8795-765b-adc2-c813de8cd3d1","","null","<div style=""display: flex; justify-content: center; align-items: center;"">
                     <img src=""images/semantic/semantic_series_7/semantic_series_7_b.png"" style=""width: 300px; height: 300px;"" />
                   </div>","null","7","2","B","",""
"","","","","","html-keyboard-response","160","806898","0.0-121.0-1.0-1.0","C9298204F3014C94AE46CC6488F19F8F","0199d680-655c-7d0d-ada5-4c68c580de04","0199d675-8795-765b-adc2-c813de8cd3d1","","null","<div style=""display: flex; justify-content: center; align-items: center;"">
                     <img src=""images/semantic/semantic_series_7/semantic_series_7_c.png"" style=""width: 300px; height: 300px;"" />
                   </div>","null","7","2","C","",""
"","","","","","html-keyboard-response","161","812914","0.0-121.0-1.0-2.0","C9298204F3014C94AE46CC6488F19F8F","0199d680-655c-7d0d-ada5-4c68c580de04","0199d675-8795-765b-adc2-c813de8cd3d1","","null","<div style=""display: flex; justify-content: center; align-items: center;"">
                     <img src=""images/semantic/semantic_series_7/semantic_series_7_d.png"" style=""width: 300px; height: 300px;"" />
                   </div>","null","7","2","D","",""
"","","","","","survey-likert","162","817274","0.0-122.0","C9298204F3014C94AE46CC6488F19F8F","0199d680-655c-7d0d-ada5-4c68c580de04","0199d675-8795-765b-adc2-c813de8cd3d1","","4359","","{""Q0"":3}","7","2","surprise_rating","","[0]"
"","","","","","survey-likert","163","819746","0.0-123.0","C9298204F3014C94AE46CC6488F19F8F","0199d680-655c-7d0d-ada5-4c68c580de04","0199d675-8795-765b-adc2-c813de8cd3d1","","2471","","{""Q0"":2}","7","2","enjoyment_rating","","[0]"
"","","","","","html-keyboard-response","164","825747","0.0-124.0","C9298204F3014C94AE46CC6488F19F8F","0199d680-655c-7d0d-ada5-4c68c580de04","0199d675-8795-765b-adc2-c813de8cd3d1","","null","<div style=""display: flex; justify-content: center; align-items: center;"">
                     <img src=""images/other/blank.png"" style=""width: 300px; height: 300px;"" />
                   </div>","null","0","0","blank","",""
"","","","","","survey-text","165","863952","0.0-125.0","C9298204F3014C94AE46CC6488F19F8F","0199d680-655c-7d0d-ada5-4c68c580de04","0199d675-8795-765b-adc2-c813de8cd3d1","","38178","","{""Q0"":""The red deck continues the story while the blue deck is just random scenario taking place at the same time. ""}","","","","",""
"","","","","","html-button-response","166","878770","0.0-126.0","C9298204F3014C94AE46CC6488F19F8F","0199d680-655c-7d0d-ada5-4c68c580de04","0199d675-8795-765b-adc2-c813de8cd3d1","","14816","Which color deck do the following sentences continue the story from?","1","","","","",""
"","","","","","html-button-response","167","880830","0.0-127.0","C9298204F3014C94AE46CC6488F19F8F","0199d680-655c-7d0d-ada5-4c68c580de04","0199d675-8795-765b-adc2-c813de8cd3d1","","2059","Which color deck do the following sentences NOT follow the story from?","0","","","","",""
"","","","","","html-button-response","168","888813","0.0-128.0","C9298204F3014C94AE46CC6488F19F8F","0199d680-655c-7d0d-ada5-4c68c580de04","0199d675-8795-765b-adc2-c813de8cd3d1","","7982","Which type of deck did you prefer overall?","1","","","","",""
"","","","","","survey-text","169","899026","0.0-129.0","C9298204F3014C94AE46CC6488F19F8F","0199d680-655c-7d0d-ada5-4c68c580de04","0199d675-8795-765b-adc2-c813de8cd3d1","","10208","","{""Q0"":""female"",""Q1"":""33""}","","","","",""
"","","","","","instructions","170","902532","0.0-130.0","C9298204F3014C94AE46CC6488F19F8F","0199d680-655c-7d0d-ada5-4c68c580de04","0199d675-8795-765b-adc2-c813de8cd3d1","[{""page_index"":0,""viewing_time"":3504}]","3504","","","","","","",""
