"success","timeout","failed_images","failed_audio","failed_video","trial_type","trial_index","time_elapsed","internal_node_id","subject_id","study_id","session_id","view_history","rt","stimulus","response","choice","question_order"
"true","false","[]","[]","[]","preload","0","1610","0.0-0.0","F519F323F6D74D3C85FB7C43D83F0358","0199d0a2-c036-71b8-a0e6-b8e4cc09138f","0199d096-ba1e-7664-9b18-6b0b7f11fd27","","","","","",""
"","","","","","instructions","1","94065","0.0-1.0","F519F323F6D74D3C85FB7C43D83F0358","0199d0a2-c036-71b8-a0e6-b8e4cc09138f","0199d096-ba1e-7664-9b18-6b0b7f11fd27","[{""page_index"":0,""viewing_time"":92455}]","92455","","","",""
"","","","","","instructions","2","113945","0.0-2.0","F519F323F6D74D3C85FB7C43D83F0358","0199d0a2-c036-71b8-a0e6-b8e4cc09138f","0199d096-ba1e-7664-9b18-6b0b7f11fd27","[{""page_index"":0,""viewing_time"":19879}]","19879","","","",""
"true","","","","","fullscreen","3","117659","0.0-3.0","F519F323F6D74D3C85FB7C43D83F0358","0199d0a2-c036-71b8-a0e6-b8e4cc09138f","0199d096-ba1e-7664-9b18-6b0b7f11fd27","","2711","","","",""
"","","","","","instructions","4","133064","0.0-4.0","F519F323F6D74D3C85FB7C43D83F0358","0199d0a2-c036-71b8-a0e6-b8e4cc09138f","0199d096-ba1e-7664-9b18-6b0b7f11fd27","[{""page_index"":0,""viewing_time"":15405}]","15405","","","",""
"","","","","","html-keyboard-response","5","140068","0.0-5.0","F519F323F6D74D3C85FB7C43D83F0358","0199d0a2-c036-71b8-a0e6-b8e4cc09138f","0199d096-ba1e-7664-9b18-6b0b7f11fd27","","null","<div style=""display: flex; justify-content: center; align-items: center;"">
                     <img src=""images/causal/causal_series_4/causal_series_4_a.png"" style=""width: 300px; height: 300px;"" />
                   </div>","null","",""
"","","","","","html-keyboard-response","6","147083","0.0-6.0","F519F323F6D74D3C85FB7C43D83F0358","0199d0a2-c036-71b8-a0e6-b8e4cc09138f","0199d096-ba1e-7664-9b18-6b0b7f11fd27","","null","<div style=""display: flex; justify-content: center; align-items: center;"">
                     <img src=""images/causal/causal_series_4/causal_series_4_b.png"" style=""width: 300px; height: 300px;"" />
                   </div>","null","",""
"","","","","","html-keyboard-response","7","154092","0.0-7.0","F519F323F6D74D3C85FB7C43D83F0358","0199d0a2-c036-71b8-a0e6-b8e4cc09138f","0199d096-ba1e-7664-9b18-6b0b7f11fd27","","null","<div style=""display: flex; justify-content: center; align-items: center;"">
                     <img src=""images/causal/causal_series_4/causal_series_4_c.png"" style=""width: 300px; height: 300px;"" />
                   </div>","null","",""
"","","","","","html-button-response","8","155824","0.0-8.0","F519F323F6D74D3C85FB7C43D83F0358","0199d0a2-c036-71b8-a0e6-b8e4cc09138f","0199d096-ba1e-7664-9b18-6b0b7f11fd27","","1732","
        <div style=""display: flex; justify-content: center; align-items: center;"">
          <img src=""images/red_deck_2.png"" style=""width: 300px; height: 300px; margin-right: 10px;"" />
          <img src=""images/blue_deck_1.png"" style=""width: 300px; height: 300px;"" />
        </div>","0","0",""
"","","","","","html-keyboard-response","9","162834","0.0-9.0-0.0-0.0","F519F323F6D74D3C85FB7C43D83F0358","0199d0a2-c036-71b8-a0e6-b8e4cc09138f","0199d096-ba1e-7664-9b18-6b0b7f11fd27","","null","<div style=""display: flex; justify-content: center; align-items: center;"">
                     <img src=""images/causal/causal_series_4/causal_series_4_d.png"" style=""width: 300px; height: 300px;"" />
                   </div>","null","",""
"","","","","","survey-likert","10","169705","0.0-10.0","F519F323F6D74D3C85FB7C43D83F0358","0199d0a2-c036-71b8-a0e6-b8e4cc09138f","0199d096-ba1e-7664-9b18-6b0b7f11fd27","","6870","","{""Q0"":3}","","[0]"
"","","","","","survey-likert","11","173335","0.0-11.0","F519F323F6D74D3C85FB7C43D83F0358","0199d0a2-c036-71b8-a0e6-b8e4cc09138f","0199d096-ba1e-7664-9b18-6b0b7f11fd27","","3630","","{""Q0"":2}","","[0]"
"","","","","","html-keyboard-response","12","180336","0.0-12.0","F519F323F6D74D3C85FB7C43D83F0358","0199d0a2-c036-71b8-a0e6-b8e4cc09138f","0199d096-ba1e-7664-9b18-6b0b7f11fd27","","null","<div style=""display: flex; justify-content: center; align-items: center;"">
                     <img src=""images/other/blank.png"" style=""width: 300px; height: 300px;"" />
                   </div>","null","",""
"","","","","","html-keyboard-response","13","187348","0.0-13.0","F519F323F6D74D3C85FB7C43D83F0358","0199d0a2-c036-71b8-a0e6-b8e4cc09138f","0199d096-ba1e-7664-9b18-6b0b7f11fd27","","null","<div style=""display: flex; justify-content: center; align-items: center;"">
                     <img src=""images/causal/causal_series_7/causal_series_7_a.png"" style=""width: 300px; height: 300px;"" />
                   </div>","null","",""
"","","","","","html-keyboard-response","14","194363","0.0-14.0","F519F323F6D74D3C85FB7C43D83F0358","0199d0a2-c036-71b8-a0e6-b8e4cc09138f","0199d096-ba1e-7664-9b18-6b0b7f11fd27","","null","<div style=""display: flex; justify-content: center; align-items: center;"">
                     <img src=""images/causal/causal_series_7/causal_series_7_b.png"" style=""width: 300px; height: 300px;"" />
                   </div>","null","",""
"","","","","","html-keyboard-response","15","201378","0.0-15.0","F519F323F6D74D3C85FB7C43D83F0358","0199d0a2-c036-71b8-a0e6-b8e4cc09138f","0199d096-ba1e-7664-9b18-6b0b7f11fd27","","null","<div style=""display: flex; justify-content: center; align-items: center;"">
                     <img src=""images/causal/causal_series_7/causal_series_7_c.png"" style=""width: 300px; height: 300px;"" />
                   </div>","null","",""
"","","","","","html-button-response","16","214535","0.0-16.0","F519F323F6D74D3C85FB7C43D83F0358","0199d0a2-c036-71b8-a0e6-b8e4cc09138f","0199d096-ba1e-7664-9b18-6b0b7f11fd27","","13156","
        <div style=""display: flex; justify-content: center; align-items: center;"">
          <img src=""images/red_deck_2.png"" style=""width: 300px; height: 300px; margin-right: 10px;"" />
          <img src=""images/blue_deck_1.png"" style=""width: 300px; height: 300px;"" />
        </div>","0","0",""
"","","","","","html-keyboard-response","17","221536","0.0-17.0-0.0-0.0","F519F323F6D74D3C85FB7C43D83F0358","0199d0a2-c036-71b8-a0e6-b8e4cc09138f","0199d096-ba1e-7664-9b18-6b0b7f11fd27","","null","<div style=""display: flex; justify-content: center; align-items: center;"">
                     <img src=""images/causal/causal_series_7/causal_series_7_d.png"" style=""width: 300px; height: 300px;"" />
                   </div>","null","",""
"","","","","","survey-likert","18","224767","0.0-18.0","F519F323F6D74D3C85FB7C43D83F0358","0199d0a2-c036-71b8-a0e6-b8e4cc09138f","0199d096-ba1e-7664-9b18-6b0b7f11fd27","","3230","","{""Q0"":4}","","[0]"
"","","","","","survey-likert","19","228735","0.0-19.0","F519F323F6D74D3C85FB7C43D83F0358","0199d0a2-c036-71b8-a0e6-b8e4cc09138f","0199d096-ba1e-7664-9b18-6b0b7f11fd27","","3967","","{""Q0"":2}","","[0]"
"","","","","","html-keyboard-response","20","235740","0.0-20.0","F519F323F6D74D3C85FB7C43D83F0358","0199d0a2-c036-71b8-a0e6-b8e4cc09138f","0199d096-ba1e-7664-9b18-6b0b7f11fd27","","null","<div style=""display: flex; justify-content: center; align-items: center;"">
                     <img src=""images/other/blank.png"" style=""width: 300px; height: 300px;"" />
                   </div>","null","",""
"","","","","","html-keyboard-response","21","242749","0.0-21.0","F519F323F6D74D3C85FB7C43D83F0358","0199d0a2-c036-71b8-a0e6-b8e4cc09138f","0199d096-ba1e-7664-9b18-6b0b7f11fd27","","null","<div style=""display: flex; justify-content: center; align-items: center;"">
                     <img src=""images/causal/causal_series_3/causal_series_3_a.png"" style=""width: 300px; height: 300px;"" />
                   </div>","null","",""
"","","","","","html-keyboard-response","22","249765","0.0-22.0","F519F323F6D74D3C85FB7C43D83F0358","0199d0a2-c036-71b8-a0e6-b8e4cc09138f","0199d096-ba1e-7664-9b18-6b0b7f11fd27","","null","<div style=""display: flex; justify-content: center; align-items: center;"">
                     <img src=""images/causal/causal_series_3/causal_series_3_b.png"" style=""width: 300px; height: 300px;"" />
                   </div>","null","",""
"","","","","","html-keyboard-response","23","256775","0.0-23.0","F519F323F6D74D3C85FB7C43D83F0358","0199d0a2-c036-71b8-a0e6-b8e4cc09138f","0199d096-ba1e-7664-9b18-6b0b7f11fd27","","null","<div style=""display: flex; justify-content: center; align-items: center;"">
                     <img src=""images/causal/causal_series_3/causal_series_3_c.png"" style=""width: 300px; height: 300px;"" />
                   </div>","null","",""
"","","","","","html-button-response","24","259102","0.0-24.0","F519F323F6D74D3C85FB7C43D83F0358","0199d0a2-c036-71b8-a0e6-b8e4cc09138f","0199d096-ba1e-7664-9b18-6b0b7f11fd27","","2326","
        <div style=""display: flex; justify-content: center; align-items: center;"">
          <img src=""images/red_deck_2.png"" style=""width: 300px; height: 300px; margin-right: 10px;"" />
          <img src=""images/blue_deck_1.png"" style=""width: 300px; height: 300px;"" />
        </div>","0","0",""
"","","","","","html-keyboard-response","25","266110","0.0-25.0-0.0-0.0","F519F323F6D74D3C85FB7C43D83F0358","0199d0a2-c036-71b8-a0e6-b8e4cc09138f","0199d096-ba1e-7664-9b18-6b0b7f11fd27","","null","<div style=""display: flex; justify-content: center; align-items: center;"">
                     <img src=""images/causal/causal_series_3/causal_series_3_d.png"" style=""width: 300px; height: 300px;"" />
                   </div>","null","",""
"","","","","","survey-likert","26","268718","0.0-26.0","F519F323F6D74D3C85FB7C43D83F0358","0199d0a2-c036-71b8-a0e6-b8e4cc09138f","0199d096-ba1e-7664-9b18-6b0b7f11fd27","","2607","","{""Q0"":4}","","[0]"
"","","","","","survey-likert","27","272270","0.0-27.0","F519F323F6D74D3C85FB7C43D83F0358","0199d0a2-c036-71b8-a0e6-b8e4cc09138f","0199d096-ba1e-7664-9b18-6b0b7f11fd27","","3551","","{""Q0"":2}","","[0]"
"","","","","","html-keyboard-response","28","279285","0.0-28.0","F519F323F6D74D3C85FB7C43D83F0358","0199d0a2-c036-71b8-a0e6-b8e4cc09138f","0199d096-ba1e-7664-9b18-6b0b7f11fd27","","null","<div style=""display: flex; justify-content: center; align-items: center;"">
                     <img src=""images/other/blank.png"" style=""width: 300px; height: 300px;"" />
                   </div>","null","",""
"","","","","","html-keyboard-response","29","286300","0.0-29.0","F519F323F6D74D3C85FB7C43D83F0358","0199d0a2-c036-71b8-a0e6-b8e4cc09138f","0199d096-ba1e-7664-9b18-6b0b7f11fd27","","null","<div style=""display: flex; justify-content: center; align-items: center;"">
                     <img src=""images/causal/causal_series_2/causal_series_2_a.png"" style=""width: 300px; height: 300px;"" />
                   </div>","null","",""
"","","","","","html-keyboard-response","30","293317","0.0-30.0","F519F323F6D74D3C85FB7C43D83F0358","0199d0a2-c036-71b8-a0e6-b8e4cc09138f","0199d096-ba1e-7664-9b18-6b0b7f11fd27","","null","<div style=""display: flex; justify-content: center; align-items: center;"">
                     <img src=""images/causal/causal_series_2/causal_series_2_b.png"" style=""width: 300px; height: 300px;"" />
                   </div>","null","",""
"","","","","","html-keyboard-response","31","300321","0.0-31.0","F519F323F6D74D3C85FB7C43D83F0358","0199d0a2-c036-71b8-a0e6-b8e4cc09138f","0199d096-ba1e-7664-9b18-6b0b7f11fd27","","null","<div style=""display: flex; justify-content: center; align-items: center;"">
                     <img src=""images/causal/causal_series_2/causal_series_2_c.png"" style=""width: 300px; height: 300px;"" />
                   </div>","null","",""
"","","","","","html-button-response","32","320197","0.0-32.0","F519F323F6D74D3C85FB7C43D83F0358","0199d0a2-c036-71b8-a0e6-b8e4cc09138f","0199d096-ba1e-7664-9b18-6b0b7f11fd27","","19875","
        <div style=""display: flex; justify-content: center; align-items: center;"">
          <img src=""images/red_deck_2.png"" style=""width: 300px; height: 300px; margin-right: 10px;"" />
          <img src=""images/blue_deck_1.png"" style=""width: 300px; height: 300px;"" />
        </div>","0","0",""
"","","","","","html-keyboard-response","33","327197","0.0-33.0-0.0-0.0","F519F323F6D74D3C85FB7C43D83F0358","0199d0a2-c036-71b8-a0e6-b8e4cc09138f","0199d096-ba1e-7664-9b18-6b0b7f11fd27","","null","<div style=""display: flex; justify-content: center; align-items: center;"">
                     <img src=""images/causal/causal_series_2/causal_series_2_d.png"" style=""width: 300px; height: 300px;"" />
                   </div>","null","",""
"","","","","","survey-likert","34","330381","0.0-34.0","F519F323F6D74D3C85FB7C43D83F0358","0199d0a2-c036-71b8-a0e6-b8e4cc09138f","0199d096-ba1e-7664-9b18-6b0b7f11fd27","","3183","","{""Q0"":3}","","[0]"
"","","","","","survey-likert","35","332788","0.0-35.0","F519F323F6D74D3C85FB7C43D83F0358","0199d0a2-c036-71b8-a0e6-b8e4cc09138f","0199d096-ba1e-7664-9b18-6b0b7f11fd27","","2407","","{""Q0"":2}","","[0]"
"","","","","","html-keyboard-response","36","339793","0.0-36.0","F519F323F6D74D3C85FB7C43D83F0358","0199d0a2-c036-71b8-a0e6-b8e4cc09138f","0199d096-ba1e-7664-9b18-6b0b7f11fd27","","null","<div style=""display: flex; justify-content: center; align-items: center;"">
                     <img src=""images/other/blank.png"" style=""width: 300px; height: 300px;"" />
                   </div>","null","",""
"","","","","","html-keyboard-response","37","346797","0.0-37.0","F519F323F6D74D3C85FB7C43D83F0358","0199d0a2-c036-71b8-a0e6-b8e4cc09138f","0199d096-ba1e-7664-9b18-6b0b7f11fd27","","null","<div style=""display: flex; justify-content: center; align-items: center;"">
                     <img src=""images/causal/causal_series_9/causal_series_9_a.png"" style=""width: 300px; height: 300px;"" />
                   </div>","null","",""
"","","","","","html-keyboard-response","38","353803","0.0-38.0","F519F323F6D74D3C85FB7C43D83F0358","0199d0a2-c036-71b8-a0e6-b8e4cc09138f","0199d096-ba1e-7664-9b18-6b0b7f11fd27","","null","<div style=""display: flex; justify-content: center; align-items: center;"">
                     <img src=""images/causal/causal_series_9/causal_series_9_b.png"" style=""width: 300px; height: 300px;"" />
                   </div>","null","",""
"","","","","","html-keyboard-response","39","360819","0.0-39.0","F519F323F6D74D3C85FB7C43D83F0358","0199d0a2-c036-71b8-a0e6-b8e4cc09138f","0199d096-ba1e-7664-9b18-6b0b7f11fd27","","null","<div style=""display: flex; justify-content: center; align-items: center;"">
                     <img src=""images/causal/causal_series_9/causal_series_9_c.png"" style=""width: 300px; height: 300px;"" />
                   </div>","null","",""
"","","","","","html-button-response","40","362212","0.0-40.0","F519F323F6D74D3C85FB7C43D83F0358","0199d0a2-c036-71b8-a0e6-b8e4cc09138f","0199d096-ba1e-7664-9b18-6b0b7f11fd27","","1393","
        <div style=""display: flex; justify-content: center; align-items: center;"">
          <img src=""images/red_deck_2.png"" style=""width: 300px; height: 300px; margin-right: 10px;"" />
          <img src=""images/blue_deck_1.png"" style=""width: 300px; height: 300px;"" />
        </div>","0","0",""
"","","","","","html-keyboard-response","41","369215","0.0-41.0-0.0-0.0","F519F323F6D74D3C85FB7C43D83F0358","0199d0a2-c036-71b8-a0e6-b8e4cc09138f","0199d096-ba1e-7664-9b18-6b0b7f11fd27","","null","<div style=""display: flex; justify-content: center; align-items: center;"">
                     <img src=""images/causal/causal_series_9/causal_series_9_d.png"" style=""width: 300px; height: 300px;"" />
                   </div>","null","",""
"","","","","","survey-likert","42","371764","0.0-42.0","F519F323F6D74D3C85FB7C43D83F0358","0199d0a2-c036-71b8-a0e6-b8e4cc09138f","0199d096-ba1e-7664-9b18-6b0b7f11fd27","","2548","","{""Q0"":4}","","[0]"
"","","","","","survey-likert","43","374676","0.0-43.0","F519F323F6D74D3C85FB7C43D83F0358","0199d0a2-c036-71b8-a0e6-b8e4cc09138f","0199d096-ba1e-7664-9b18-6b0b7f11fd27","","2911","","{""Q0"":2}","","[0]"
"","","","","","html-keyboard-response","44","381681","0.0-44.0","F519F323F6D74D3C85FB7C43D83F0358","0199d0a2-c036-71b8-a0e6-b8e4cc09138f","0199d096-ba1e-7664-9b18-6b0b7f11fd27","","null","<div style=""display: flex; justify-content: center; align-items: center;"">
                     <img src=""images/other/blank.png"" style=""width: 300px; height: 300px;"" />
                   </div>","null","",""
"","","","","","html-keyboard-response","45","388683","0.0-45.0","F519F323F6D74D3C85FB7C43D83F0358","0199d0a2-c036-71b8-a0e6-b8e4cc09138f","0199d096-ba1e-7664-9b18-6b0b7f11fd27","","null","<div style=""display: flex; justify-content: center; align-items: center;"">
                     <img src=""images/causal/causal_series_8/causal_series_8_a.png"" style=""width: 300px; height: 300px;"" />
                   </div>","null","",""
"","","","","","html-keyboard-response","46","395686","0.0-46.0","F519F323F6D74D3C85FB7C43D83F0358","0199d0a2-c036-71b8-a0e6-b8e4cc09138f","0199d096-ba1e-7664-9b18-6b0b7f11fd27","","null","<div style=""display: flex; justify-content: center; align-items: center;"">
                     <img src=""images/causal/causal_series_8/causal_series_8_b.png"" style=""width: 300px; height: 300px;"" />
                   </div>","null","",""
"","","","","","html-keyboard-response","47","402690","0.0-47.0","F519F323F6D74D3C85FB7C43D83F0358","0199d0a2-c036-71b8-a0e6-b8e4cc09138f","0199d096-ba1e-7664-9b18-6b0b7f11fd27","","null","<div style=""display: flex; justify-content: center; align-items: center;"">
                     <img src=""images/causal/causal_series_8/causal_series_8_c.png"" style=""width: 300px; height: 300px;"" />
                   </div>","null","",""
"","","","","","html-button-response","48","403811","0.0-48.0","F519F323F6D74D3C85FB7C43D83F0358","0199d0a2-c036-71b8-a0e6-b8e4cc09138f","0199d096-ba1e-7664-9b18-6b0b7f11fd27","","1120","
        <div style=""display: flex; justify-content: center; align-items: center;"">
          <img src=""images/red_deck_2.png"" style=""width: 300px; height: 300px; margin-right: 10px;"" />
          <img src=""images/blue_deck_1.png"" style=""width: 300px; height: 300px;"" />
        </div>","0","0",""
"","","","","","html-keyboard-response","49","410818","0.0-49.0-0.0-0.0","F519F323F6D74D3C85FB7C43D83F0358","0199d0a2-c036-71b8-a0e6-b8e4cc09138f","0199d096-ba1e-7664-9b18-6b0b7f11fd27","","null","<div style=""display: flex; justify-content: center; align-items: center;"">
                     <img src=""images/causal/causal_series_8/causal_series_8_d.png"" style=""width: 300px; height: 300px;"" />
                   </div>","null","",""
"","","","","","survey-likert","50","412731","0.0-50.0","F519F323F6D74D3C85FB7C43D83F0358","0199d0a2-c036-71b8-a0e6-b8e4cc09138f","0199d096-ba1e-7664-9b18-6b0b7f11fd27","","1913","","{""Q0"":3}","","[0]"
"","","","","","survey-likert","51","414668","0.0-51.0","F519F323F6D74D3C85FB7C43D83F0358","0199d0a2-c036-71b8-a0e6-b8e4cc09138f","0199d096-ba1e-7664-9b18-6b0b7f11fd27","","1936","","{""Q0"":2}","","[0]"
"","","","","","html-keyboard-response","52","421670","0.0-52.0","F519F323F6D74D3C85FB7C43D83F0358","0199d0a2-c036-71b8-a0e6-b8e4cc09138f","0199d096-ba1e-7664-9b18-6b0b7f11fd27","","null","<div style=""display: flex; justify-content: center; align-items: center;"">
                     <img src=""images/other/blank.png"" style=""width: 300px; height: 300px;"" />
                   </div>","null","",""
"","","","","","html-keyboard-response","53","428675","0.0-53.0","F519F323F6D74D3C85FB7C43D83F0358","0199d0a2-c036-71b8-a0e6-b8e4cc09138f","0199d096-ba1e-7664-9b18-6b0b7f11fd27","","null","<div style=""display: flex; justify-content: center; align-items: center;"">
                     <img src=""images/causal/causal_series_5/causal_series_5_a.png"" style=""width: 300px; height: 300px;"" />
                   </div>","null","",""
"","","","","","html-keyboard-response","54","435690","0.0-54.0","F519F323F6D74D3C85FB7C43D83F0358","0199d0a2-c036-71b8-a0e6-b8e4cc09138f","0199d096-ba1e-7664-9b18-6b0b7f11fd27","","null","<div style=""display: flex; justify-content: center; align-items: center;"">
                     <img src=""images/causal/causal_series_5/causal_series_5_b.png"" style=""width: 300px; height: 300px;"" />
                   </div>","null","",""
"","","","","","html-keyboard-response","55","442694","0.0-55.0","F519F323F6D74D3C85FB7C43D83F0358","0199d0a2-c036-71b8-a0e6-b8e4cc09138f","0199d096-ba1e-7664-9b18-6b0b7f11fd27","","null","<div style=""display: flex; justify-content: center; align-items: center;"">
                     <img src=""images/causal/causal_series_5/causal_series_5_c.png"" style=""width: 300px; height: 300px;"" />
                   </div>","null","",""
"","","","","","html-button-response","56","444010","0.0-56.0","F519F323F6D74D3C85FB7C43D83F0358","0199d0a2-c036-71b8-a0e6-b8e4cc09138f","0199d096-ba1e-7664-9b18-6b0b7f11fd27","","1316","
        <div style=""display: flex; justify-content: center; align-items: center;"">
          <img src=""images/red_deck_2.png"" style=""width: 300px; height: 300px; margin-right: 10px;"" />
          <img src=""images/blue_deck_1.png"" style=""width: 300px; height: 300px;"" />
        </div>","0","0",""
"","","","","","html-keyboard-response","57","451013","0.0-57.0-0.0-0.0","F519F323F6D74D3C85FB7C43D83F0358","0199d0a2-c036-71b8-a0e6-b8e4cc09138f","0199d096-ba1e-7664-9b18-6b0b7f11fd27","","null","<div style=""display: flex; justify-content: center; align-items: center;"">
                     <img src=""images/causal/causal_series_5/causal_series_5_d.png"" style=""width: 300px; height: 300px;"" />
                   </div>","null","",""
"","","","","","survey-likert","58","453050","0.0-58.0","F519F323F6D74D3C85FB7C43D83F0358","0199d0a2-c036-71b8-a0e6-b8e4cc09138f","0199d096-ba1e-7664-9b18-6b0b7f11fd27","","2037","","{""Q0"":4}","","[0]"
"","","","","","survey-likert","59","455050","0.0-59.0","F519F323F6D74D3C85FB7C43D83F0358","0199d0a2-c036-71b8-a0e6-b8e4cc09138f","0199d096-ba1e-7664-9b18-6b0b7f11fd27","","1999","","{""Q0"":2}","","[0]"
"","","","","","html-keyboard-response","60","462066","0.0-60.0","F519F323F6D74D3C85FB7C43D83F0358","0199d0a2-c036-71b8-a0e6-b8e4cc09138f","0199d096-ba1e-7664-9b18-6b0b7f11fd27","","null","<div style=""display: flex; justify-content: center; align-items: center;"">
                     <img src=""images/other/blank.png"" style=""width: 300px; height: 300px;"" />
                   </div>","null","",""
"","","","","","html-keyboard-response","61","469082","0.0-61.0","F519F323F6D74D3C85FB7C43D83F0358","0199d0a2-c036-71b8-a0e6-b8e4cc09138f","0199d096-ba1e-7664-9b18-6b0b7f11fd27","","null","<div style=""display: flex; justify-content: center; align-items: center;"">
                     <img src=""images/causal/causal_series_6/causal_series_6_a.png"" style=""width: 300px; height: 300px;"" />
                   </div>","null","",""
"","","","","","html-keyboard-response","62","476097","0.0-62.0","F519F323F6D74D3C85FB7C43D83F0358","0199d0a2-c036-71b8-a0e6-b8e4cc09138f","0199d096-ba1e-7664-9b18-6b0b7f11fd27","","null","<div style=""display: flex; justify-content: center; align-items: center;"">
                     <img src=""images/causal/causal_series_6/causal_series_6_b.png"" style=""width: 300px; height: 300px;"" />
                   </div>","null","",""
"","","","","","html-keyboard-response","63","483107","0.0-63.0","F519F323F6D74D3C85FB7C43D83F0358","0199d0a2-c036-71b8-a0e6-b8e4cc09138f","0199d096-ba1e-7664-9b18-6b0b7f11fd27","","null","<div style=""display: flex; justify-content: center; align-items: center;"">
                     <img src=""images/causal/causal_series_6/causal_series_6_c.png"" style=""width: 300px; height: 300px;"" />
                   </div>","null","",""
"","","","","","html-button-response","64","486401","0.0-64.0","F519F323F6D74D3C85FB7C43D83F0358","0199d0a2-c036-71b8-a0e6-b8e4cc09138f","0199d096-ba1e-7664-9b18-6b0b7f11fd27","","3294","
        <div style=""display: flex; justify-content: center; align-items: center;"">
          <img src=""images/red_deck_2.png"" style=""width: 300px; height: 300px; margin-right: 10px;"" />
          <img src=""images/blue_deck_1.png"" style=""width: 300px; height: 300px;"" />
        </div>","0","0",""
"","","","","","html-keyboard-response","65","493406","0.0-65.0-0.0-0.0","F519F323F6D74D3C85FB7C43D83F0358","0199d0a2-c036-71b8-a0e6-b8e4cc09138f","0199d096-ba1e-7664-9b18-6b0b7f11fd27","","null","<div style=""display: flex; justify-content: center; align-items: center;"">
                     <img src=""images/causal/causal_series_6/causal_series_6_d.png"" style=""width: 300px; height: 300px;"" />
                   </div>","null","",""
"","","","","","survey-likert","66","496233","0.0-66.0","F519F323F6D74D3C85FB7C43D83F0358","0199d0a2-c036-71b8-a0e6-b8e4cc09138f","0199d096-ba1e-7664-9b18-6b0b7f11fd27","","2827","","{""Q0"":0}","","[0]"
"","","","","","survey-likert","67","498321","0.0-67.0","F519F323F6D74D3C85FB7C43D83F0358","0199d0a2-c036-71b8-a0e6-b8e4cc09138f","0199d096-ba1e-7664-9b18-6b0b7f11fd27","","2087","","{""Q0"":2}","","[0]"
"","","","","","html-keyboard-response","68","505335","0.0-68.0","F519F323F6D74D3C85FB7C43D83F0358","0199d0a2-c036-71b8-a0e6-b8e4cc09138f","0199d096-ba1e-7664-9b18-6b0b7f11fd27","","null","<div style=""display: flex; justify-content: center; align-items: center;"">
                     <img src=""images/other/blank.png"" style=""width: 300px; height: 300px;"" />
                   </div>","null","",""
"","","","","","html-keyboard-response","69","512336","0.0-69.0","F519F323F6D74D3C85FB7C43D83F0358","0199d0a2-c036-71b8-a0e6-b8e4cc09138f","0199d096-ba1e-7664-9b18-6b0b7f11fd27","","null","<div style=""display: flex; justify-content: center; align-items: center;"">
                     <img src=""images/causal/causal_series_1/causal_series_1_a.png"" style=""width: 300px; height: 300px;"" />
                   </div>","null","",""
"","","","","","html-keyboard-response","70","519338","0.0-70.0","F519F323F6D74D3C85FB7C43D83F0358","0199d0a2-c036-71b8-a0e6-b8e4cc09138f","0199d096-ba1e-7664-9b18-6b0b7f11fd27","","null","<div style=""display: flex; justify-content: center; align-items: center;"">
                     <img src=""images/causal/causal_series_1/causal_series_1_b.png"" style=""width: 300px; height: 300px;"" />
                   </div>","null","",""
"","","","","","html-keyboard-response","71","526352","0.0-71.0","F519F323F6D74D3C85FB7C43D83F0358","0199d0a2-c036-71b8-a0e6-b8e4cc09138f","0199d096-ba1e-7664-9b18-6b0b7f11fd27","","null","<div style=""display: flex; justify-content: center; align-items: center;"">
                     <img src=""images/causal/causal_series_1/causal_series_1_c.png"" style=""width: 300px; height: 300px;"" />
                   </div>","null","",""
"","","","","","html-button-response","72","528761","0.0-72.0","F519F323F6D74D3C85FB7C43D83F0358","0199d0a2-c036-71b8-a0e6-b8e4cc09138f","0199d096-ba1e-7664-9b18-6b0b7f11fd27","","2408","
        <div style=""display: flex; justify-content: center; align-items: center;"">
          <img src=""images/red_deck_2.png"" style=""width: 300px; height: 300px; margin-right: 10px;"" />
          <img src=""images/blue_deck_1.png"" style=""width: 300px; height: 300px;"" />
        </div>","0","0",""
"","","","","","html-keyboard-response","73","535766","0.0-73.0-0.0-0.0","F519F323F6D74D3C85FB7C43D83F0358","0199d0a2-c036-71b8-a0e6-b8e4cc09138f","0199d096-ba1e-7664-9b18-6b0b7f11fd27","","null","<div style=""display: flex; justify-content: center; align-items: center;"">
                     <img src=""images/causal/causal_series_1/causal_series_1_d.png"" style=""width: 300px; height: 300px;"" />
                   </div>","null","",""
"","","","","","survey-likert","74","537609","0.0-74.0","F519F323F6D74D3C85FB7C43D83F0358","0199d0a2-c036-71b8-a0e6-b8e4cc09138f","0199d096-ba1e-7664-9b18-6b0b7f11fd27","","1842","","{""Q0"":3}","","[0]"
"","","","","","survey-likert","75","539088","0.0-75.0","F519F323F6D74D3C85FB7C43D83F0358","0199d0a2-c036-71b8-a0e6-b8e4cc09138f","0199d096-ba1e-7664-9b18-6b0b7f11fd27","","1479","","{""Q0"":2}","","[0]"
"","","","","","html-keyboard-response","76","546090","0.0-76.0","F519F323F6D74D3C85FB7C43D83F0358","0199d0a2-c036-71b8-a0e6-b8e4cc09138f","0199d096-ba1e-7664-9b18-6b0b7f11fd27","","null","<div style=""display: flex; justify-content: center; align-items: center;"">
                     <img src=""images/other/blank.png"" style=""width: 300px; height: 300px;"" />
                   </div>","null","",""
"","","","","","html-keyboard-response","77","553102","0.0-77.0","F519F323F6D74D3C85FB7C43D83F0358","0199d0a2-c036-71b8-a0e6-b8e4cc09138f","0199d096-ba1e-7664-9b18-6b0b7f11fd27","","null","<div style=""display: flex; justify-content: center; align-items: center;"">
                     <img src=""images/causal/causal_series_10/causal_series_10_a.png"" style=""width: 300px; height: 300px;"" />
                   </div>","null","",""
"","","","","","html-keyboard-response","78","560103","0.0-78.0","F519F323F6D74D3C85FB7C43D83F0358","0199d0a2-c036-71b8-a0e6-b8e4cc09138f","0199d096-ba1e-7664-9b18-6b0b7f11fd27","","null","<div style=""display: flex; justify-content: center; align-items: center;"">
                     <img src=""images/causal/causal_series_10/causal_series_10_b.png"" style=""width: 300px; height: 300px;"" />
                   </div>","null","",""
"","","","","","html-keyboard-response","79","567105","0.0-79.0","F519F323F6D74D3C85FB7C43D83F0358","0199d0a2-c036-71b8-a0e6-b8e4cc09138f","0199d096-ba1e-7664-9b18-6b0b7f11fd27","","null","<div style=""display: flex; justify-content: center; align-items: center;"">
                     <img src=""images/causal/causal_series_10/causal_series_10_c.png"" style=""width: 300px; height: 300px;"" />
                   </div>","null","",""
"","","","","","html-button-response","80","569040","0.0-80.0","F519F323F6D74D3C85FB7C43D83F0358","0199d0a2-c036-71b8-a0e6-b8e4cc09138f","0199d096-ba1e-7664-9b18-6b0b7f11fd27","","1935","
        <div style=""display: flex; justify-content: center; align-items: center;"">
          <img src=""images/red_deck_2.png"" style=""width: 300px; height: 300px; margin-right: 10px;"" />
          <img src=""images/blue_deck_1.png"" style=""width: 300px; height: 300px;"" />
        </div>","0","0",""
"","","","","","html-keyboard-response","81","576051","0.0-81.0-0.0-0.0","F519F323F6D74D3C85FB7C43D83F0358","0199d0a2-c036-71b8-a0e6-b8e4cc09138f","0199d096-ba1e-7664-9b18-6b0b7f11fd27","","null","<div style=""display: flex; justify-content: center; align-items: center;"">
                     <img src=""images/causal/causal_series_10/causal_series_10_d.png"" style=""width: 300px; height: 300px;"" />
                   </div>","null","",""
"","","","","","survey-likert","82","587440","0.0-82.0","F519F323F6D74D3C85FB7C43D83F0358","0199d0a2-c036-71b8-a0e6-b8e4cc09138f","0199d096-ba1e-7664-9b18-6b0b7f11fd27","","11388","","{""Q0"":2}","","[0]"
"","","","","","survey-likert","83","590055","0.0-83.0","F519F323F6D74D3C85FB7C43D83F0358","0199d0a2-c036-71b8-a0e6-b8e4cc09138f","0199d096-ba1e-7664-9b18-6b0b7f11fd27","","2615","","{""Q0"":2}","","[0]"
"","","","","","html-keyboard-response","84","597061","0.0-84.0","F519F323F6D74D3C85FB7C43D83F0358","0199d0a2-c036-71b8-a0e6-b8e4cc09138f","0199d096-ba1e-7664-9b18-6b0b7f11fd27","","null","<div style=""display: flex; justify-content: center; align-items: center;"">
                     <img src=""images/other/blank.png"" style=""width: 300px; height: 300px;"" />
                   </div>","null","",""
"","","","","","survey-text","85","630367","0.0-85.0","F519F323F6D74D3C85FB7C43D83F0358","0199d0a2-c036-71b8-a0e6-b8e4cc09138f","0199d096-ba1e-7664-9b18-6b0b7f11fd27","","33305","","{""Q0"":""One is red the other is blue.""}","",""
"","","","","","html-button-response","86","640542","0.0-86.0","F519F323F6D74D3C85FB7C43D83F0358","0199d0a2-c036-71b8-a0e6-b8e4cc09138f","0199d096-ba1e-7664-9b18-6b0b7f11fd27","","10175","Which color deck do the following images continue the story from?","1","",""
"","","","","","html-button-response","87","647350","0.0-87.0","F519F323F6D74D3C85FB7C43D83F0358","0199d0a2-c036-71b8-a0e6-b8e4cc09138f","0199d096-ba1e-7664-9b18-6b0b7f11fd27","","6807","Which color deck do the following images NOT follow the story from?","0","",""
"","","","","","html-button-response","88","654702","0.0-88.0","F519F323F6D74D3C85FB7C43D83F0358","0199d0a2-c036-71b8-a0e6-b8e4cc09138f","0199d096-ba1e-7664-9b18-6b0b7f11fd27","","7352","Which type of deck did you prefer overall?","0","",""
"","","","","","survey-text","89","661078","0.0-89.0","F519F323F6D74D3C85FB7C43D83F0358","0199d0a2-c036-71b8-a0e6-b8e4cc09138f","0199d096-ba1e-7664-9b18-6b0b7f11fd27","","6374","","{""Q0"":""male"",""Q1"":""21""}","",""
"","","","","","instructions","90","668190","0.0-90.0","F519F323F6D74D3C85FB7C43D83F0358","0199d0a2-c036-71b8-a0e6-b8e4cc09138f","0199d096-ba1e-7664-9b18-6b0b7f11fd27","[{""page_index"":0,""viewing_time"":7111}]","7111","","","",""
