"success","timeout","failed_images","failed_audio","failed_video","trial_type","trial_index","time_elapsed","internal_node_id","subject_id","study_id","session_id","view_history","rt","stimulus","response","choice"
"true","false","[]","[]","[]","preload","0","1479","0.0-0.0","A313F7F1F81B414BB97BDF6462656DF0","faa87f88-7815-4bfb-a361-511f8afff2cb","23db58b9-63b0-4bce-8714-07ce439e665e","","","","",""
"","","","","","instructions","1","6081","0.0-1.0","A313F7F1F81B414BB97BDF6462656DF0","faa87f88-7815-4bfb-a361-511f8afff2cb","23db58b9-63b0-4bce-8714-07ce439e665e","[{""page_index"":0,""viewing_time"":4602}]","4602","","",""
"","","","","","instructions","2","9014","0.0-2.0","A313F7F1F81B414BB97BDF6462656DF0","faa87f88-7815-4bfb-a361-511f8afff2cb","23db58b9-63b0-4bce-8714-07ce439e665e","[{""page_index"":0,""viewing_time"":2932}]","2933","","",""
"true","","","","","fullscreen","3","11715","0.0-3.0","A313F7F1F81B414BB97BDF6462656DF0","faa87f88-7815-4bfb-a361-511f8afff2cb","23db58b9-63b0-4bce-8714-07ce439e665e","","1698","","",""
"","","","","","instructions","4","18448","0.0-4.0","A313F7F1F81B414BB97BDF6462656DF0","faa87f88-7815-4bfb-a361-511f8afff2cb","23db58b9-63b0-4bce-8714-07ce439e665e","[{""page_index"":0,""viewing_time"":6732}]","6732","","",""
"","","","","","html-keyboard-response","5","21451","0.0-5.0","A313F7F1F81B414BB97BDF6462656DF0","faa87f88-7815-4bfb-a361-511f8afff2cb","23db58b9-63b0-4bce-8714-07ce439e665e","","null","<div style=""display: flex; justify-content: center; align-items: center;"">
                <img src=""images/causal/causal_series_13/causal_series_13_a.jpg"" style=""width: 300px; height: 300px;"" />
              </div>","null",""
"","","","","","html-button-response","6","24198","0.0-6.0","A313F7F1F81B414BB97BDF6462656DF0","faa87f88-7815-4bfb-a361-511f8afff2cb","23db58b9-63b0-4bce-8714-07ce439e665e","","2744","
    <div style=""display: flex; justify-content: center; align-items: center;"">
      <img src=""images/red_deck_2.png"" style=""width: 300px; height: 300px; margin-right: 10px;"" />
      <img src=""images/blue_deck_1.png"" style=""width: 300px; height: 300px;"" />
    </div>","1","1"
"","","","","","html-keyboard-response","7","27201","0.0-7.0-1.0-0.0","A313F7F1F81B414BB97BDF6462656DF0","faa87f88-7815-4bfb-a361-511f8afff2cb","23db58b9-63b0-4bce-8714-07ce439e665e","","null","<div style=""display: flex; justify-content: center; align-items: center;"">
                <img src=""images/semantic/semantic_series_18/semantic_series_18_d.jpg"" style=""width: 300px; height: 300px;"" />
              </div>","null",""
"","","","","","html-keyboard-response","8","30203","0.0-7.0-1.0-1.0","A313F7F1F81B414BB97BDF6462656DF0","faa87f88-7815-4bfb-a361-511f8afff2cb","23db58b9-63b0-4bce-8714-07ce439e665e","","null","<div style=""display: flex; justify-content: center; align-items: center;"">
                <img src=""images/semantic/semantic_series_1/semantic_series_1_d.jpg"" style=""width: 300px; height: 300px;"" />
              </div>","null",""
"","","","","","html-keyboard-response","9","33206","0.0-7.0-1.0-2.0","A313F7F1F81B414BB97BDF6462656DF0","faa87f88-7815-4bfb-a361-511f8afff2cb","23db58b9-63b0-4bce-8714-07ce439e665e","","null","<div style=""display: flex; justify-content: center; align-items: center;"">
                <img src=""images/semantic/semantic_series_2/semantic_series_2_d.jpg"" style=""width: 300px; height: 300px;"" />
              </div>","null",""
"","","","","","html-keyboard-response","10","36209","0.0-8.0","A313F7F1F81B414BB97BDF6462656DF0","faa87f88-7815-4bfb-a361-511f8afff2cb","23db58b9-63b0-4bce-8714-07ce439e665e","","null","<div style=""display: flex; justify-content: center; align-items: center;"">
                <img src=""images/other/blank.jpg"" style=""width: 300px; height: 300px;"" />
              </div>","null",""
"","","","","","html-keyboard-response","11","39212","0.0-9.0","A313F7F1F81B414BB97BDF6462656DF0","faa87f88-7815-4bfb-a361-511f8afff2cb","23db58b9-63b0-4bce-8714-07ce439e665e","","null","<div style=""display: flex; justify-content: center; align-items: center;"">
                <img src=""images/causal/causal_series_8/causal_series_8_a.jpg"" style=""width: 300px; height: 300px;"" />
              </div>","null",""
"","","","","","html-button-response","12","41314","0.0-10.0","A313F7F1F81B414BB97BDF6462656DF0","faa87f88-7815-4bfb-a361-511f8afff2cb","23db58b9-63b0-4bce-8714-07ce439e665e","","2100","
    <div style=""display: flex; justify-content: center; align-items: center;"">
      <img src=""images/red_deck_2.png"" style=""width: 300px; height: 300px; margin-right: 10px;"" />
      <img src=""images/blue_deck_1.png"" style=""width: 300px; height: 300px;"" />
    </div>","0","0"
"","","","","","html-keyboard-response","13","44317","0.0-11.0-0.0-0.0","A313F7F1F81B414BB97BDF6462656DF0","faa87f88-7815-4bfb-a361-511f8afff2cb","23db58b9-63b0-4bce-8714-07ce439e665e","","null","<div style=""display: flex; justify-content: center; align-items: center;"">
                <img src=""images/causal/causal_series_8/causal_series_8_b.jpg"" style=""width: 300px; height: 300px;"" />
              </div>","null",""
"","","","","","html-keyboard-response","14","47319","0.0-11.0-0.0-1.0","A313F7F1F81B414BB97BDF6462656DF0","faa87f88-7815-4bfb-a361-511f8afff2cb","23db58b9-63b0-4bce-8714-07ce439e665e","","null","<div style=""display: flex; justify-content: center; align-items: center;"">
                <img src=""images/causal/causal_series_8/causal_series_8_c.jpg"" style=""width: 300px; height: 300px;"" />
              </div>","null",""
"","","","","","html-keyboard-response","15","50322","0.0-11.0-0.0-2.0","A313F7F1F81B414BB97BDF6462656DF0","faa87f88-7815-4bfb-a361-511f8afff2cb","23db58b9-63b0-4bce-8714-07ce439e665e","","null","<div style=""display: flex; justify-content: center; align-items: center;"">
                <img src=""images/causal/causal_series_8/causal_series_8_d.jpg"" style=""width: 300px; height: 300px;"" />
              </div>","null",""
"","","","","","html-keyboard-response","16","53324","0.0-12.0","A313F7F1F81B414BB97BDF6462656DF0","faa87f88-7815-4bfb-a361-511f8afff2cb","23db58b9-63b0-4bce-8714-07ce439e665e","","null","<div style=""display: flex; justify-content: center; align-items: center;"">
                <img src=""images/other/blank.jpg"" style=""width: 300px; height: 300px;"" />
              </div>","null",""
"","","","","","html-keyboard-response","17","56327","0.0-13.0","A313F7F1F81B414BB97BDF6462656DF0","faa87f88-7815-4bfb-a361-511f8afff2cb","23db58b9-63b0-4bce-8714-07ce439e665e","","null","<div style=""display: flex; justify-content: center; align-items: center;"">
                <img src=""images/causal/causal_series_3/causal_series_3_a.jpg"" style=""width: 300px; height: 300px;"" />
              </div>","null",""
"","","","","","html-button-response","18","57465","0.0-14.0","A313F7F1F81B414BB97BDF6462656DF0","faa87f88-7815-4bfb-a361-511f8afff2cb","23db58b9-63b0-4bce-8714-07ce439e665e","","1136","
    <div style=""display: flex; justify-content: center; align-items: center;"">
      <img src=""images/red_deck_2.png"" style=""width: 300px; height: 300px; margin-right: 10px;"" />
      <img src=""images/blue_deck_1.png"" style=""width: 300px; height: 300px;"" />
    </div>","1","1"
"","","","","","html-keyboard-response","19","60469","0.0-15.0-1.0-0.0","A313F7F1F81B414BB97BDF6462656DF0","faa87f88-7815-4bfb-a361-511f8afff2cb","23db58b9-63b0-4bce-8714-07ce439e665e","","null","<div style=""display: flex; justify-content: center; align-items: center;"">
                <img src=""images/semantic/semantic_series_6/semantic_series_6_d.jpg"" style=""width: 300px; height: 300px;"" />
              </div>","null",""
"","","","","","html-keyboard-response","20","63472","0.0-15.0-1.0-1.0","A313F7F1F81B414BB97BDF6462656DF0","faa87f88-7815-4bfb-a361-511f8afff2cb","23db58b9-63b0-4bce-8714-07ce439e665e","","null","<div style=""display: flex; justify-content: center; align-items: center;"">
                <img src=""images/semantic/semantic_series_7/semantic_series_7_d.jpg"" style=""width: 300px; height: 300px;"" />
              </div>","null",""
"","","","","","html-keyboard-response","21","66475","0.0-15.0-1.0-2.0","A313F7F1F81B414BB97BDF6462656DF0","faa87f88-7815-4bfb-a361-511f8afff2cb","23db58b9-63b0-4bce-8714-07ce439e665e","","null","<div style=""display: flex; justify-content: center; align-items: center;"">
                <img src=""images/semantic/semantic_series_8/semantic_series_8_d.jpg"" style=""width: 300px; height: 300px;"" />
              </div>","null",""
"","","","","","html-keyboard-response","22","69478","0.0-16.0","A313F7F1F81B414BB97BDF6462656DF0","faa87f88-7815-4bfb-a361-511f8afff2cb","23db58b9-63b0-4bce-8714-07ce439e665e","","null","<div style=""display: flex; justify-content: center; align-items: center;"">
                <img src=""images/other/blank.jpg"" style=""width: 300px; height: 300px;"" />
              </div>","null",""
"","","","","","html-keyboard-response","23","72481","0.0-17.0","A313F7F1F81B414BB97BDF6462656DF0","faa87f88-7815-4bfb-a361-511f8afff2cb","23db58b9-63b0-4bce-8714-07ce439e665e","","null","<div style=""display: flex; justify-content: center; align-items: center;"">
                <img src=""images/causal/causal_series_14/causal_series_14_a.jpg"" style=""width: 300px; height: 300px;"" />
              </div>","null",""
"","","","","","html-button-response","24","73681","0.0-18.0","A313F7F1F81B414BB97BDF6462656DF0","faa87f88-7815-4bfb-a361-511f8afff2cb","23db58b9-63b0-4bce-8714-07ce439e665e","","1199","
    <div style=""display: flex; justify-content: center; align-items: center;"">
      <img src=""images/red_deck_2.png"" style=""width: 300px; height: 300px; margin-right: 10px;"" />
      <img src=""images/blue_deck_1.png"" style=""width: 300px; height: 300px;"" />
    </div>","1","1"
"","","","","","html-keyboard-response","25","76683","0.0-19.0-1.0-0.0","A313F7F1F81B414BB97BDF6462656DF0","faa87f88-7815-4bfb-a361-511f8afff2cb","23db58b9-63b0-4bce-8714-07ce439e665e","","null","<div style=""display: flex; justify-content: center; align-items: center;"">
                <img src=""images/semantic/semantic_series_3/semantic_series_3_d.jpg"" style=""width: 300px; height: 300px;"" />
              </div>","null",""
"","","","","","html-keyboard-response","26","79685","0.0-19.0-1.0-1.0","A313F7F1F81B414BB97BDF6462656DF0","faa87f88-7815-4bfb-a361-511f8afff2cb","23db58b9-63b0-4bce-8714-07ce439e665e","","null","<div style=""display: flex; justify-content: center; align-items: center;"">
                <img src=""images/semantic/semantic_series_4/semantic_series_4_d.jpg"" style=""width: 300px; height: 300px;"" />
              </div>","null",""
"","","","","","html-keyboard-response","27","82688","0.0-19.0-1.0-2.0","A313F7F1F81B414BB97BDF6462656DF0","faa87f88-7815-4bfb-a361-511f8afff2cb","23db58b9-63b0-4bce-8714-07ce439e665e","","null","<div style=""display: flex; justify-content: center; align-items: center;"">
                <img src=""images/semantic/semantic_series_5/semantic_series_5_d.jpg"" style=""width: 300px; height: 300px;"" />
              </div>","null",""
"","","","","","html-keyboard-response","28","85691","0.0-20.0","A313F7F1F81B414BB97BDF6462656DF0","faa87f88-7815-4bfb-a361-511f8afff2cb","23db58b9-63b0-4bce-8714-07ce439e665e","","null","<div style=""display: flex; justify-content: center; align-items: center;"">
                <img src=""images/other/blank.jpg"" style=""width: 300px; height: 300px;"" />
              </div>","null",""
"","","","","","html-keyboard-response","29","88694","0.0-21.0","A313F7F1F81B414BB97BDF6462656DF0","faa87f88-7815-4bfb-a361-511f8afff2cb","23db58b9-63b0-4bce-8714-07ce439e665e","","null","<div style=""display: flex; justify-content: center; align-items: center;"">
                <img src=""images/causal/causal_series_1/causal_series_1_a.jpg"" style=""width: 300px; height: 300px;"" />
              </div>","null",""
"","","","","","html-button-response","30","90014","0.0-22.0","A313F7F1F81B414BB97BDF6462656DF0","faa87f88-7815-4bfb-a361-511f8afff2cb","23db58b9-63b0-4bce-8714-07ce439e665e","","1319","
    <div style=""display: flex; justify-content: center; align-items: center;"">
      <img src=""images/red_deck_2.png"" style=""width: 300px; height: 300px; margin-right: 10px;"" />
      <img src=""images/blue_deck_1.png"" style=""width: 300px; height: 300px;"" />
    </div>","0","0"
"","","","","","html-keyboard-response","31","93017","0.0-23.0-0.0-0.0","A313F7F1F81B414BB97BDF6462656DF0","faa87f88-7815-4bfb-a361-511f8afff2cb","23db58b9-63b0-4bce-8714-07ce439e665e","","null","<div style=""display: flex; justify-content: center; align-items: center;"">
                <img src=""images/causal/causal_series_1/causal_series_1_b.jpg"" style=""width: 300px; height: 300px;"" />
              </div>","null",""
"","","","","","html-keyboard-response","32","96020","0.0-23.0-0.0-1.0","A313F7F1F81B414BB97BDF6462656DF0","faa87f88-7815-4bfb-a361-511f8afff2cb","23db58b9-63b0-4bce-8714-07ce439e665e","","null","<div style=""display: flex; justify-content: center; align-items: center;"">
                <img src=""images/causal/causal_series_1/causal_series_1_c.jpg"" style=""width: 300px; height: 300px;"" />
              </div>","null",""
"","","","","","html-keyboard-response","33","99023","0.0-23.0-0.0-2.0","A313F7F1F81B414BB97BDF6462656DF0","faa87f88-7815-4bfb-a361-511f8afff2cb","23db58b9-63b0-4bce-8714-07ce439e665e","","null","<div style=""display: flex; justify-content: center; align-items: center;"">
                <img src=""images/causal/causal_series_1/causal_series_1_d.jpg"" style=""width: 300px; height: 300px;"" />
              </div>","null",""
"","","","","","html-keyboard-response","34","102025","0.0-24.0","A313F7F1F81B414BB97BDF6462656DF0","faa87f88-7815-4bfb-a361-511f8afff2cb","23db58b9-63b0-4bce-8714-07ce439e665e","","null","<div style=""display: flex; justify-content: center; align-items: center;"">
                <img src=""images/other/blank.jpg"" style=""width: 300px; height: 300px;"" />
              </div>","null",""
"","","","","","html-keyboard-response","35","105028","0.0-25.0","A313F7F1F81B414BB97BDF6462656DF0","faa87f88-7815-4bfb-a361-511f8afff2cb","23db58b9-63b0-4bce-8714-07ce439e665e","","null","<div style=""display: flex; justify-content: center; align-items: center;"">
                <img src=""images/causal/causal_series_2/causal_series_2_a.jpg"" style=""width: 300px; height: 300px;"" />
              </div>","null",""
"","","","","","html-button-response","36","106320","0.0-26.0","A313F7F1F81B414BB97BDF6462656DF0","faa87f88-7815-4bfb-a361-511f8afff2cb","23db58b9-63b0-4bce-8714-07ce439e665e","","1290","
    <div style=""display: flex; justify-content: center; align-items: center;"">
      <img src=""images/red_deck_2.png"" style=""width: 300px; height: 300px; margin-right: 10px;"" />
      <img src=""images/blue_deck_1.png"" style=""width: 300px; height: 300px;"" />
    </div>","0","0"
"","","","","","html-keyboard-response","37","109323","0.0-27.0-0.0-0.0","A313F7F1F81B414BB97BDF6462656DF0","faa87f88-7815-4bfb-a361-511f8afff2cb","23db58b9-63b0-4bce-8714-07ce439e665e","","null","<div style=""display: flex; justify-content: center; align-items: center;"">
                <img src=""images/causal/causal_series_2/causal_series_2_b.jpg"" style=""width: 300px; height: 300px;"" />
              </div>","null",""
"","","","","","html-keyboard-response","38","112325","0.0-27.0-0.0-1.0","A313F7F1F81B414BB97BDF6462656DF0","faa87f88-7815-4bfb-a361-511f8afff2cb","23db58b9-63b0-4bce-8714-07ce439e665e","","null","<div style=""display: flex; justify-content: center; align-items: center;"">
                <img src=""images/causal/causal_series_2/causal_series_2_c.jpg"" style=""width: 300px; height: 300px;"" />
              </div>","null",""
"","","","","","html-keyboard-response","39","115328","0.0-27.0-0.0-2.0","A313F7F1F81B414BB97BDF6462656DF0","faa87f88-7815-4bfb-a361-511f8afff2cb","23db58b9-63b0-4bce-8714-07ce439e665e","","null","<div style=""display: flex; justify-content: center; align-items: center;"">
                <img src=""images/causal/causal_series_2/causal_series_2_d.jpg"" style=""width: 300px; height: 300px;"" />
              </div>","null",""
"","","","","","html-keyboard-response","40","118331","0.0-28.0","A313F7F1F81B414BB97BDF6462656DF0","faa87f88-7815-4bfb-a361-511f8afff2cb","23db58b9-63b0-4bce-8714-07ce439e665e","","null","<div style=""display: flex; justify-content: center; align-items: center;"">
                <img src=""images/other/blank.jpg"" style=""width: 300px; height: 300px;"" />
              </div>","null",""
"","","","","","html-keyboard-response","41","121333","0.0-29.0","A313F7F1F81B414BB97BDF6462656DF0","faa87f88-7815-4bfb-a361-511f8afff2cb","23db58b9-63b0-4bce-8714-07ce439e665e","","null","<div style=""display: flex; justify-content: center; align-items: center;"">
                <img src=""images/causal/causal_series_12/causal_series_12_a.jpg"" style=""width: 300px; height: 300px;"" />
              </div>","null",""
"","","","","","html-button-response","42","122252","0.0-30.0","A313F7F1F81B414BB97BDF6462656DF0","faa87f88-7815-4bfb-a361-511f8afff2cb","23db58b9-63b0-4bce-8714-07ce439e665e","","916","
    <div style=""display: flex; justify-content: center; align-items: center;"">
      <img src=""images/red_deck_2.png"" style=""width: 300px; height: 300px; margin-right: 10px;"" />
      <img src=""images/blue_deck_1.png"" style=""width: 300px; height: 300px;"" />
    </div>","1","1"
"","","","","","html-keyboard-response","43","125253","0.0-31.0-1.0-0.0","A313F7F1F81B414BB97BDF6462656DF0","faa87f88-7815-4bfb-a361-511f8afff2cb","23db58b9-63b0-4bce-8714-07ce439e665e","","null","<div style=""display: flex; justify-content: center; align-items: center;"">
                <img src=""images/semantic/semantic_series_15/semantic_series_15_d.jpg"" style=""width: 300px; height: 300px;"" />
              </div>","null",""
"","","","","","html-keyboard-response","44","128256","0.0-31.0-1.0-1.0","A313F7F1F81B414BB97BDF6462656DF0","faa87f88-7815-4bfb-a361-511f8afff2cb","23db58b9-63b0-4bce-8714-07ce439e665e","","null","<div style=""display: flex; justify-content: center; align-items: center;"">
                <img src=""images/semantic/semantic_series_16/semantic_series_16_d.jpg"" style=""width: 300px; height: 300px;"" />
              </div>","null",""
"","","","","","html-keyboard-response","45","131258","0.0-31.0-1.0-2.0","A313F7F1F81B414BB97BDF6462656DF0","faa87f88-7815-4bfb-a361-511f8afff2cb","23db58b9-63b0-4bce-8714-07ce439e665e","","null","<div style=""display: flex; justify-content: center; align-items: center;"">
                <img src=""images/semantic/semantic_series_17/semantic_series_17_d.jpg"" style=""width: 300px; height: 300px;"" />
              </div>","null",""
"","","","","","html-keyboard-response","46","134259","0.0-32.0","A313F7F1F81B414BB97BDF6462656DF0","faa87f88-7815-4bfb-a361-511f8afff2cb","23db58b9-63b0-4bce-8714-07ce439e665e","","null","<div style=""display: flex; justify-content: center; align-items: center;"">
                <img src=""images/other/blank.jpg"" style=""width: 300px; height: 300px;"" />
              </div>","null",""
"","","","","","html-keyboard-response","47","137262","0.0-33.0","A313F7F1F81B414BB97BDF6462656DF0","faa87f88-7815-4bfb-a361-511f8afff2cb","23db58b9-63b0-4bce-8714-07ce439e665e","","null","<div style=""display: flex; justify-content: center; align-items: center;"">
                <img src=""images/causal/causal_series_5/causal_series_5_a.jpg"" style=""width: 300px; height: 300px;"" />
              </div>","null",""
"","","","","","html-button-response","48","138532","0.0-34.0","A313F7F1F81B414BB97BDF6462656DF0","faa87f88-7815-4bfb-a361-511f8afff2cb","23db58b9-63b0-4bce-8714-07ce439e665e","","1268","
    <div style=""display: flex; justify-content: center; align-items: center;"">
      <img src=""images/red_deck_2.png"" style=""width: 300px; height: 300px; margin-right: 10px;"" />
      <img src=""images/blue_deck_1.png"" style=""width: 300px; height: 300px;"" />
    </div>","0","0"
"","","","","","html-keyboard-response","49","141535","0.0-35.0-0.0-0.0","A313F7F1F81B414BB97BDF6462656DF0","faa87f88-7815-4bfb-a361-511f8afff2cb","23db58b9-63b0-4bce-8714-07ce439e665e","","null","<div style=""display: flex; justify-content: center; align-items: center;"">
                <img src=""images/causal/causal_series_5/causal_series_5_b.jpg"" style=""width: 300px; height: 300px;"" />
              </div>","null",""
"","","","","","html-keyboard-response","50","144537","0.0-35.0-0.0-1.0","A313F7F1F81B414BB97BDF6462656DF0","faa87f88-7815-4bfb-a361-511f8afff2cb","23db58b9-63b0-4bce-8714-07ce439e665e","","null","<div style=""display: flex; justify-content: center; align-items: center;"">
                <img src=""images/causal/causal_series_5/causal_series_5_c.jpg"" style=""width: 300px; height: 300px;"" />
              </div>","null",""
"","","","","","html-keyboard-response","51","147539","0.0-35.0-0.0-2.0","A313F7F1F81B414BB97BDF6462656DF0","faa87f88-7815-4bfb-a361-511f8afff2cb","23db58b9-63b0-4bce-8714-07ce439e665e","","null","<div style=""display: flex; justify-content: center; align-items: center;"">
                <img src=""images/causal/causal_series_5/causal_series_5_d.jpg"" style=""width: 300px; height: 300px;"" />
              </div>","null",""
"","","","","","html-keyboard-response","52","150542","0.0-36.0","A313F7F1F81B414BB97BDF6462656DF0","faa87f88-7815-4bfb-a361-511f8afff2cb","23db58b9-63b0-4bce-8714-07ce439e665e","","null","<div style=""display: flex; justify-content: center; align-items: center;"">
                <img src=""images/other/blank.jpg"" style=""width: 300px; height: 300px;"" />
              </div>","null",""
"","","","","","html-keyboard-response","53","153545","0.0-37.0","A313F7F1F81B414BB97BDF6462656DF0","faa87f88-7815-4bfb-a361-511f8afff2cb","23db58b9-63b0-4bce-8714-07ce439e665e","","null","<div style=""display: flex; justify-content: center; align-items: center;"">
                <img src=""images/causal/causal_series_18/causal_series_18_a.jpg"" style=""width: 300px; height: 300px;"" />
              </div>","null",""
"","","","","","html-button-response","54","161867","0.0-38.0","A313F7F1F81B414BB97BDF6462656DF0","faa87f88-7815-4bfb-a361-511f8afff2cb","23db58b9-63b0-4bce-8714-07ce439e665e","","8320","
    <div style=""display: flex; justify-content: center; align-items: center;"">
      <img src=""images/red_deck_2.png"" style=""width: 300px; height: 300px; margin-right: 10px;"" />
      <img src=""images/blue_deck_1.png"" style=""width: 300px; height: 300px;"" />
    </div>","1","1"
"","","","","","html-keyboard-response","55","164869","0.0-39.0-1.0-0.0","A313F7F1F81B414BB97BDF6462656DF0","faa87f88-7815-4bfb-a361-511f8afff2cb","23db58b9-63b0-4bce-8714-07ce439e665e","","null","<div style=""display: flex; justify-content: center; align-items: center;"">
                <img src=""images/semantic/semantic_series_15/semantic_series_15_d.jpg"" style=""width: 300px; height: 300px;"" />
              </div>","null",""
"","","","","","html-keyboard-response","56","167872","0.0-39.0-1.0-1.0","A313F7F1F81B414BB97BDF6462656DF0","faa87f88-7815-4bfb-a361-511f8afff2cb","23db58b9-63b0-4bce-8714-07ce439e665e","","null","<div style=""display: flex; justify-content: center; align-items: center;"">
                <img src=""images/semantic/semantic_series_16/semantic_series_16_d.jpg"" style=""width: 300px; height: 300px;"" />
              </div>","null",""
"","","","","","html-keyboard-response","57","170875","0.0-39.0-1.0-2.0","A313F7F1F81B414BB97BDF6462656DF0","faa87f88-7815-4bfb-a361-511f8afff2cb","23db58b9-63b0-4bce-8714-07ce439e665e","","null","<div style=""display: flex; justify-content: center; align-items: center;"">
                <img src=""images/semantic/semantic_series_17/semantic_series_17_d.jpg"" style=""width: 300px; height: 300px;"" />
              </div>","null",""
"","","","","","html-keyboard-response","58","173877","0.0-40.0","A313F7F1F81B414BB97BDF6462656DF0","faa87f88-7815-4bfb-a361-511f8afff2cb","23db58b9-63b0-4bce-8714-07ce439e665e","","null","<div style=""display: flex; justify-content: center; align-items: center;"">
                <img src=""images/other/blank.jpg"" style=""width: 300px; height: 300px;"" />
              </div>","null",""
"","","","","","html-keyboard-response","59","176879","0.0-41.0","A313F7F1F81B414BB97BDF6462656DF0","faa87f88-7815-4bfb-a361-511f8afff2cb","23db58b9-63b0-4bce-8714-07ce439e665e","","null","<div style=""display: flex; justify-content: center; align-items: center;"">
                <img src=""images/causal/causal_series_6/causal_series_6_a.jpg"" style=""width: 300px; height: 300px;"" />
              </div>","null",""
"","","","","","html-button-response","60","177715","0.0-42.0","A313F7F1F81B414BB97BDF6462656DF0","faa87f88-7815-4bfb-a361-511f8afff2cb","23db58b9-63b0-4bce-8714-07ce439e665e","","835","
    <div style=""display: flex; justify-content: center; align-items: center;"">
      <img src=""images/red_deck_2.png"" style=""width: 300px; height: 300px; margin-right: 10px;"" />
      <img src=""images/blue_deck_1.png"" style=""width: 300px; height: 300px;"" />
    </div>","0","0"
"","","","","","html-keyboard-response","61","180717","0.0-43.0-0.0-0.0","A313F7F1F81B414BB97BDF6462656DF0","faa87f88-7815-4bfb-a361-511f8afff2cb","23db58b9-63b0-4bce-8714-07ce439e665e","","null","<div style=""display: flex; justify-content: center; align-items: center;"">
                <img src=""images/causal/causal_series_6/causal_series_6_b.jpg"" style=""width: 300px; height: 300px;"" />
              </div>","null",""
"","","","","","html-keyboard-response","62","183719","0.0-43.0-0.0-1.0","A313F7F1F81B414BB97BDF6462656DF0","faa87f88-7815-4bfb-a361-511f8afff2cb","23db58b9-63b0-4bce-8714-07ce439e665e","","null","<div style=""display: flex; justify-content: center; align-items: center;"">
                <img src=""images/causal/causal_series_6/causal_series_6_c.jpg"" style=""width: 300px; height: 300px;"" />
              </div>","null",""
"","","","","","html-keyboard-response","63","186722","0.0-43.0-0.0-2.0","A313F7F1F81B414BB97BDF6462656DF0","faa87f88-7815-4bfb-a361-511f8afff2cb","23db58b9-63b0-4bce-8714-07ce439e665e","","null","<div style=""display: flex; justify-content: center; align-items: center;"">
                <img src=""images/causal/causal_series_6/causal_series_6_d.jpg"" style=""width: 300px; height: 300px;"" />
              </div>","null",""
"","","","","","html-keyboard-response","64","189725","0.0-44.0","A313F7F1F81B414BB97BDF6462656DF0","faa87f88-7815-4bfb-a361-511f8afff2cb","23db58b9-63b0-4bce-8714-07ce439e665e","","null","<div style=""display: flex; justify-content: center; align-items: center;"">
                <img src=""images/other/blank.jpg"" style=""width: 300px; height: 300px;"" />
              </div>","null",""
"","","","","","html-keyboard-response","65","192727","0.0-45.0","A313F7F1F81B414BB97BDF6462656DF0","faa87f88-7815-4bfb-a361-511f8afff2cb","23db58b9-63b0-4bce-8714-07ce439e665e","","null","<div style=""display: flex; justify-content: center; align-items: center;"">
                <img src=""images/causal/causal_series_4/causal_series_4_a.jpg"" style=""width: 300px; height: 300px;"" />
              </div>","null",""
"","","","","","html-button-response","66","193652","0.0-46.0","A313F7F1F81B414BB97BDF6462656DF0","faa87f88-7815-4bfb-a361-511f8afff2cb","23db58b9-63b0-4bce-8714-07ce439e665e","","923","
    <div style=""display: flex; justify-content: center; align-items: center;"">
      <img src=""images/red_deck_2.png"" style=""width: 300px; height: 300px; margin-right: 10px;"" />
      <img src=""images/blue_deck_1.png"" style=""width: 300px; height: 300px;"" />
    </div>","0","0"
"","","","","","html-keyboard-response","67","196654","0.0-47.0-0.0-0.0","A313F7F1F81B414BB97BDF6462656DF0","faa87f88-7815-4bfb-a361-511f8afff2cb","23db58b9-63b0-4bce-8714-07ce439e665e","","null","<div style=""display: flex; justify-content: center; align-items: center;"">
                <img src=""images/causal/causal_series_4/causal_series_4_b.jpg"" style=""width: 300px; height: 300px;"" />
              </div>","null",""
"","","","","","html-keyboard-response","68","199657","0.0-47.0-0.0-1.0","A313F7F1F81B414BB97BDF6462656DF0","faa87f88-7815-4bfb-a361-511f8afff2cb","23db58b9-63b0-4bce-8714-07ce439e665e","","null","<div style=""display: flex; justify-content: center; align-items: center;"">
                <img src=""images/causal/causal_series_4/causal_series_4_c.jpg"" style=""width: 300px; height: 300px;"" />
              </div>","null",""
"","","","","","html-keyboard-response","69","202659","0.0-47.0-0.0-2.0","A313F7F1F81B414BB97BDF6462656DF0","faa87f88-7815-4bfb-a361-511f8afff2cb","23db58b9-63b0-4bce-8714-07ce439e665e","","null","<div style=""display: flex; justify-content: center; align-items: center;"">
                <img src=""images/causal/causal_series_4/causal_series_4_d.jpg"" style=""width: 300px; height: 300px;"" />
              </div>","null",""
"","","","","","html-keyboard-response","70","205661","0.0-48.0","A313F7F1F81B414BB97BDF6462656DF0","faa87f88-7815-4bfb-a361-511f8afff2cb","23db58b9-63b0-4bce-8714-07ce439e665e","","null","<div style=""display: flex; justify-content: center; align-items: center;"">
                <img src=""images/other/blank.jpg"" style=""width: 300px; height: 300px;"" />
              </div>","null",""
"","","","","","html-keyboard-response","71","208664","0.0-49.0","A313F7F1F81B414BB97BDF6462656DF0","faa87f88-7815-4bfb-a361-511f8afff2cb","23db58b9-63b0-4bce-8714-07ce439e665e","","null","<div style=""display: flex; justify-content: center; align-items: center;"">
                <img src=""images/causal/causal_series_15/causal_series_15_a.jpg"" style=""width: 300px; height: 300px;"" />
              </div>","null",""
"","","","","","html-button-response","72","216150","0.0-50.0","A313F7F1F81B414BB97BDF6462656DF0","faa87f88-7815-4bfb-a361-511f8afff2cb","23db58b9-63b0-4bce-8714-07ce439e665e","","7485","
    <div style=""display: flex; justify-content: center; align-items: center;"">
      <img src=""images/red_deck_2.png"" style=""width: 300px; height: 300px; margin-right: 10px;"" />
      <img src=""images/blue_deck_1.png"" style=""width: 300px; height: 300px;"" />
    </div>","1","1"
"","","","","","html-keyboard-response","73","219153","0.0-51.0-1.0-0.0","A313F7F1F81B414BB97BDF6462656DF0","faa87f88-7815-4bfb-a361-511f8afff2cb","23db58b9-63b0-4bce-8714-07ce439e665e","","null","<div style=""display: flex; justify-content: center; align-items: center;"">
                <img src=""images/semantic/semantic_series_6/semantic_series_6_d.jpg"" style=""width: 300px; height: 300px;"" />
              </div>","null",""
"","","","","","html-keyboard-response","74","222156","0.0-51.0-1.0-1.0","A313F7F1F81B414BB97BDF6462656DF0","faa87f88-7815-4bfb-a361-511f8afff2cb","23db58b9-63b0-4bce-8714-07ce439e665e","","null","<div style=""display: flex; justify-content: center; align-items: center;"">
                <img src=""images/semantic/semantic_series_7/semantic_series_7_d.jpg"" style=""width: 300px; height: 300px;"" />
              </div>","null",""
"","","","","","html-keyboard-response","75","225158","0.0-51.0-1.0-2.0","A313F7F1F81B414BB97BDF6462656DF0","faa87f88-7815-4bfb-a361-511f8afff2cb","23db58b9-63b0-4bce-8714-07ce439e665e","","null","<div style=""display: flex; justify-content: center; align-items: center;"">
                <img src=""images/semantic/semantic_series_8/semantic_series_8_d.jpg"" style=""width: 300px; height: 300px;"" />
              </div>","null",""
"","","","","","html-keyboard-response","76","228162","0.0-52.0","A313F7F1F81B414BB97BDF6462656DF0","faa87f88-7815-4bfb-a361-511f8afff2cb","23db58b9-63b0-4bce-8714-07ce439e665e","","null","<div style=""display: flex; justify-content: center; align-items: center;"">
                <img src=""images/other/blank.jpg"" style=""width: 300px; height: 300px;"" />
              </div>","null",""
"","","","","","html-keyboard-response","77","231165","0.0-53.0","A313F7F1F81B414BB97BDF6462656DF0","faa87f88-7815-4bfb-a361-511f8afff2cb","23db58b9-63b0-4bce-8714-07ce439e665e","","null","<div style=""display: flex; justify-content: center; align-items: center;"">
                <img src=""images/causal/causal_series_11/causal_series_11_a.jpg"" style=""width: 300px; height: 300px;"" />
              </div>","null",""
"","","","","","html-button-response","78","232384","0.0-54.0","A313F7F1F81B414BB97BDF6462656DF0","faa87f88-7815-4bfb-a361-511f8afff2cb","23db58b9-63b0-4bce-8714-07ce439e665e","","1218","
    <div style=""display: flex; justify-content: center; align-items: center;"">
      <img src=""images/red_deck_2.png"" style=""width: 300px; height: 300px; margin-right: 10px;"" />
      <img src=""images/blue_deck_1.png"" style=""width: 300px; height: 300px;"" />
    </div>","0","0"
"","","","","","html-keyboard-response","79","235387","0.0-55.0-0.0-0.0","A313F7F1F81B414BB97BDF6462656DF0","faa87f88-7815-4bfb-a361-511f8afff2cb","23db58b9-63b0-4bce-8714-07ce439e665e","","null","<div style=""display: flex; justify-content: center; align-items: center;"">
                <img src=""images/causal/causal_series_11/causal_series_11_b.jpg"" style=""width: 300px; height: 300px;"" />
              </div>","null",""
"","","","","","html-keyboard-response","80","238390","0.0-55.0-0.0-1.0","A313F7F1F81B414BB97BDF6462656DF0","faa87f88-7815-4bfb-a361-511f8afff2cb","23db58b9-63b0-4bce-8714-07ce439e665e","","null","<div style=""display: flex; justify-content: center; align-items: center;"">
                <img src=""images/causal/causal_series_11/causal_series_11_c.jpg"" style=""width: 300px; height: 300px;"" />
              </div>","null",""
"","","","","","html-keyboard-response","81","241392","0.0-55.0-0.0-2.0","A313F7F1F81B414BB97BDF6462656DF0","faa87f88-7815-4bfb-a361-511f8afff2cb","23db58b9-63b0-4bce-8714-07ce439e665e","","null","<div style=""display: flex; justify-content: center; align-items: center;"">
                <img src=""images/causal/causal_series_11/causal_series_11_d.jpg"" style=""width: 300px; height: 300px;"" />
              </div>","null",""
"","","","","","html-keyboard-response","82","244395","0.0-56.0","A313F7F1F81B414BB97BDF6462656DF0","faa87f88-7815-4bfb-a361-511f8afff2cb","23db58b9-63b0-4bce-8714-07ce439e665e","","null","<div style=""display: flex; justify-content: center; align-items: center;"">
                <img src=""images/other/blank.jpg"" style=""width: 300px; height: 300px;"" />
              </div>","null",""
"","","","","","html-keyboard-response","83","247398","0.0-57.0","A313F7F1F81B414BB97BDF6462656DF0","faa87f88-7815-4bfb-a361-511f8afff2cb","23db58b9-63b0-4bce-8714-07ce439e665e","","null","<div style=""display: flex; justify-content: center; align-items: center;"">
                <img src=""images/causal/causal_series_10/causal_series_10_a.jpg"" style=""width: 300px; height: 300px;"" />
              </div>","null",""
"","","","","","html-button-response","84","248801","0.0-58.0","A313F7F1F81B414BB97BDF6462656DF0","faa87f88-7815-4bfb-a361-511f8afff2cb","23db58b9-63b0-4bce-8714-07ce439e665e","","1401","
    <div style=""display: flex; justify-content: center; align-items: center;"">
      <img src=""images/red_deck_2.png"" style=""width: 300px; height: 300px; margin-right: 10px;"" />
      <img src=""images/blue_deck_1.png"" style=""width: 300px; height: 300px;"" />
    </div>","1","1"
"","","","","","html-keyboard-response","85","251803","0.0-59.0-1.0-0.0","A313F7F1F81B414BB97BDF6462656DF0","faa87f88-7815-4bfb-a361-511f8afff2cb","23db58b9-63b0-4bce-8714-07ce439e665e","","null","<div style=""display: flex; justify-content: center; align-items: center;"">
                <img src=""images/semantic/semantic_series_9/semantic_series_9_d.jpg"" style=""width: 300px; height: 300px;"" />
              </div>","null",""
"","","","","","html-keyboard-response","86","254805","0.0-59.0-1.0-1.0","A313F7F1F81B414BB97BDF6462656DF0","faa87f88-7815-4bfb-a361-511f8afff2cb","23db58b9-63b0-4bce-8714-07ce439e665e","","null","<div style=""display: flex; justify-content: center; align-items: center;"">
                <img src=""images/semantic/semantic_series_10/semantic_series_10_d.jpg"" style=""width: 300px; height: 300px;"" />
              </div>","null",""
"","","","","","html-keyboard-response","87","257807","0.0-59.0-1.0-2.0","A313F7F1F81B414BB97BDF6462656DF0","faa87f88-7815-4bfb-a361-511f8afff2cb","23db58b9-63b0-4bce-8714-07ce439e665e","","null","<div style=""display: flex; justify-content: center; align-items: center;"">
                <img src=""images/semantic/semantic_series_11/semantic_series_11_d.jpg"" style=""width: 300px; height: 300px;"" />
              </div>","null",""
"","","","","","html-keyboard-response","88","260810","0.0-60.0","A313F7F1F81B414BB97BDF6462656DF0","faa87f88-7815-4bfb-a361-511f8afff2cb","23db58b9-63b0-4bce-8714-07ce439e665e","","null","<div style=""display: flex; justify-content: center; align-items: center;"">
                <img src=""images/other/blank.jpg"" style=""width: 300px; height: 300px;"" />
              </div>","null",""
"","","","","","html-keyboard-response","89","263811","0.0-61.0","A313F7F1F81B414BB97BDF6462656DF0","faa87f88-7815-4bfb-a361-511f8afff2cb","23db58b9-63b0-4bce-8714-07ce439e665e","","null","<div style=""display: flex; justify-content: center; align-items: center;"">
                <img src=""images/causal/causal_series_16/causal_series_16_a.jpg"" style=""width: 300px; height: 300px;"" />
              </div>","null",""
"","","","","","html-button-response","90","265469","0.0-62.0","A313F7F1F81B414BB97BDF6462656DF0","faa87f88-7815-4bfb-a361-511f8afff2cb","23db58b9-63b0-4bce-8714-07ce439e665e","","1656","
    <div style=""display: flex; justify-content: center; align-items: center;"">
      <img src=""images/red_deck_2.png"" style=""width: 300px; height: 300px; margin-right: 10px;"" />
      <img src=""images/blue_deck_1.png"" style=""width: 300px; height: 300px;"" />
    </div>","0","0"
"","","","","","html-keyboard-response","91","268471","0.0-63.0-0.0-0.0","A313F7F1F81B414BB97BDF6462656DF0","faa87f88-7815-4bfb-a361-511f8afff2cb","23db58b9-63b0-4bce-8714-07ce439e665e","","null","<div style=""display: flex; justify-content: center; align-items: center;"">
                <img src=""images/causal/causal_series_16/causal_series_16_b.jpg"" style=""width: 300px; height: 300px;"" />
              </div>","null",""
"","","","","","html-keyboard-response","92","271473","0.0-63.0-0.0-1.0","A313F7F1F81B414BB97BDF6462656DF0","faa87f88-7815-4bfb-a361-511f8afff2cb","23db58b9-63b0-4bce-8714-07ce439e665e","","null","<div style=""display: flex; justify-content: center; align-items: center;"">
                <img src=""images/causal/causal_series_16/causal_series_16_c.jpg"" style=""width: 300px; height: 300px;"" />
              </div>","null",""
"","","","","","html-keyboard-response","93","274475","0.0-63.0-0.0-2.0","A313F7F1F81B414BB97BDF6462656DF0","faa87f88-7815-4bfb-a361-511f8afff2cb","23db58b9-63b0-4bce-8714-07ce439e665e","","null","<div style=""display: flex; justify-content: center; align-items: center;"">
                <img src=""images/causal/causal_series_16/causal_series_16_d.jpg"" style=""width: 300px; height: 300px;"" />
              </div>","null",""
"","","","","","html-keyboard-response","94","277479","0.0-64.0","A313F7F1F81B414BB97BDF6462656DF0","faa87f88-7815-4bfb-a361-511f8afff2cb","23db58b9-63b0-4bce-8714-07ce439e665e","","null","<div style=""display: flex; justify-content: center; align-items: center;"">
                <img src=""images/other/blank.jpg"" style=""width: 300px; height: 300px;"" />
              </div>","null",""
"","","","","","html-keyboard-response","95","280481","0.0-65.0","A313F7F1F81B414BB97BDF6462656DF0","faa87f88-7815-4bfb-a361-511f8afff2cb","23db58b9-63b0-4bce-8714-07ce439e665e","","null","<div style=""display: flex; justify-content: center; align-items: center;"">
                <img src=""images/causal/causal_series_17/causal_series_17_a.jpg"" style=""width: 300px; height: 300px;"" />
              </div>","null",""
"","","","","","html-button-response","96","283636","0.0-66.0","A313F7F1F81B414BB97BDF6462656DF0","faa87f88-7815-4bfb-a361-511f8afff2cb","23db58b9-63b0-4bce-8714-07ce439e665e","","3153","
    <div style=""display: flex; justify-content: center; align-items: center;"">
      <img src=""images/red_deck_2.png"" style=""width: 300px; height: 300px; margin-right: 10px;"" />
      <img src=""images/blue_deck_1.png"" style=""width: 300px; height: 300px;"" />
    </div>","0","0"
"","","","","","html-keyboard-response","97","286639","0.0-67.0-0.0-0.0","A313F7F1F81B414BB97BDF6462656DF0","faa87f88-7815-4bfb-a361-511f8afff2cb","23db58b9-63b0-4bce-8714-07ce439e665e","","null","<div style=""display: flex; justify-content: center; align-items: center;"">
                <img src=""images/causal/causal_series_17/causal_series_17_b.jpg"" style=""width: 300px; height: 300px;"" />
              </div>","null",""
"","","","","","html-keyboard-response","98","289642","0.0-67.0-0.0-1.0","A313F7F1F81B414BB97BDF6462656DF0","faa87f88-7815-4bfb-a361-511f8afff2cb","23db58b9-63b0-4bce-8714-07ce439e665e","","null","<div style=""display: flex; justify-content: center; align-items: center;"">
                <img src=""images/causal/causal_series_17/causal_series_17_c.jpg"" style=""width: 300px; height: 300px;"" />
              </div>","null",""
"","","","","","html-keyboard-response","99","292645","0.0-67.0-0.0-2.0","A313F7F1F81B414BB97BDF6462656DF0","faa87f88-7815-4bfb-a361-511f8afff2cb","23db58b9-63b0-4bce-8714-07ce439e665e","","null","<div style=""display: flex; justify-content: center; align-items: center;"">
                <img src=""images/causal/causal_series_17/causal_series_17_d.jpg"" style=""width: 300px; height: 300px;"" />
              </div>","null",""
"","","","","","html-keyboard-response","100","295648","0.0-68.0","A313F7F1F81B414BB97BDF6462656DF0","faa87f88-7815-4bfb-a361-511f8afff2cb","23db58b9-63b0-4bce-8714-07ce439e665e","","null","<div style=""display: flex; justify-content: center; align-items: center;"">
                <img src=""images/other/blank.jpg"" style=""width: 300px; height: 300px;"" />
              </div>","null",""
"","","","","","html-keyboard-response","101","298650","0.0-69.0","A313F7F1F81B414BB97BDF6462656DF0","faa87f88-7815-4bfb-a361-511f8afff2cb","23db58b9-63b0-4bce-8714-07ce439e665e","","null","<div style=""display: flex; justify-content: center; align-items: center;"">
                <img src=""images/causal/causal_series_7/causal_series_7_a.jpg"" style=""width: 300px; height: 300px;"" />
              </div>","null",""
"","","","","","html-button-response","102","300885","0.0-70.0","A313F7F1F81B414BB97BDF6462656DF0","faa87f88-7815-4bfb-a361-511f8afff2cb","23db58b9-63b0-4bce-8714-07ce439e665e","","2234","
    <div style=""display: flex; justify-content: center; align-items: center;"">
      <img src=""images/red_deck_2.png"" style=""width: 300px; height: 300px; margin-right: 10px;"" />
      <img src=""images/blue_deck_1.png"" style=""width: 300px; height: 300px;"" />
    </div>","0","0"
"","","","","","html-keyboard-response","103","303888","0.0-71.0-0.0-0.0","A313F7F1F81B414BB97BDF6462656DF0","faa87f88-7815-4bfb-a361-511f8afff2cb","23db58b9-63b0-4bce-8714-07ce439e665e","","null","<div style=""display: flex; justify-content: center; align-items: center;"">
                <img src=""images/causal/causal_series_7/causal_series_7_b.jpg"" style=""width: 300px; height: 300px;"" />
              </div>","null",""
"","","","","","html-keyboard-response","104","306891","0.0-71.0-0.0-1.0","A313F7F1F81B414BB97BDF6462656DF0","faa87f88-7815-4bfb-a361-511f8afff2cb","23db58b9-63b0-4bce-8714-07ce439e665e","","null","<div style=""display: flex; justify-content: center; align-items: center;"">
                <img src=""images/causal/causal_series_7/causal_series_7_c.jpg"" style=""width: 300px; height: 300px;"" />
              </div>","null",""
"","","","","","html-keyboard-response","105","309894","0.0-71.0-0.0-2.0","A313F7F1F81B414BB97BDF6462656DF0","faa87f88-7815-4bfb-a361-511f8afff2cb","23db58b9-63b0-4bce-8714-07ce439e665e","","null","<div style=""display: flex; justify-content: center; align-items: center;"">
                <img src=""images/causal/causal_series_7/causal_series_7_d.jpg"" style=""width: 300px; height: 300px;"" />
              </div>","null",""
"","","","","","html-keyboard-response","106","312896","0.0-72.0","A313F7F1F81B414BB97BDF6462656DF0","faa87f88-7815-4bfb-a361-511f8afff2cb","23db58b9-63b0-4bce-8714-07ce439e665e","","null","<div style=""display: flex; justify-content: center; align-items: center;"">
                <img src=""images/other/blank.jpg"" style=""width: 300px; height: 300px;"" />
              </div>","null",""
"","","","","","html-keyboard-response","107","315899","0.0-73.0","A313F7F1F81B414BB97BDF6462656DF0","faa87f88-7815-4bfb-a361-511f8afff2cb","23db58b9-63b0-4bce-8714-07ce439e665e","","null","<div style=""display: flex; justify-content: center; align-items: center;"">
                <img src=""images/causal/causal_series_9/causal_series_9_a.jpg"" style=""width: 300px; height: 300px;"" />
              </div>","null",""
"","","","","","html-button-response","108","318718","0.0-74.0","A313F7F1F81B414BB97BDF6462656DF0","faa87f88-7815-4bfb-a361-511f8afff2cb","23db58b9-63b0-4bce-8714-07ce439e665e","","2818","
    <div style=""display: flex; justify-content: center; align-items: center;"">
      <img src=""images/red_deck_2.png"" style=""width: 300px; height: 300px; margin-right: 10px;"" />
      <img src=""images/blue_deck_1.png"" style=""width: 300px; height: 300px;"" />
    </div>","1","1"
"","","","","","html-keyboard-response","109","321721","0.0-75.0-1.0-0.0","A313F7F1F81B414BB97BDF6462656DF0","faa87f88-7815-4bfb-a361-511f8afff2cb","23db58b9-63b0-4bce-8714-07ce439e665e","","null","<div style=""display: flex; justify-content: center; align-items: center;"">
                <img src=""images/semantic/semantic_series_6/semantic_series_6_d.jpg"" style=""width: 300px; height: 300px;"" />
              </div>","null",""
"","","","","","html-keyboard-response","110","324724","0.0-75.0-1.0-1.0","A313F7F1F81B414BB97BDF6462656DF0","faa87f88-7815-4bfb-a361-511f8afff2cb","23db58b9-63b0-4bce-8714-07ce439e665e","","null","<div style=""display: flex; justify-content: center; align-items: center;"">
                <img src=""images/semantic/semantic_series_7/semantic_series_7_d.jpg"" style=""width: 300px; height: 300px;"" />
              </div>","null",""
"","","","","","html-keyboard-response","111","327727","0.0-75.0-1.0-2.0","A313F7F1F81B414BB97BDF6462656DF0","faa87f88-7815-4bfb-a361-511f8afff2cb","23db58b9-63b0-4bce-8714-07ce439e665e","","null","<div style=""display: flex; justify-content: center; align-items: center;"">
                <img src=""images/semantic/semantic_series_8/semantic_series_8_d.jpg"" style=""width: 300px; height: 300px;"" />
              </div>","null",""
"","","","","","html-keyboard-response","112","330730","0.0-76.0","A313F7F1F81B414BB97BDF6462656DF0","faa87f88-7815-4bfb-a361-511f8afff2cb","23db58b9-63b0-4bce-8714-07ce439e665e","","null","<div style=""display: flex; justify-content: center; align-items: center;"">
                <img src=""images/other/blank.jpg"" style=""width: 300px; height: 300px;"" />
              </div>","null",""
"","","","","","survey-text","113","339669","0.0-77.0","A313F7F1F81B414BB97BDF6462656DF0","faa87f88-7815-4bfb-a361-511f8afff2cb","23db58b9-63b0-4bce-8714-07ce439e665e","","8935","","{""Q0"":""The blue ones had cats""}",""
"","","","","","survey-text","114","343604","0.0-78.0","A313F7F1F81B414BB97BDF6462656DF0","faa87f88-7815-4bfb-a361-511f8afff2cb","23db58b9-63b0-4bce-8714-07ce439e665e","","3933","","{""Q0"":""Blue""}",""
"","","","","","html-button-response","115","347186","0.0-79.0","A313F7F1F81B414BB97BDF6462656DF0","faa87f88-7815-4bfb-a361-511f8afff2cb","23db58b9-63b0-4bce-8714-07ce439e665e","","3581","Which color deck does the fourth image continue the story from the series?","1",""
"","","","","","html-button-response","116","351472","0.0-80.0","A313F7F1F81B414BB97BDF6462656DF0","faa87f88-7815-4bfb-a361-511f8afff2cb","23db58b9-63b0-4bce-8714-07ce439e665e","","4285","Which color deck does the fourth image not follow the story from the series?","1",""
"","","","","","survey-text","117","356925","0.0-81.0","A313F7F1F81B414BB97BDF6462656DF0","faa87f88-7815-4bfb-a361-511f8afff2cb","23db58b9-63b0-4bce-8714-07ce439e665e","","5450","","{""Q0"":""FEMALE"",""Q1"":""30""}",""
"","","","","","instructions","118","359936","0.0-82.0","A313F7F1F81B414BB97BDF6462656DF0","faa87f88-7815-4bfb-a361-511f8afff2cb","23db58b9-63b0-4bce-8714-07ce439e665e","[{""page_index"":0,""viewing_time"":3010}]","3011","","",""
