"success","timeout","failed_images","failed_audio","failed_video","trial_type","trial_index","time_elapsed","internal_node_id","subject_id","study_id","session_id","view_history","rt","stimulus","response","choice"
"true","false","[]","[]","[]","preload","0","8031","0.0-0.0","0D75B21EA67942B988D80423F896CC2A","3344892e-592d-458c-be09-9aa6bf2ce496","61e1ec61-13c7-4a8f-bf47-a91ec9909364","","","","",""
"","","","","","instructions","1","14636","0.0-1.0","0D75B21EA67942B988D80423F896CC2A","3344892e-592d-458c-be09-9aa6bf2ce496","61e1ec61-13c7-4a8f-bf47-a91ec9909364","[{""page_index"":0,""viewing_time"":6604}]","6604","","",""
"","","","","","instructions","2","17494","0.0-2.0","0D75B21EA67942B988D80423F896CC2A","3344892e-592d-458c-be09-9aa6bf2ce496","61e1ec61-13c7-4a8f-bf47-a91ec9909364","[{""page_index"":0,""viewing_time"":2857}]","2857","","",""
"true","","","","","fullscreen","3","20078","0.0-3.0","0D75B21EA67942B988D80423F896CC2A","3344892e-592d-458c-be09-9aa6bf2ce496","61e1ec61-13c7-4a8f-bf47-a91ec9909364","","1572","","",""
"","","","","","instructions","4","27464","0.0-4.0","0D75B21EA67942B988D80423F896CC2A","3344892e-592d-458c-be09-9aa6bf2ce496","61e1ec61-13c7-4a8f-bf47-a91ec9909364","[{""page_index"":0,""viewing_time"":7385}]","7386","","",""
"","","","","","html-keyboard-response","5","30469","0.0-5.0","0D75B21EA67942B988D80423F896CC2A","3344892e-592d-458c-be09-9aa6bf2ce496","61e1ec61-13c7-4a8f-bf47-a91ec9909364","","null","<div style=""display: flex; justify-content: center; align-items: center;"">
                <img src=""images/causal/causal_series_9/causal_series_9_a.jpg"" style=""width: 300px; height: 300px;"" />
              </div>","null",""
"","","","","","html-keyboard-response","6","33477","0.0-6.0","0D75B21EA67942B988D80423F896CC2A","3344892e-592d-458c-be09-9aa6bf2ce496","61e1ec61-13c7-4a8f-bf47-a91ec9909364","","null","<div style=""display: flex; justify-content: center; align-items: center;"">
                <img src=""images/causal/causal_series_9/causal_series_9_b.jpg"" style=""width: 300px; height: 300px;"" />
              </div>","null",""
"","","","","","html-keyboard-response","7","36481","0.0-7.0","0D75B21EA67942B988D80423F896CC2A","3344892e-592d-458c-be09-9aa6bf2ce496","61e1ec61-13c7-4a8f-bf47-a91ec9909364","","null","<div style=""display: flex; justify-content: center; align-items: center;"">
                <img src=""images/causal/causal_series_9/causal_series_9_c.jpg"" style=""width: 300px; height: 300px;"" />
              </div>","null",""
"","","","","","html-button-response","8","54865","0.0-8.0","0D75B21EA67942B988D80423F896CC2A","3344892e-592d-458c-be09-9aa6bf2ce496","61e1ec61-13c7-4a8f-bf47-a91ec9909364","","18382","
    <div style=""display: flex; justify-content: center; align-items: center;"">
      <img src=""images/red_deck_2.png"" style=""width: 300px; height: 300px; margin-right: 10px;"" />
      <img src=""images/blue_deck_1.png"" style=""width: 300px; height: 300px;"" />
    </div>","0","0"
"","","","","","html-keyboard-response","9","57866","0.0-9.0-0.0-0.0","0D75B21EA67942B988D80423F896CC2A","3344892e-592d-458c-be09-9aa6bf2ce496","61e1ec61-13c7-4a8f-bf47-a91ec9909364","","null","<div style=""display: flex; justify-content: center; align-items: center;"">
                <img src=""images/causal/causal_series_9/causal_series_9_d.jpg"" style=""width: 300px; height: 300px;"" />
              </div>","null",""
"","","","","","html-keyboard-response","10","60869","0.0-10.0","0D75B21EA67942B988D80423F896CC2A","3344892e-592d-458c-be09-9aa6bf2ce496","61e1ec61-13c7-4a8f-bf47-a91ec9909364","","null","<div style=""display: flex; justify-content: center; align-items: center;"">
                <img src=""images/other/blank.jpg"" style=""width: 300px; height: 300px;"" />
              </div>","null",""
"","","","","","html-keyboard-response","11","63872","0.0-11.0","0D75B21EA67942B988D80423F896CC2A","3344892e-592d-458c-be09-9aa6bf2ce496","61e1ec61-13c7-4a8f-bf47-a91ec9909364","","null","<div style=""display: flex; justify-content: center; align-items: center;"">
                <img src=""images/causal/causal_series_17/causal_series_17_a.jpg"" style=""width: 300px; height: 300px;"" />
              </div>","null",""
"","","","","","html-keyboard-response","12","66877","0.0-12.0","0D75B21EA67942B988D80423F896CC2A","3344892e-592d-458c-be09-9aa6bf2ce496","61e1ec61-13c7-4a8f-bf47-a91ec9909364","","null","<div style=""display: flex; justify-content: center; align-items: center;"">
                <img src=""images/causal/causal_series_17/causal_series_17_b.jpg"" style=""width: 300px; height: 300px;"" />
              </div>","null",""
"","","","","","html-keyboard-response","13","69885","0.0-13.0","0D75B21EA67942B988D80423F896CC2A","3344892e-592d-458c-be09-9aa6bf2ce496","61e1ec61-13c7-4a8f-bf47-a91ec9909364","","null","<div style=""display: flex; justify-content: center; align-items: center;"">
                <img src=""images/causal/causal_series_17/causal_series_17_c.jpg"" style=""width: 300px; height: 300px;"" />
              </div>","null",""
"","","","","","html-button-response","14","71983","0.0-14.0","0D75B21EA67942B988D80423F896CC2A","3344892e-592d-458c-be09-9aa6bf2ce496","61e1ec61-13c7-4a8f-bf47-a91ec9909364","","2097","
    <div style=""display: flex; justify-content: center; align-items: center;"">
      <img src=""images/red_deck_2.png"" style=""width: 300px; height: 300px; margin-right: 10px;"" />
      <img src=""images/blue_deck_1.png"" style=""width: 300px; height: 300px;"" />
    </div>","1","1"
"","","","","","html-keyboard-response","15","74997","0.0-15.0-1.0-0.0","0D75B21EA67942B988D80423F896CC2A","3344892e-592d-458c-be09-9aa6bf2ce496","61e1ec61-13c7-4a8f-bf47-a91ec9909364","","null","<div style=""display: flex; justify-content: center; align-items: center;"">
                <img src=""images/semantic/semantic_series_16/semantic_series_16_d.jpg"" style=""width: 300px; height: 300px;"" />
              </div>","null",""
"","","","","","html-keyboard-response","16","78004","0.0-16.0","0D75B21EA67942B988D80423F896CC2A","3344892e-592d-458c-be09-9aa6bf2ce496","61e1ec61-13c7-4a8f-bf47-a91ec9909364","","null","<div style=""display: flex; justify-content: center; align-items: center;"">
                <img src=""images/other/blank.jpg"" style=""width: 300px; height: 300px;"" />
              </div>","null",""
"","","","","","html-keyboard-response","17","81019","0.0-17.0","0D75B21EA67942B988D80423F896CC2A","3344892e-592d-458c-be09-9aa6bf2ce496","61e1ec61-13c7-4a8f-bf47-a91ec9909364","","null","<div style=""display: flex; justify-content: center; align-items: center;"">
                <img src=""images/causal/causal_series_1/causal_series_1_a.jpg"" style=""width: 300px; height: 300px;"" />
              </div>","null",""
"","","","","","html-keyboard-response","18","84035","0.0-18.0","0D75B21EA67942B988D80423F896CC2A","3344892e-592d-458c-be09-9aa6bf2ce496","61e1ec61-13c7-4a8f-bf47-a91ec9909364","","null","<div style=""display: flex; justify-content: center; align-items: center;"">
                <img src=""images/causal/causal_series_1/causal_series_1_b.jpg"" style=""width: 300px; height: 300px;"" />
              </div>","null",""
"","","","","","html-keyboard-response","19","87043","0.0-19.0","0D75B21EA67942B988D80423F896CC2A","3344892e-592d-458c-be09-9aa6bf2ce496","61e1ec61-13c7-4a8f-bf47-a91ec9909364","","null","<div style=""display: flex; justify-content: center; align-items: center;"">
                <img src=""images/causal/causal_series_1/causal_series_1_c.jpg"" style=""width: 300px; height: 300px;"" />
              </div>","null",""
"","","","","","html-button-response","20","88475","0.0-20.0","0D75B21EA67942B988D80423F896CC2A","3344892e-592d-458c-be09-9aa6bf2ce496","61e1ec61-13c7-4a8f-bf47-a91ec9909364","","1431","
    <div style=""display: flex; justify-content: center; align-items: center;"">
      <img src=""images/red_deck_2.png"" style=""width: 300px; height: 300px; margin-right: 10px;"" />
      <img src=""images/blue_deck_1.png"" style=""width: 300px; height: 300px;"" />
    </div>","0","0"
"","","","","","html-keyboard-response","21","91479","0.0-21.0-0.0-0.0","0D75B21EA67942B988D80423F896CC2A","3344892e-592d-458c-be09-9aa6bf2ce496","61e1ec61-13c7-4a8f-bf47-a91ec9909364","","null","<div style=""display: flex; justify-content: center; align-items: center;"">
                <img src=""images/causal/causal_series_1/causal_series_1_d.jpg"" style=""width: 300px; height: 300px;"" />
              </div>","null",""
"","","","","","html-keyboard-response","22","94481","0.0-22.0","0D75B21EA67942B988D80423F896CC2A","3344892e-592d-458c-be09-9aa6bf2ce496","61e1ec61-13c7-4a8f-bf47-a91ec9909364","","null","<div style=""display: flex; justify-content: center; align-items: center;"">
                <img src=""images/other/blank.jpg"" style=""width: 300px; height: 300px;"" />
              </div>","null",""
"","","","","","html-keyboard-response","23","97485","0.0-23.0","0D75B21EA67942B988D80423F896CC2A","3344892e-592d-458c-be09-9aa6bf2ce496","61e1ec61-13c7-4a8f-bf47-a91ec9909364","","null","<div style=""display: flex; justify-content: center; align-items: center;"">
                <img src=""images/causal/causal_series_12/causal_series_12_a.jpg"" style=""width: 300px; height: 300px;"" />
              </div>","null",""
"","","","","","html-keyboard-response","24","100488","0.0-24.0","0D75B21EA67942B988D80423F896CC2A","3344892e-592d-458c-be09-9aa6bf2ce496","61e1ec61-13c7-4a8f-bf47-a91ec9909364","","null","<div style=""display: flex; justify-content: center; align-items: center;"">
                <img src=""images/causal/causal_series_12/causal_series_12_b.jpg"" style=""width: 300px; height: 300px;"" />
              </div>","null",""
"","","","","","html-keyboard-response","25","103493","0.0-25.0","0D75B21EA67942B988D80423F896CC2A","3344892e-592d-458c-be09-9aa6bf2ce496","61e1ec61-13c7-4a8f-bf47-a91ec9909364","","null","<div style=""display: flex; justify-content: center; align-items: center;"">
                <img src=""images/causal/causal_series_12/causal_series_12_c.jpg"" style=""width: 300px; height: 300px;"" />
              </div>","null",""
"","","","","","html-button-response","26","120519","0.0-26.0","0D75B21EA67942B988D80423F896CC2A","3344892e-592d-458c-be09-9aa6bf2ce496","61e1ec61-13c7-4a8f-bf47-a91ec9909364","","17025","
    <div style=""display: flex; justify-content: center; align-items: center;"">
      <img src=""images/red_deck_2.png"" style=""width: 300px; height: 300px; margin-right: 10px;"" />
      <img src=""images/blue_deck_1.png"" style=""width: 300px; height: 300px;"" />
    </div>","0","0"
"","","","","","html-keyboard-response","27","123533","0.0-27.0-0.0-0.0","0D75B21EA67942B988D80423F896CC2A","3344892e-592d-458c-be09-9aa6bf2ce496","61e1ec61-13c7-4a8f-bf47-a91ec9909364","","null","<div style=""display: flex; justify-content: center; align-items: center;"">
                <img src=""images/causal/causal_series_12/causal_series_12_d.jpg"" style=""width: 300px; height: 300px;"" />
              </div>","null",""
"","","","","","html-keyboard-response","28","126544","0.0-28.0","0D75B21EA67942B988D80423F896CC2A","3344892e-592d-458c-be09-9aa6bf2ce496","61e1ec61-13c7-4a8f-bf47-a91ec9909364","","null","<div style=""display: flex; justify-content: center; align-items: center;"">
                <img src=""images/other/blank.jpg"" style=""width: 300px; height: 300px;"" />
              </div>","null",""
"","","","","","html-keyboard-response","29","129556","0.0-29.0","0D75B21EA67942B988D80423F896CC2A","3344892e-592d-458c-be09-9aa6bf2ce496","61e1ec61-13c7-4a8f-bf47-a91ec9909364","","null","<div style=""display: flex; justify-content: center; align-items: center;"">
                <img src=""images/causal/causal_series_18/causal_series_18_a.jpg"" style=""width: 300px; height: 300px;"" />
              </div>","null",""
"","","","","","html-keyboard-response","30","132560","0.0-30.0","0D75B21EA67942B988D80423F896CC2A","3344892e-592d-458c-be09-9aa6bf2ce496","61e1ec61-13c7-4a8f-bf47-a91ec9909364","","null","<div style=""display: flex; justify-content: center; align-items: center;"">
                <img src=""images/causal/causal_series_18/causal_series_18_b.jpg"" style=""width: 300px; height: 300px;"" />
              </div>","null",""
"","","","","","html-keyboard-response","31","135571","0.0-31.0","0D75B21EA67942B988D80423F896CC2A","3344892e-592d-458c-be09-9aa6bf2ce496","61e1ec61-13c7-4a8f-bf47-a91ec9909364","","null","<div style=""display: flex; justify-content: center; align-items: center;"">
                <img src=""images/causal/causal_series_18/causal_series_18_c.jpg"" style=""width: 300px; height: 300px;"" />
              </div>","null",""
"","","","","","html-button-response","32","137578","0.0-32.0","0D75B21EA67942B988D80423F896CC2A","3344892e-592d-458c-be09-9aa6bf2ce496","61e1ec61-13c7-4a8f-bf47-a91ec9909364","","2007","
    <div style=""display: flex; justify-content: center; align-items: center;"">
      <img src=""images/red_deck_2.png"" style=""width: 300px; height: 300px; margin-right: 10px;"" />
      <img src=""images/blue_deck_1.png"" style=""width: 300px; height: 300px;"" />
    </div>","1","1"
"","","","","","html-keyboard-response","33","140592","0.0-33.0-1.0-0.0","0D75B21EA67942B988D80423F896CC2A","3344892e-592d-458c-be09-9aa6bf2ce496","61e1ec61-13c7-4a8f-bf47-a91ec9909364","","null","<div style=""display: flex; justify-content: center; align-items: center;"">
                <img src=""images/semantic/semantic_series_17/semantic_series_17_d.jpg"" style=""width: 300px; height: 300px;"" />
              </div>","null",""
"","","","","","html-keyboard-response","34","143605","0.0-34.0","0D75B21EA67942B988D80423F896CC2A","3344892e-592d-458c-be09-9aa6bf2ce496","61e1ec61-13c7-4a8f-bf47-a91ec9909364","","null","<div style=""display: flex; justify-content: center; align-items: center;"">
                <img src=""images/other/blank.jpg"" style=""width: 300px; height: 300px;"" />
              </div>","null",""
"","","","","","html-keyboard-response","35","146607","0.0-35.0","0D75B21EA67942B988D80423F896CC2A","3344892e-592d-458c-be09-9aa6bf2ce496","61e1ec61-13c7-4a8f-bf47-a91ec9909364","","null","<div style=""display: flex; justify-content: center; align-items: center;"">
                <img src=""images/causal/causal_series_15/causal_series_15_a.jpg"" style=""width: 300px; height: 300px;"" />
              </div>","null",""
"","","","","","html-keyboard-response","36","149618","0.0-36.0","0D75B21EA67942B988D80423F896CC2A","3344892e-592d-458c-be09-9aa6bf2ce496","61e1ec61-13c7-4a8f-bf47-a91ec9909364","","null","<div style=""display: flex; justify-content: center; align-items: center;"">
                <img src=""images/causal/causal_series_15/causal_series_15_b.jpg"" style=""width: 300px; height: 300px;"" />
              </div>","null",""
"","","","","","html-keyboard-response","37","152633","0.0-37.0","0D75B21EA67942B988D80423F896CC2A","3344892e-592d-458c-be09-9aa6bf2ce496","61e1ec61-13c7-4a8f-bf47-a91ec9909364","","null","<div style=""display: flex; justify-content: center; align-items: center;"">
                <img src=""images/causal/causal_series_15/causal_series_15_c.jpg"" style=""width: 300px; height: 300px;"" />
              </div>","null",""
"","","","","","html-button-response","38","154530","0.0-38.0","0D75B21EA67942B988D80423F896CC2A","3344892e-592d-458c-be09-9aa6bf2ce496","61e1ec61-13c7-4a8f-bf47-a91ec9909364","","1896","
    <div style=""display: flex; justify-content: center; align-items: center;"">
      <img src=""images/red_deck_2.png"" style=""width: 300px; height: 300px; margin-right: 10px;"" />
      <img src=""images/blue_deck_1.png"" style=""width: 300px; height: 300px;"" />
    </div>","1","1"
"","","","","","html-keyboard-response","39","157539","0.0-39.0-1.0-0.0","0D75B21EA67942B988D80423F896CC2A","3344892e-592d-458c-be09-9aa6bf2ce496","61e1ec61-13c7-4a8f-bf47-a91ec9909364","","null","<div style=""display: flex; justify-content: center; align-items: center;"">
                <img src=""images/semantic/semantic_series_14/semantic_series_14_d.jpg"" style=""width: 300px; height: 300px;"" />
              </div>","null",""
"","","","","","html-keyboard-response","40","160543","0.0-40.0","0D75B21EA67942B988D80423F896CC2A","3344892e-592d-458c-be09-9aa6bf2ce496","61e1ec61-13c7-4a8f-bf47-a91ec9909364","","null","<div style=""display: flex; justify-content: center; align-items: center;"">
                <img src=""images/other/blank.jpg"" style=""width: 300px; height: 300px;"" />
              </div>","null",""
"","","","","","html-keyboard-response","41","163553","0.0-41.0","0D75B21EA67942B988D80423F896CC2A","3344892e-592d-458c-be09-9aa6bf2ce496","61e1ec61-13c7-4a8f-bf47-a91ec9909364","","null","<div style=""display: flex; justify-content: center; align-items: center;"">
                <img src=""images/causal/causal_series_4/causal_series_4_a.jpg"" style=""width: 300px; height: 300px;"" />
              </div>","null",""
"","","","","","html-keyboard-response","42","166562","0.0-42.0","0D75B21EA67942B988D80423F896CC2A","3344892e-592d-458c-be09-9aa6bf2ce496","61e1ec61-13c7-4a8f-bf47-a91ec9909364","","null","<div style=""display: flex; justify-content: center; align-items: center;"">
                <img src=""images/causal/causal_series_4/causal_series_4_b.jpg"" style=""width: 300px; height: 300px;"" />
              </div>","null",""
"","","","","","html-keyboard-response","43","169570","0.0-43.0","0D75B21EA67942B988D80423F896CC2A","3344892e-592d-458c-be09-9aa6bf2ce496","61e1ec61-13c7-4a8f-bf47-a91ec9909364","","null","<div style=""display: flex; justify-content: center; align-items: center;"">
                <img src=""images/causal/causal_series_4/causal_series_4_c.jpg"" style=""width: 300px; height: 300px;"" />
              </div>","null",""
"","","","","","html-button-response","44","171460","0.0-44.0","0D75B21EA67942B988D80423F896CC2A","3344892e-592d-458c-be09-9aa6bf2ce496","61e1ec61-13c7-4a8f-bf47-a91ec9909364","","1890","
    <div style=""display: flex; justify-content: center; align-items: center;"">
      <img src=""images/red_deck_2.png"" style=""width: 300px; height: 300px; margin-right: 10px;"" />
      <img src=""images/blue_deck_1.png"" style=""width: 300px; height: 300px;"" />
    </div>","0","0"
"","","","","","html-keyboard-response","45","174470","0.0-45.0-0.0-0.0","0D75B21EA67942B988D80423F896CC2A","3344892e-592d-458c-be09-9aa6bf2ce496","61e1ec61-13c7-4a8f-bf47-a91ec9909364","","null","<div style=""display: flex; justify-content: center; align-items: center;"">
                <img src=""images/causal/causal_series_4/causal_series_4_d.jpg"" style=""width: 300px; height: 300px;"" />
              </div>","null",""
"","","","","","html-keyboard-response","46","177477","0.0-46.0","0D75B21EA67942B988D80423F896CC2A","3344892e-592d-458c-be09-9aa6bf2ce496","61e1ec61-13c7-4a8f-bf47-a91ec9909364","","null","<div style=""display: flex; justify-content: center; align-items: center;"">
                <img src=""images/other/blank.jpg"" style=""width: 300px; height: 300px;"" />
              </div>","null",""
"","","","","","html-keyboard-response","47","180484","0.0-47.0","0D75B21EA67942B988D80423F896CC2A","3344892e-592d-458c-be09-9aa6bf2ce496","61e1ec61-13c7-4a8f-bf47-a91ec9909364","","null","<div style=""display: flex; justify-content: center; align-items: center;"">
                <img src=""images/causal/causal_series_10/causal_series_10_a.jpg"" style=""width: 300px; height: 300px;"" />
              </div>","null",""
"","","","","","html-keyboard-response","48","183486","0.0-48.0","0D75B21EA67942B988D80423F896CC2A","3344892e-592d-458c-be09-9aa6bf2ce496","61e1ec61-13c7-4a8f-bf47-a91ec9909364","","null","<div style=""display: flex; justify-content: center; align-items: center;"">
                <img src=""images/causal/causal_series_10/causal_series_10_b.jpg"" style=""width: 300px; height: 300px;"" />
              </div>","null",""
"","","","","","html-keyboard-response","49","186501","0.0-49.0","0D75B21EA67942B988D80423F896CC2A","3344892e-592d-458c-be09-9aa6bf2ce496","61e1ec61-13c7-4a8f-bf47-a91ec9909364","","null","<div style=""display: flex; justify-content: center; align-items: center;"">
                <img src=""images/causal/causal_series_10/causal_series_10_c.jpg"" style=""width: 300px; height: 300px;"" />
              </div>","null",""
"","","","","","html-button-response","50","190983","0.0-50.0","0D75B21EA67942B988D80423F896CC2A","3344892e-592d-458c-be09-9aa6bf2ce496","61e1ec61-13c7-4a8f-bf47-a91ec9909364","","4481","
    <div style=""display: flex; justify-content: center; align-items: center;"">
      <img src=""images/red_deck_2.png"" style=""width: 300px; height: 300px; margin-right: 10px;"" />
      <img src=""images/blue_deck_1.png"" style=""width: 300px; height: 300px;"" />
    </div>","0","0"
"","","","","","html-keyboard-response","51","193991","0.0-51.0-0.0-0.0","0D75B21EA67942B988D80423F896CC2A","3344892e-592d-458c-be09-9aa6bf2ce496","61e1ec61-13c7-4a8f-bf47-a91ec9909364","","null","<div style=""display: flex; justify-content: center; align-items: center;"">
                <img src=""images/causal/causal_series_10/causal_series_10_d.jpg"" style=""width: 300px; height: 300px;"" />
              </div>","null",""
"","","","","","html-keyboard-response","52","197003","0.0-52.0","0D75B21EA67942B988D80423F896CC2A","3344892e-592d-458c-be09-9aa6bf2ce496","61e1ec61-13c7-4a8f-bf47-a91ec9909364","","null","<div style=""display: flex; justify-content: center; align-items: center;"">
                <img src=""images/other/blank.jpg"" style=""width: 300px; height: 300px;"" />
              </div>","null",""
"","","","","","html-keyboard-response","53","200006","0.0-53.0","0D75B21EA67942B988D80423F896CC2A","3344892e-592d-458c-be09-9aa6bf2ce496","61e1ec61-13c7-4a8f-bf47-a91ec9909364","","null","<div style=""display: flex; justify-content: center; align-items: center;"">
                <img src=""images/causal/causal_series_13/causal_series_13_a.jpg"" style=""width: 300px; height: 300px;"" />
              </div>","null",""
"","","","","","html-keyboard-response","54","203008","0.0-54.0","0D75B21EA67942B988D80423F896CC2A","3344892e-592d-458c-be09-9aa6bf2ce496","61e1ec61-13c7-4a8f-bf47-a91ec9909364","","null","<div style=""display: flex; justify-content: center; align-items: center;"">
                <img src=""images/causal/causal_series_13/causal_series_13_b.jpg"" style=""width: 300px; height: 300px;"" />
              </div>","null",""
"","","","","","html-keyboard-response","55","206009","0.0-55.0","0D75B21EA67942B988D80423F896CC2A","3344892e-592d-458c-be09-9aa6bf2ce496","61e1ec61-13c7-4a8f-bf47-a91ec9909364","","null","<div style=""display: flex; justify-content: center; align-items: center;"">
                <img src=""images/causal/causal_series_13/causal_series_13_c.jpg"" style=""width: 300px; height: 300px;"" />
              </div>","null",""
"","","","","","html-button-response","56","207354","0.0-56.0","0D75B21EA67942B988D80423F896CC2A","3344892e-592d-458c-be09-9aa6bf2ce496","61e1ec61-13c7-4a8f-bf47-a91ec9909364","","1345","
    <div style=""display: flex; justify-content: center; align-items: center;"">
      <img src=""images/red_deck_2.png"" style=""width: 300px; height: 300px; margin-right: 10px;"" />
      <img src=""images/blue_deck_1.png"" style=""width: 300px; height: 300px;"" />
    </div>","1","1"
"","","","","","html-keyboard-response","57","210369","0.0-57.0-1.0-0.0","0D75B21EA67942B988D80423F896CC2A","3344892e-592d-458c-be09-9aa6bf2ce496","61e1ec61-13c7-4a8f-bf47-a91ec9909364","","null","<div style=""display: flex; justify-content: center; align-items: center;"">
                <img src=""images/semantic/semantic_series_12/semantic_series_12_d.jpg"" style=""width: 300px; height: 300px;"" />
              </div>","null",""
"","","","","","html-keyboard-response","58","213381","0.0-58.0","0D75B21EA67942B988D80423F896CC2A","3344892e-592d-458c-be09-9aa6bf2ce496","61e1ec61-13c7-4a8f-bf47-a91ec9909364","","null","<div style=""display: flex; justify-content: center; align-items: center;"">
                <img src=""images/other/blank.jpg"" style=""width: 300px; height: 300px;"" />
              </div>","null",""
"","","","","","html-keyboard-response","59","216384","0.0-59.0","0D75B21EA67942B988D80423F896CC2A","3344892e-592d-458c-be09-9aa6bf2ce496","61e1ec61-13c7-4a8f-bf47-a91ec9909364","","null","<div style=""display: flex; justify-content: center; align-items: center;"">
                <img src=""images/causal/causal_series_7/causal_series_7_a.jpg"" style=""width: 300px; height: 300px;"" />
              </div>","null",""
"","","","","","html-keyboard-response","60","219400","0.0-60.0","0D75B21EA67942B988D80423F896CC2A","3344892e-592d-458c-be09-9aa6bf2ce496","61e1ec61-13c7-4a8f-bf47-a91ec9909364","","null","<div style=""display: flex; justify-content: center; align-items: center;"">
                <img src=""images/causal/causal_series_7/causal_series_7_b.jpg"" style=""width: 300px; height: 300px;"" />
              </div>","null",""
"","","","","","html-keyboard-response","61","222404","0.0-61.0","0D75B21EA67942B988D80423F896CC2A","3344892e-592d-458c-be09-9aa6bf2ce496","61e1ec61-13c7-4a8f-bf47-a91ec9909364","","null","<div style=""display: flex; justify-content: center; align-items: center;"">
                <img src=""images/causal/causal_series_7/causal_series_7_c.jpg"" style=""width: 300px; height: 300px;"" />
              </div>","null",""
"","","","","","html-button-response","62","223761","0.0-62.0","0D75B21EA67942B988D80423F896CC2A","3344892e-592d-458c-be09-9aa6bf2ce496","61e1ec61-13c7-4a8f-bf47-a91ec9909364","","1356","
    <div style=""display: flex; justify-content: center; align-items: center;"">
      <img src=""images/red_deck_2.png"" style=""width: 300px; height: 300px; margin-right: 10px;"" />
      <img src=""images/blue_deck_1.png"" style=""width: 300px; height: 300px;"" />
    </div>","0","0"
"","","","","","html-keyboard-response","63","226772","0.0-63.0-0.0-0.0","0D75B21EA67942B988D80423F896CC2A","3344892e-592d-458c-be09-9aa6bf2ce496","61e1ec61-13c7-4a8f-bf47-a91ec9909364","","null","<div style=""display: flex; justify-content: center; align-items: center;"">
                <img src=""images/causal/causal_series_7/causal_series_7_d.jpg"" style=""width: 300px; height: 300px;"" />
              </div>","null",""
"","","","","","html-keyboard-response","64","229776","0.0-64.0","0D75B21EA67942B988D80423F896CC2A","3344892e-592d-458c-be09-9aa6bf2ce496","61e1ec61-13c7-4a8f-bf47-a91ec9909364","","null","<div style=""display: flex; justify-content: center; align-items: center;"">
                <img src=""images/other/blank.jpg"" style=""width: 300px; height: 300px;"" />
              </div>","null",""
"","","","","","html-keyboard-response","65","232792","0.0-65.0","0D75B21EA67942B988D80423F896CC2A","3344892e-592d-458c-be09-9aa6bf2ce496","61e1ec61-13c7-4a8f-bf47-a91ec9909364","","null","<div style=""display: flex; justify-content: center; align-items: center;"">
                <img src=""images/causal/causal_series_6/causal_series_6_a.jpg"" style=""width: 300px; height: 300px;"" />
              </div>","null",""
"","","","","","html-keyboard-response","66","235799","0.0-66.0","0D75B21EA67942B988D80423F896CC2A","3344892e-592d-458c-be09-9aa6bf2ce496","61e1ec61-13c7-4a8f-bf47-a91ec9909364","","null","<div style=""display: flex; justify-content: center; align-items: center;"">
                <img src=""images/causal/causal_series_6/causal_series_6_b.jpg"" style=""width: 300px; height: 300px;"" />
              </div>","null",""
"","","","","","html-keyboard-response","67","238806","0.0-67.0","0D75B21EA67942B988D80423F896CC2A","3344892e-592d-458c-be09-9aa6bf2ce496","61e1ec61-13c7-4a8f-bf47-a91ec9909364","","null","<div style=""display: flex; justify-content: center; align-items: center;"">
                <img src=""images/causal/causal_series_6/causal_series_6_c.jpg"" style=""width: 300px; height: 300px;"" />
              </div>","null",""
"","","","","","html-button-response","68","240038","0.0-68.0","0D75B21EA67942B988D80423F896CC2A","3344892e-592d-458c-be09-9aa6bf2ce496","61e1ec61-13c7-4a8f-bf47-a91ec9909364","","1231","
    <div style=""display: flex; justify-content: center; align-items: center;"">
      <img src=""images/red_deck_2.png"" style=""width: 300px; height: 300px; margin-right: 10px;"" />
      <img src=""images/blue_deck_1.png"" style=""width: 300px; height: 300px;"" />
    </div>","0","0"
"","","","","","html-keyboard-response","69","243049","0.0-69.0-0.0-0.0","0D75B21EA67942B988D80423F896CC2A","3344892e-592d-458c-be09-9aa6bf2ce496","61e1ec61-13c7-4a8f-bf47-a91ec9909364","","null","<div style=""display: flex; justify-content: center; align-items: center;"">
                <img src=""images/causal/causal_series_6/causal_series_6_d.jpg"" style=""width: 300px; height: 300px;"" />
              </div>","null",""
"","","","","","html-keyboard-response","70","246057","0.0-70.0","0D75B21EA67942B988D80423F896CC2A","3344892e-592d-458c-be09-9aa6bf2ce496","61e1ec61-13c7-4a8f-bf47-a91ec9909364","","null","<div style=""display: flex; justify-content: center; align-items: center;"">
                <img src=""images/other/blank.jpg"" style=""width: 300px; height: 300px;"" />
              </div>","null",""
"","","","","","html-keyboard-response","71","249068","0.0-71.0","0D75B21EA67942B988D80423F896CC2A","3344892e-592d-458c-be09-9aa6bf2ce496","61e1ec61-13c7-4a8f-bf47-a91ec9909364","","null","<div style=""display: flex; justify-content: center; align-items: center;"">
                <img src=""images/causal/causal_series_2/causal_series_2_a.jpg"" style=""width: 300px; height: 300px;"" />
              </div>","null",""
"","","","","","html-keyboard-response","72","252073","0.0-72.0","0D75B21EA67942B988D80423F896CC2A","3344892e-592d-458c-be09-9aa6bf2ce496","61e1ec61-13c7-4a8f-bf47-a91ec9909364","","null","<div style=""display: flex; justify-content: center; align-items: center;"">
                <img src=""images/causal/causal_series_2/causal_series_2_b.jpg"" style=""width: 300px; height: 300px;"" />
              </div>","null",""
"","","","","","html-keyboard-response","73","255089","0.0-73.0","0D75B21EA67942B988D80423F896CC2A","3344892e-592d-458c-be09-9aa6bf2ce496","61e1ec61-13c7-4a8f-bf47-a91ec9909364","","null","<div style=""display: flex; justify-content: center; align-items: center;"">
                <img src=""images/causal/causal_series_2/causal_series_2_c.jpg"" style=""width: 300px; height: 300px;"" />
              </div>","null",""
"","","","","","html-button-response","74","269339","0.0-74.0","0D75B21EA67942B988D80423F896CC2A","3344892e-592d-458c-be09-9aa6bf2ce496","61e1ec61-13c7-4a8f-bf47-a91ec9909364","","14250","
    <div style=""display: flex; justify-content: center; align-items: center;"">
      <img src=""images/red_deck_2.png"" style=""width: 300px; height: 300px; margin-right: 10px;"" />
      <img src=""images/blue_deck_1.png"" style=""width: 300px; height: 300px;"" />
    </div>","0","0"
"","","","","","html-keyboard-response","75","272354","0.0-75.0-0.0-0.0","0D75B21EA67942B988D80423F896CC2A","3344892e-592d-458c-be09-9aa6bf2ce496","61e1ec61-13c7-4a8f-bf47-a91ec9909364","","null","<div style=""display: flex; justify-content: center; align-items: center;"">
                <img src=""images/causal/causal_series_2/causal_series_2_d.jpg"" style=""width: 300px; height: 300px;"" />
              </div>","null",""
"","","","","","html-keyboard-response","76","275361","0.0-76.0","0D75B21EA67942B988D80423F896CC2A","3344892e-592d-458c-be09-9aa6bf2ce496","61e1ec61-13c7-4a8f-bf47-a91ec9909364","","null","<div style=""display: flex; justify-content: center; align-items: center;"">
                <img src=""images/other/blank.jpg"" style=""width: 300px; height: 300px;"" />
              </div>","null",""
"","","","","","html-keyboard-response","77","278364","0.0-77.0","0D75B21EA67942B988D80423F896CC2A","3344892e-592d-458c-be09-9aa6bf2ce496","61e1ec61-13c7-4a8f-bf47-a91ec9909364","","null","<div style=""display: flex; justify-content: center; align-items: center;"">
                <img src=""images/causal/causal_series_16/causal_series_16_a.jpg"" style=""width: 300px; height: 300px;"" />
              </div>","null",""
"","","","","","html-keyboard-response","78","281365","0.0-78.0","0D75B21EA67942B988D80423F896CC2A","3344892e-592d-458c-be09-9aa6bf2ce496","61e1ec61-13c7-4a8f-bf47-a91ec9909364","","null","<div style=""display: flex; justify-content: center; align-items: center;"">
                <img src=""images/causal/causal_series_16/causal_series_16_b.jpg"" style=""width: 300px; height: 300px;"" />
              </div>","null",""
"","","","","","html-keyboard-response","79","284372","0.0-79.0","0D75B21EA67942B988D80423F896CC2A","3344892e-592d-458c-be09-9aa6bf2ce496","61e1ec61-13c7-4a8f-bf47-a91ec9909364","","null","<div style=""display: flex; justify-content: center; align-items: center;"">
                <img src=""images/causal/causal_series_16/causal_series_16_c.jpg"" style=""width: 300px; height: 300px;"" />
              </div>","null",""
"","","","","","html-button-response","80","285606","0.0-80.0","0D75B21EA67942B988D80423F896CC2A","3344892e-592d-458c-be09-9aa6bf2ce496","61e1ec61-13c7-4a8f-bf47-a91ec9909364","","1233","
    <div style=""display: flex; justify-content: center; align-items: center;"">
      <img src=""images/red_deck_2.png"" style=""width: 300px; height: 300px; margin-right: 10px;"" />
      <img src=""images/blue_deck_1.png"" style=""width: 300px; height: 300px;"" />
    </div>","0","0"
"","","","","","html-keyboard-response","81","288617","0.0-81.0-0.0-0.0","0D75B21EA67942B988D80423F896CC2A","3344892e-592d-458c-be09-9aa6bf2ce496","61e1ec61-13c7-4a8f-bf47-a91ec9909364","","null","<div style=""display: flex; justify-content: center; align-items: center;"">
                <img src=""images/causal/causal_series_16/causal_series_16_d.jpg"" style=""width: 300px; height: 300px;"" />
              </div>","null",""
"","","","","","html-keyboard-response","82","291621","0.0-82.0","0D75B21EA67942B988D80423F896CC2A","3344892e-592d-458c-be09-9aa6bf2ce496","61e1ec61-13c7-4a8f-bf47-a91ec9909364","","null","<div style=""display: flex; justify-content: center; align-items: center;"">
                <img src=""images/other/blank.jpg"" style=""width: 300px; height: 300px;"" />
              </div>","null",""
"","","","","","html-keyboard-response","83","294629","0.0-83.0","0D75B21EA67942B988D80423F896CC2A","3344892e-592d-458c-be09-9aa6bf2ce496","61e1ec61-13c7-4a8f-bf47-a91ec9909364","","null","<div style=""display: flex; justify-content: center; align-items: center;"">
                <img src=""images/causal/causal_series_5/causal_series_5_a.jpg"" style=""width: 300px; height: 300px;"" />
              </div>","null",""
"","","","","","html-keyboard-response","84","298588","0.0-84.0","0D75B21EA67942B988D80423F896CC2A","3344892e-592d-458c-be09-9aa6bf2ce496","61e1ec61-13c7-4a8f-bf47-a91ec9909364","","null","<div style=""display: flex; justify-content: center; align-items: center;"">
                <img src=""images/causal/causal_series_5/causal_series_5_b.jpg"" style=""width: 300px; height: 300px;"" />
              </div>","null",""
"","","","","","html-keyboard-response","85","302592","0.0-85.0","0D75B21EA67942B988D80423F896CC2A","3344892e-592d-458c-be09-9aa6bf2ce496","61e1ec61-13c7-4a8f-bf47-a91ec9909364","","null","<div style=""display: flex; justify-content: center; align-items: center;"">
                <img src=""images/causal/causal_series_5/causal_series_5_c.jpg"" style=""width: 300px; height: 300px;"" />
              </div>","null",""
"","","","","","html-button-response","86","311346","0.0-86.0","0D75B21EA67942B988D80423F896CC2A","3344892e-592d-458c-be09-9aa6bf2ce496","61e1ec61-13c7-4a8f-bf47-a91ec9909364","","8753","
    <div style=""display: flex; justify-content: center; align-items: center;"">
      <img src=""images/red_deck_2.png"" style=""width: 300px; height: 300px; margin-right: 10px;"" />
      <img src=""images/blue_deck_1.png"" style=""width: 300px; height: 300px;"" />
    </div>","0","0"
"","","","","","html-keyboard-response","87","314349","0.0-87.0-0.0-0.0","0D75B21EA67942B988D80423F896CC2A","3344892e-592d-458c-be09-9aa6bf2ce496","61e1ec61-13c7-4a8f-bf47-a91ec9909364","","null","<div style=""display: flex; justify-content: center; align-items: center;"">
                <img src=""images/causal/causal_series_5/causal_series_5_d.jpg"" style=""width: 300px; height: 300px;"" />
              </div>","null",""
"","","","","","html-keyboard-response","88","317360","0.0-88.0","0D75B21EA67942B988D80423F896CC2A","3344892e-592d-458c-be09-9aa6bf2ce496","61e1ec61-13c7-4a8f-bf47-a91ec9909364","","null","<div style=""display: flex; justify-content: center; align-items: center;"">
                <img src=""images/other/blank.jpg"" style=""width: 300px; height: 300px;"" />
              </div>","null",""
"","","","","","html-keyboard-response","89","320371","0.0-89.0","0D75B21EA67942B988D80423F896CC2A","3344892e-592d-458c-be09-9aa6bf2ce496","61e1ec61-13c7-4a8f-bf47-a91ec9909364","","null","<div style=""display: flex; justify-content: center; align-items: center;"">
                <img src=""images/causal/causal_series_14/causal_series_14_a.jpg"" style=""width: 300px; height: 300px;"" />
              </div>","null",""
"","","","","","html-keyboard-response","90","323378","0.0-90.0","0D75B21EA67942B988D80423F896CC2A","3344892e-592d-458c-be09-9aa6bf2ce496","61e1ec61-13c7-4a8f-bf47-a91ec9909364","","null","<div style=""display: flex; justify-content: center; align-items: center;"">
                <img src=""images/causal/causal_series_14/causal_series_14_b.jpg"" style=""width: 300px; height: 300px;"" />
              </div>","null",""
"","","","","","html-keyboard-response","91","326386","0.0-91.0","0D75B21EA67942B988D80423F896CC2A","3344892e-592d-458c-be09-9aa6bf2ce496","61e1ec61-13c7-4a8f-bf47-a91ec9909364","","null","<div style=""display: flex; justify-content: center; align-items: center;"">
                <img src=""images/causal/causal_series_14/causal_series_14_c.jpg"" style=""width: 300px; height: 300px;"" />
              </div>","null",""
"","","","","","html-button-response","92","328873","0.0-92.0","0D75B21EA67942B988D80423F896CC2A","3344892e-592d-458c-be09-9aa6bf2ce496","61e1ec61-13c7-4a8f-bf47-a91ec9909364","","2487","
    <div style=""display: flex; justify-content: center; align-items: center;"">
      <img src=""images/red_deck_2.png"" style=""width: 300px; height: 300px; margin-right: 10px;"" />
      <img src=""images/blue_deck_1.png"" style=""width: 300px; height: 300px;"" />
    </div>","0","0"
"","","","","","html-keyboard-response","93","331886","0.0-93.0-0.0-0.0","0D75B21EA67942B988D80423F896CC2A","3344892e-592d-458c-be09-9aa6bf2ce496","61e1ec61-13c7-4a8f-bf47-a91ec9909364","","null","<div style=""display: flex; justify-content: center; align-items: center;"">
                <img src=""images/causal/causal_series_14/causal_series_14_d.jpg"" style=""width: 300px; height: 300px;"" />
              </div>","null",""
"","","","","","html-keyboard-response","94","334894","0.0-94.0","0D75B21EA67942B988D80423F896CC2A","3344892e-592d-458c-be09-9aa6bf2ce496","61e1ec61-13c7-4a8f-bf47-a91ec9909364","","null","<div style=""display: flex; justify-content: center; align-items: center;"">
                <img src=""images/other/blank.jpg"" style=""width: 300px; height: 300px;"" />
              </div>","null",""
"","","","","","html-keyboard-response","95","337903","0.0-95.0","0D75B21EA67942B988D80423F896CC2A","3344892e-592d-458c-be09-9aa6bf2ce496","61e1ec61-13c7-4a8f-bf47-a91ec9909364","","null","<div style=""display: flex; justify-content: center; align-items: center;"">
                <img src=""images/causal/causal_series_8/causal_series_8_a.jpg"" style=""width: 300px; height: 300px;"" />
              </div>","null",""
"","","","","","html-keyboard-response","96","340907","0.0-96.0","0D75B21EA67942B988D80423F896CC2A","3344892e-592d-458c-be09-9aa6bf2ce496","61e1ec61-13c7-4a8f-bf47-a91ec9909364","","null","<div style=""display: flex; justify-content: center; align-items: center;"">
                <img src=""images/causal/causal_series_8/causal_series_8_b.jpg"" style=""width: 300px; height: 300px;"" />
              </div>","null",""
"","","","","","html-keyboard-response","97","343919","0.0-97.0","0D75B21EA67942B988D80423F896CC2A","3344892e-592d-458c-be09-9aa6bf2ce496","61e1ec61-13c7-4a8f-bf47-a91ec9909364","","null","<div style=""display: flex; justify-content: center; align-items: center;"">
                <img src=""images/causal/causal_series_8/causal_series_8_c.jpg"" style=""width: 300px; height: 300px;"" />
              </div>","null",""
"","","","","","html-button-response","98","344843","0.0-98.0","0D75B21EA67942B988D80423F896CC2A","3344892e-592d-458c-be09-9aa6bf2ce496","61e1ec61-13c7-4a8f-bf47-a91ec9909364","","924","
    <div style=""display: flex; justify-content: center; align-items: center;"">
      <img src=""images/red_deck_2.png"" style=""width: 300px; height: 300px; margin-right: 10px;"" />
      <img src=""images/blue_deck_1.png"" style=""width: 300px; height: 300px;"" />
    </div>","0","0"
"","","","","","html-keyboard-response","99","347857","0.0-99.0-0.0-0.0","0D75B21EA67942B988D80423F896CC2A","3344892e-592d-458c-be09-9aa6bf2ce496","61e1ec61-13c7-4a8f-bf47-a91ec9909364","","null","<div style=""display: flex; justify-content: center; align-items: center;"">
                <img src=""images/causal/causal_series_8/causal_series_8_d.jpg"" style=""width: 300px; height: 300px;"" />
              </div>","null",""
"","","","","","html-keyboard-response","100","350862","0.0-100.0","0D75B21EA67942B988D80423F896CC2A","3344892e-592d-458c-be09-9aa6bf2ce496","61e1ec61-13c7-4a8f-bf47-a91ec9909364","","null","<div style=""display: flex; justify-content: center; align-items: center;"">
                <img src=""images/other/blank.jpg"" style=""width: 300px; height: 300px;"" />
              </div>","null",""
"","","","","","html-keyboard-response","101","354584","0.0-101.0","0D75B21EA67942B988D80423F896CC2A","3344892e-592d-458c-be09-9aa6bf2ce496","61e1ec61-13c7-4a8f-bf47-a91ec9909364","","null","<div style=""display: flex; justify-content: center; align-items: center;"">
                <img src=""images/causal/causal_series_11/causal_series_11_a.jpg"" style=""width: 300px; height: 300px;"" />
              </div>","null",""
"","","","","","html-keyboard-response","102","357589","0.0-102.0","0D75B21EA67942B988D80423F896CC2A","3344892e-592d-458c-be09-9aa6bf2ce496","61e1ec61-13c7-4a8f-bf47-a91ec9909364","","null","<div style=""display: flex; justify-content: center; align-items: center;"">
                <img src=""images/causal/causal_series_11/causal_series_11_b.jpg"" style=""width: 300px; height: 300px;"" />
              </div>","null",""
"","","","","","html-keyboard-response","103","360596","0.0-103.0","0D75B21EA67942B988D80423F896CC2A","3344892e-592d-458c-be09-9aa6bf2ce496","61e1ec61-13c7-4a8f-bf47-a91ec9909364","","null","<div style=""display: flex; justify-content: center; align-items: center;"">
                <img src=""images/causal/causal_series_11/causal_series_11_c.jpg"" style=""width: 300px; height: 300px;"" />
              </div>","null",""
"","","","","","html-button-response","104","361524","0.0-104.0","0D75B21EA67942B988D80423F896CC2A","3344892e-592d-458c-be09-9aa6bf2ce496","61e1ec61-13c7-4a8f-bf47-a91ec9909364","","926","
    <div style=""display: flex; justify-content: center; align-items: center;"">
      <img src=""images/red_deck_2.png"" style=""width: 300px; height: 300px; margin-right: 10px;"" />
      <img src=""images/blue_deck_1.png"" style=""width: 300px; height: 300px;"" />
    </div>","1","1"
"","","","","","html-keyboard-response","105","364539","0.0-105.0-1.0-0.0","0D75B21EA67942B988D80423F896CC2A","3344892e-592d-458c-be09-9aa6bf2ce496","61e1ec61-13c7-4a8f-bf47-a91ec9909364","","null","<div style=""display: flex; justify-content: center; align-items: center;"">
                <img src=""images/semantic/semantic_series_10/semantic_series_10_d.jpg"" style=""width: 300px; height: 300px;"" />
              </div>","null",""
"","","","","","html-keyboard-response","106","367549","0.0-106.0","0D75B21EA67942B988D80423F896CC2A","3344892e-592d-458c-be09-9aa6bf2ce496","61e1ec61-13c7-4a8f-bf47-a91ec9909364","","null","<div style=""display: flex; justify-content: center; align-items: center;"">
                <img src=""images/other/blank.jpg"" style=""width: 300px; height: 300px;"" />
              </div>","null",""
"","","","","","html-keyboard-response","107","370561","0.0-107.0","0D75B21EA67942B988D80423F896CC2A","3344892e-592d-458c-be09-9aa6bf2ce496","61e1ec61-13c7-4a8f-bf47-a91ec9909364","","null","<div style=""display: flex; justify-content: center; align-items: center;"">
                <img src=""images/causal/causal_series_3/causal_series_3_a.jpg"" style=""width: 300px; height: 300px;"" />
              </div>","null",""
"","","","","","html-keyboard-response","108","373567","0.0-108.0","0D75B21EA67942B988D80423F896CC2A","3344892e-592d-458c-be09-9aa6bf2ce496","61e1ec61-13c7-4a8f-bf47-a91ec9909364","","null","<div style=""display: flex; justify-content: center; align-items: center;"">
                <img src=""images/causal/causal_series_3/causal_series_3_b.jpg"" style=""width: 300px; height: 300px;"" />
              </div>","null",""
"","","","","","html-keyboard-response","109","376573","0.0-109.0","0D75B21EA67942B988D80423F896CC2A","3344892e-592d-458c-be09-9aa6bf2ce496","61e1ec61-13c7-4a8f-bf47-a91ec9909364","","null","<div style=""display: flex; justify-content: center; align-items: center;"">
                <img src=""images/causal/causal_series_3/causal_series_3_c.jpg"" style=""width: 300px; height: 300px;"" />
              </div>","null",""
"","","","","","html-button-response","110","378270","0.0-110.0","0D75B21EA67942B988D80423F896CC2A","3344892e-592d-458c-be09-9aa6bf2ce496","61e1ec61-13c7-4a8f-bf47-a91ec9909364","","1696","
    <div style=""display: flex; justify-content: center; align-items: center;"">
      <img src=""images/red_deck_2.png"" style=""width: 300px; height: 300px; margin-right: 10px;"" />
      <img src=""images/blue_deck_1.png"" style=""width: 300px; height: 300px;"" />
    </div>","0","0"
"","","","","","html-keyboard-response","111","381272","0.0-111.0-0.0-0.0","0D75B21EA67942B988D80423F896CC2A","3344892e-592d-458c-be09-9aa6bf2ce496","61e1ec61-13c7-4a8f-bf47-a91ec9909364","","null","<div style=""display: flex; justify-content: center; align-items: center;"">
                <img src=""images/causal/causal_series_3/causal_series_3_d.jpg"" style=""width: 300px; height: 300px;"" />
              </div>","null",""
"","","","","","html-keyboard-response","112","384282","0.0-112.0","0D75B21EA67942B988D80423F896CC2A","3344892e-592d-458c-be09-9aa6bf2ce496","61e1ec61-13c7-4a8f-bf47-a91ec9909364","","null","<div style=""display: flex; justify-content: center; align-items: center;"">
                <img src=""images/other/blank.jpg"" style=""width: 300px; height: 300px;"" />
              </div>","null",""
"","","","","","survey-text","113","702029","0.0-113.0","0D75B21EA67942B988D80423F896CC2A","3344892e-592d-458c-be09-9aa6bf2ce496","61e1ec61-13c7-4a8f-bf47-a91ec9909364","","317743","","{""Q0"":""For what I done, the first or red card continues the story while the blue one or 2 chooses an unrelated image.""}",""
"","","","","","survey-text","114","719248","0.0-114.0","0D75B21EA67942B988D80423F896CC2A","3344892e-592d-458c-be09-9aa6bf2ce496","61e1ec61-13c7-4a8f-bf47-a91ec9909364","","17216","","{""Q0"":""The left deck or first one because it continues the story.""}",""
"","","","","","html-button-response","115","737379","0.0-115.0","0D75B21EA67942B988D80423F896CC2A","3344892e-592d-458c-be09-9aa6bf2ce496","61e1ec61-13c7-4a8f-bf47-a91ec9909364","","18130","Which color deck does the fourth image continue the story from the series?","1",""
"","","","","","html-button-response","116","781944","0.0-116.0","0D75B21EA67942B988D80423F896CC2A","3344892e-592d-458c-be09-9aa6bf2ce496","61e1ec61-13c7-4a8f-bf47-a91ec9909364","","44564","Which color deck does the fourth image not follow the story from the series?","0",""
"","","","","","survey-text","117","787468","0.0-117.0","0D75B21EA67942B988D80423F896CC2A","3344892e-592d-458c-be09-9aa6bf2ce496","61e1ec61-13c7-4a8f-bf47-a91ec9909364","","5521","","{""Q0"":""MALE"",""Q1"":""23""}",""
"","","","","","instructions","118","794492","0.0-118.0","0D75B21EA67942B988D80423F896CC2A","3344892e-592d-458c-be09-9aa6bf2ce496","61e1ec61-13c7-4a8f-bf47-a91ec9909364","[{""page_index"":0,""viewing_time"":7023}]","7023","","",""
