"success","timeout","failed_images","failed_audio","failed_video","trial_type","trial_index","time_elapsed","internal_node_id","subject_id","study_id","session_id","view_history","rt","stimulus","response","choice"
"true","false","[]","[]","[]","preload","0","10482","0.0-0.0","C083122313ED412FA4EB27591D1A7887","9562c342-5f03-49d0-8b57-925f0d065daa","61e1ec61-13c7-4a8f-bf47-a91ec9909364","","","","",""
"","","","","","instructions","1","13441","0.0-1.0","C083122313ED412FA4EB27591D1A7887","9562c342-5f03-49d0-8b57-925f0d065daa","61e1ec61-13c7-4a8f-bf47-a91ec9909364","[{""page_index"":0,""viewing_time"":2957}]","2957","","",""
"","","","","","instructions","2","17111","0.0-2.0","C083122313ED412FA4EB27591D1A7887","9562c342-5f03-49d0-8b57-925f0d065daa","61e1ec61-13c7-4a8f-bf47-a91ec9909364","[{""page_index"":0,""viewing_time"":3669}]","3670","","",""
"true","","","","","fullscreen","3","21079","0.0-3.0","C083122313ED412FA4EB27591D1A7887","9562c342-5f03-49d0-8b57-925f0d065daa","61e1ec61-13c7-4a8f-bf47-a91ec9909364","","2951","","",""
"","","","","","instructions","4","49197","0.0-4.0","C083122313ED412FA4EB27591D1A7887","9562c342-5f03-49d0-8b57-925f0d065daa","61e1ec61-13c7-4a8f-bf47-a91ec9909364","[{""page_index"":0,""viewing_time"":28116}]","28117","","",""
"","","","","","html-keyboard-response","5","52210","0.0-5.0","C083122313ED412FA4EB27591D1A7887","9562c342-5f03-49d0-8b57-925f0d065daa","61e1ec61-13c7-4a8f-bf47-a91ec9909364","","null","<div style=""display: flex; justify-content: center; align-items: center;"">
                <img src=""images/causal/causal_series_1/causal_series_1_a.jpg"" style=""width: 300px; height: 300px;"" />
              </div>","null",""
"","","","","","html-keyboard-response","6","55217","0.0-6.0","C083122313ED412FA4EB27591D1A7887","9562c342-5f03-49d0-8b57-925f0d065daa","61e1ec61-13c7-4a8f-bf47-a91ec9909364","","null","<div style=""display: flex; justify-content: center; align-items: center;"">
                <img src=""images/causal/causal_series_1/causal_series_1_b.jpg"" style=""width: 300px; height: 300px;"" />
              </div>","null",""
"","","","","","html-keyboard-response","7","58227","0.0-7.0","C083122313ED412FA4EB27591D1A7887","9562c342-5f03-49d0-8b57-925f0d065daa","61e1ec61-13c7-4a8f-bf47-a91ec9909364","","null","<div style=""display: flex; justify-content: center; align-items: center;"">
                <img src=""images/causal/causal_series_1/causal_series_1_c.jpg"" style=""width: 300px; height: 300px;"" />
              </div>","null",""
"","","","","","html-button-response","8","60413","0.0-8.0","C083122313ED412FA4EB27591D1A7887","9562c342-5f03-49d0-8b57-925f0d065daa","61e1ec61-13c7-4a8f-bf47-a91ec9909364","","2184","
    <div style=""display: flex; justify-content: center; align-items: center;"">
      <img src=""images/red_deck_2.png"" style=""width: 300px; height: 300px; margin-right: 10px;"" />
      <img src=""images/blue_deck_1.png"" style=""width: 300px; height: 300px;"" />
    </div>","0","0"
"","","","","","html-keyboard-response","9","63424","0.0-9.0-0.0-0.0","C083122313ED412FA4EB27591D1A7887","9562c342-5f03-49d0-8b57-925f0d065daa","61e1ec61-13c7-4a8f-bf47-a91ec9909364","","null","<div style=""display: flex; justify-content: center; align-items: center;"">
                <img src=""images/causal/causal_series_1/causal_series_1_d.jpg"" style=""width: 300px; height: 300px;"" />
              </div>","null",""
"","","","","","html-keyboard-response","10","66429","0.0-10.0","C083122313ED412FA4EB27591D1A7887","9562c342-5f03-49d0-8b57-925f0d065daa","61e1ec61-13c7-4a8f-bf47-a91ec9909364","","null","<div style=""display: flex; justify-content: center; align-items: center;"">
                <img src=""images/other/blank.jpg"" style=""width: 300px; height: 300px;"" />
              </div>","null",""
"","","","","","html-keyboard-response","11","69433","0.0-11.0","C083122313ED412FA4EB27591D1A7887","9562c342-5f03-49d0-8b57-925f0d065daa","61e1ec61-13c7-4a8f-bf47-a91ec9909364","","null","<div style=""display: flex; justify-content: center; align-items: center;"">
                <img src=""images/causal/causal_series_10/causal_series_10_a.jpg"" style=""width: 300px; height: 300px;"" />
              </div>","null",""
"","","","","","html-keyboard-response","12","72445","0.0-12.0","C083122313ED412FA4EB27591D1A7887","9562c342-5f03-49d0-8b57-925f0d065daa","61e1ec61-13c7-4a8f-bf47-a91ec9909364","","null","<div style=""display: flex; justify-content: center; align-items: center;"">
                <img src=""images/causal/causal_series_10/causal_series_10_b.jpg"" style=""width: 300px; height: 300px;"" />
              </div>","null",""
"","","","","","html-keyboard-response","13","75454","0.0-13.0","C083122313ED412FA4EB27591D1A7887","9562c342-5f03-49d0-8b57-925f0d065daa","61e1ec61-13c7-4a8f-bf47-a91ec9909364","","null","<div style=""display: flex; justify-content: center; align-items: center;"">
                <img src=""images/causal/causal_series_10/causal_series_10_c.jpg"" style=""width: 300px; height: 300px;"" />
              </div>","null",""
"","","","","","html-button-response","14","79813","0.0-14.0","C083122313ED412FA4EB27591D1A7887","9562c342-5f03-49d0-8b57-925f0d065daa","61e1ec61-13c7-4a8f-bf47-a91ec9909364","","4357","
    <div style=""display: flex; justify-content: center; align-items: center;"">
      <img src=""images/red_deck_2.png"" style=""width: 300px; height: 300px; margin-right: 10px;"" />
      <img src=""images/blue_deck_1.png"" style=""width: 300px; height: 300px;"" />
    </div>","1","1"
"","","","","","html-keyboard-response","15","82822","0.0-15.0-1.0-0.0","C083122313ED412FA4EB27591D1A7887","9562c342-5f03-49d0-8b57-925f0d065daa","61e1ec61-13c7-4a8f-bf47-a91ec9909364","","null","<div style=""display: flex; justify-content: center; align-items: center;"">
                <img src=""images/semantic/semantic_series_9/semantic_series_9_d.jpg"" style=""width: 300px; height: 300px;"" />
              </div>","null",""
"","","","","","html-keyboard-response","16","85836","0.0-16.0","C083122313ED412FA4EB27591D1A7887","9562c342-5f03-49d0-8b57-925f0d065daa","61e1ec61-13c7-4a8f-bf47-a91ec9909364","","null","<div style=""display: flex; justify-content: center; align-items: center;"">
                <img src=""images/other/blank.jpg"" style=""width: 300px; height: 300px;"" />
              </div>","null",""
"","","","","","html-keyboard-response","17","88852","0.0-17.0","C083122313ED412FA4EB27591D1A7887","9562c342-5f03-49d0-8b57-925f0d065daa","61e1ec61-13c7-4a8f-bf47-a91ec9909364","","null","<div style=""display: flex; justify-content: center; align-items: center;"">
                <img src=""images/causal/causal_series_6/causal_series_6_a.jpg"" style=""width: 300px; height: 300px;"" />
              </div>","null",""
"","","","","","html-keyboard-response","18","91858","0.0-18.0","C083122313ED412FA4EB27591D1A7887","9562c342-5f03-49d0-8b57-925f0d065daa","61e1ec61-13c7-4a8f-bf47-a91ec9909364","","null","<div style=""display: flex; justify-content: center; align-items: center;"">
                <img src=""images/causal/causal_series_6/causal_series_6_b.jpg"" style=""width: 300px; height: 300px;"" />
              </div>","null",""
"","","","","","html-keyboard-response","19","94869","0.0-19.0","C083122313ED412FA4EB27591D1A7887","9562c342-5f03-49d0-8b57-925f0d065daa","61e1ec61-13c7-4a8f-bf47-a91ec9909364","","null","<div style=""display: flex; justify-content: center; align-items: center;"">
                <img src=""images/causal/causal_series_6/causal_series_6_c.jpg"" style=""width: 300px; height: 300px;"" />
              </div>","null",""
"","","","","","html-button-response","20","96343","0.0-20.0","C083122313ED412FA4EB27591D1A7887","9562c342-5f03-49d0-8b57-925f0d065daa","61e1ec61-13c7-4a8f-bf47-a91ec9909364","","1473","
    <div style=""display: flex; justify-content: center; align-items: center;"">
      <img src=""images/red_deck_2.png"" style=""width: 300px; height: 300px; margin-right: 10px;"" />
      <img src=""images/blue_deck_1.png"" style=""width: 300px; height: 300px;"" />
    </div>","1","1"
"","","","","","html-keyboard-response","21","99359","0.0-21.0-1.0-0.0","C083122313ED412FA4EB27591D1A7887","9562c342-5f03-49d0-8b57-925f0d065daa","61e1ec61-13c7-4a8f-bf47-a91ec9909364","","null","<div style=""display: flex; justify-content: center; align-items: center;"">
                <img src=""images/semantic/semantic_series_5/semantic_series_5_d.jpg"" style=""width: 300px; height: 300px;"" />
              </div>","null",""
"","","","","","html-keyboard-response","22","102375","0.0-22.0","C083122313ED412FA4EB27591D1A7887","9562c342-5f03-49d0-8b57-925f0d065daa","61e1ec61-13c7-4a8f-bf47-a91ec9909364","","null","<div style=""display: flex; justify-content: center; align-items: center;"">
                <img src=""images/other/blank.jpg"" style=""width: 300px; height: 300px;"" />
              </div>","null",""
"","","","","","html-keyboard-response","23","105381","0.0-23.0","C083122313ED412FA4EB27591D1A7887","9562c342-5f03-49d0-8b57-925f0d065daa","61e1ec61-13c7-4a8f-bf47-a91ec9909364","","null","<div style=""display: flex; justify-content: center; align-items: center;"">
                <img src=""images/causal/causal_series_14/causal_series_14_a.jpg"" style=""width: 300px; height: 300px;"" />
              </div>","null",""
"","","","","","html-keyboard-response","24","108383","0.0-24.0","C083122313ED412FA4EB27591D1A7887","9562c342-5f03-49d0-8b57-925f0d065daa","61e1ec61-13c7-4a8f-bf47-a91ec9909364","","null","<div style=""display: flex; justify-content: center; align-items: center;"">
                <img src=""images/causal/causal_series_14/causal_series_14_b.jpg"" style=""width: 300px; height: 300px;"" />
              </div>","null",""
"","","","","","html-keyboard-response","25","111386","0.0-25.0","C083122313ED412FA4EB27591D1A7887","9562c342-5f03-49d0-8b57-925f0d065daa","61e1ec61-13c7-4a8f-bf47-a91ec9909364","","null","<div style=""display: flex; justify-content: center; align-items: center;"">
                <img src=""images/causal/causal_series_14/causal_series_14_c.jpg"" style=""width: 300px; height: 300px;"" />
              </div>","null",""
"","","","","","html-button-response","26","114278","0.0-26.0","C083122313ED412FA4EB27591D1A7887","9562c342-5f03-49d0-8b57-925f0d065daa","61e1ec61-13c7-4a8f-bf47-a91ec9909364","","2891","
    <div style=""display: flex; justify-content: center; align-items: center;"">
      <img src=""images/red_deck_2.png"" style=""width: 300px; height: 300px; margin-right: 10px;"" />
      <img src=""images/blue_deck_1.png"" style=""width: 300px; height: 300px;"" />
    </div>","0","0"
"","","","","","html-keyboard-response","27","117290","0.0-27.0-0.0-0.0","C083122313ED412FA4EB27591D1A7887","9562c342-5f03-49d0-8b57-925f0d065daa","61e1ec61-13c7-4a8f-bf47-a91ec9909364","","null","<div style=""display: flex; justify-content: center; align-items: center;"">
                <img src=""images/causal/causal_series_14/causal_series_14_d.jpg"" style=""width: 300px; height: 300px;"" />
              </div>","null",""
"","","","","","html-keyboard-response","28","120291","0.0-28.0","C083122313ED412FA4EB27591D1A7887","9562c342-5f03-49d0-8b57-925f0d065daa","61e1ec61-13c7-4a8f-bf47-a91ec9909364","","null","<div style=""display: flex; justify-content: center; align-items: center;"">
                <img src=""images/other/blank.jpg"" style=""width: 300px; height: 300px;"" />
              </div>","null",""
"","","","","","html-keyboard-response","29","123306","0.0-29.0","C083122313ED412FA4EB27591D1A7887","9562c342-5f03-49d0-8b57-925f0d065daa","61e1ec61-13c7-4a8f-bf47-a91ec9909364","","null","<div style=""display: flex; justify-content: center; align-items: center;"">
                <img src=""images/causal/causal_series_18/causal_series_18_a.jpg"" style=""width: 300px; height: 300px;"" />
              </div>","null",""
"","","","","","html-keyboard-response","30","126318","0.0-30.0","C083122313ED412FA4EB27591D1A7887","9562c342-5f03-49d0-8b57-925f0d065daa","61e1ec61-13c7-4a8f-bf47-a91ec9909364","","null","<div style=""display: flex; justify-content: center; align-items: center;"">
                <img src=""images/causal/causal_series_18/causal_series_18_b.jpg"" style=""width: 300px; height: 300px;"" />
              </div>","null",""
"","","","","","html-keyboard-response","31","129324","0.0-31.0","C083122313ED412FA4EB27591D1A7887","9562c342-5f03-49d0-8b57-925f0d065daa","61e1ec61-13c7-4a8f-bf47-a91ec9909364","","null","<div style=""display: flex; justify-content: center; align-items: center;"">
                <img src=""images/causal/causal_series_18/causal_series_18_c.jpg"" style=""width: 300px; height: 300px;"" />
              </div>","null",""
"","","","","","html-button-response","32","130979","0.0-32.0","C083122313ED412FA4EB27591D1A7887","9562c342-5f03-49d0-8b57-925f0d065daa","61e1ec61-13c7-4a8f-bf47-a91ec9909364","","1653","
    <div style=""display: flex; justify-content: center; align-items: center;"">
      <img src=""images/red_deck_2.png"" style=""width: 300px; height: 300px; margin-right: 10px;"" />
      <img src=""images/blue_deck_1.png"" style=""width: 300px; height: 300px;"" />
    </div>","0","0"
"","","","","","html-keyboard-response","33","133981","0.0-33.0-0.0-0.0","C083122313ED412FA4EB27591D1A7887","9562c342-5f03-49d0-8b57-925f0d065daa","61e1ec61-13c7-4a8f-bf47-a91ec9909364","","null","<div style=""display: flex; justify-content: center; align-items: center;"">
                <img src=""images/causal/causal_series_18/causal_series_18_d.jpg"" style=""width: 300px; height: 300px;"" />
              </div>","null",""
"","","","","","html-keyboard-response","34","136986","0.0-34.0","C083122313ED412FA4EB27591D1A7887","9562c342-5f03-49d0-8b57-925f0d065daa","61e1ec61-13c7-4a8f-bf47-a91ec9909364","","null","<div style=""display: flex; justify-content: center; align-items: center;"">
                <img src=""images/other/blank.jpg"" style=""width: 300px; height: 300px;"" />
              </div>","null",""
"","","","","","html-keyboard-response","35","139990","0.0-35.0","C083122313ED412FA4EB27591D1A7887","9562c342-5f03-49d0-8b57-925f0d065daa","61e1ec61-13c7-4a8f-bf47-a91ec9909364","","null","<div style=""display: flex; justify-content: center; align-items: center;"">
                <img src=""images/causal/causal_series_13/causal_series_13_a.jpg"" style=""width: 300px; height: 300px;"" />
              </div>","null",""
"","","","","","html-keyboard-response","36","143005","0.0-36.0","C083122313ED412FA4EB27591D1A7887","9562c342-5f03-49d0-8b57-925f0d065daa","61e1ec61-13c7-4a8f-bf47-a91ec9909364","","null","<div style=""display: flex; justify-content: center; align-items: center;"">
                <img src=""images/causal/causal_series_13/causal_series_13_b.jpg"" style=""width: 300px; height: 300px;"" />
              </div>","null",""
"","","","","","html-keyboard-response","37","146019","0.0-37.0","C083122313ED412FA4EB27591D1A7887","9562c342-5f03-49d0-8b57-925f0d065daa","61e1ec61-13c7-4a8f-bf47-a91ec9909364","","null","<div style=""display: flex; justify-content: center; align-items: center;"">
                <img src=""images/causal/causal_series_13/causal_series_13_c.jpg"" style=""width: 300px; height: 300px;"" />
              </div>","null",""
"","","","","","html-button-response","38","147847","0.0-38.0","C083122313ED412FA4EB27591D1A7887","9562c342-5f03-49d0-8b57-925f0d065daa","61e1ec61-13c7-4a8f-bf47-a91ec9909364","","1827","
    <div style=""display: flex; justify-content: center; align-items: center;"">
      <img src=""images/red_deck_2.png"" style=""width: 300px; height: 300px; margin-right: 10px;"" />
      <img src=""images/blue_deck_1.png"" style=""width: 300px; height: 300px;"" />
    </div>","1","1"
"","","","","","html-keyboard-response","39","150857","0.0-39.0-1.0-0.0","C083122313ED412FA4EB27591D1A7887","9562c342-5f03-49d0-8b57-925f0d065daa","61e1ec61-13c7-4a8f-bf47-a91ec9909364","","null","<div style=""display: flex; justify-content: center; align-items: center;"">
                <img src=""images/semantic/semantic_series_12/semantic_series_12_d.jpg"" style=""width: 300px; height: 300px;"" />
              </div>","null",""
"","","","","","html-keyboard-response","40","153866","0.0-40.0","C083122313ED412FA4EB27591D1A7887","9562c342-5f03-49d0-8b57-925f0d065daa","61e1ec61-13c7-4a8f-bf47-a91ec9909364","","null","<div style=""display: flex; justify-content: center; align-items: center;"">
                <img src=""images/other/blank.jpg"" style=""width: 300px; height: 300px;"" />
              </div>","null",""
"","","","","","html-keyboard-response","41","156870","0.0-41.0","C083122313ED412FA4EB27591D1A7887","9562c342-5f03-49d0-8b57-925f0d065daa","61e1ec61-13c7-4a8f-bf47-a91ec9909364","","null","<div style=""display: flex; justify-content: center; align-items: center;"">
                <img src=""images/causal/causal_series_7/causal_series_7_a.jpg"" style=""width: 300px; height: 300px;"" />
              </div>","null",""
"","","","","","html-keyboard-response","42","159874","0.0-42.0","C083122313ED412FA4EB27591D1A7887","9562c342-5f03-49d0-8b57-925f0d065daa","61e1ec61-13c7-4a8f-bf47-a91ec9909364","","null","<div style=""display: flex; justify-content: center; align-items: center;"">
                <img src=""images/causal/causal_series_7/causal_series_7_b.jpg"" style=""width: 300px; height: 300px;"" />
              </div>","null",""
"","","","","","html-keyboard-response","43","162884","0.0-43.0","C083122313ED412FA4EB27591D1A7887","9562c342-5f03-49d0-8b57-925f0d065daa","61e1ec61-13c7-4a8f-bf47-a91ec9909364","","null","<div style=""display: flex; justify-content: center; align-items: center;"">
                <img src=""images/causal/causal_series_7/causal_series_7_c.jpg"" style=""width: 300px; height: 300px;"" />
              </div>","null",""
"","","","","","html-button-response","44","164379","0.0-44.0","C083122313ED412FA4EB27591D1A7887","9562c342-5f03-49d0-8b57-925f0d065daa","61e1ec61-13c7-4a8f-bf47-a91ec9909364","","1494","
    <div style=""display: flex; justify-content: center; align-items: center;"">
      <img src=""images/red_deck_2.png"" style=""width: 300px; height: 300px; margin-right: 10px;"" />
      <img src=""images/blue_deck_1.png"" style=""width: 300px; height: 300px;"" />
    </div>","1","1"
"","","","","","html-keyboard-response","45","167386","0.0-45.0-1.0-0.0","C083122313ED412FA4EB27591D1A7887","9562c342-5f03-49d0-8b57-925f0d065daa","61e1ec61-13c7-4a8f-bf47-a91ec9909364","","null","<div style=""display: flex; justify-content: center; align-items: center;"">
                <img src=""images/semantic/semantic_series_6/semantic_series_6_d.jpg"" style=""width: 300px; height: 300px;"" />
              </div>","null",""
"","","","","","html-keyboard-response","46","170396","0.0-46.0","C083122313ED412FA4EB27591D1A7887","9562c342-5f03-49d0-8b57-925f0d065daa","61e1ec61-13c7-4a8f-bf47-a91ec9909364","","null","<div style=""display: flex; justify-content: center; align-items: center;"">
                <img src=""images/other/blank.jpg"" style=""width: 300px; height: 300px;"" />
              </div>","null",""
"","","","","","html-keyboard-response","47","173403","0.0-47.0","C083122313ED412FA4EB27591D1A7887","9562c342-5f03-49d0-8b57-925f0d065daa","61e1ec61-13c7-4a8f-bf47-a91ec9909364","","null","<div style=""display: flex; justify-content: center; align-items: center;"">
                <img src=""images/causal/causal_series_4/causal_series_4_a.jpg"" style=""width: 300px; height: 300px;"" />
              </div>","null",""
"","","","","","html-keyboard-response","48","176410","0.0-48.0","C083122313ED412FA4EB27591D1A7887","9562c342-5f03-49d0-8b57-925f0d065daa","61e1ec61-13c7-4a8f-bf47-a91ec9909364","","null","<div style=""display: flex; justify-content: center; align-items: center;"">
                <img src=""images/causal/causal_series_4/causal_series_4_b.jpg"" style=""width: 300px; height: 300px;"" />
              </div>","null",""
"","","","","","html-keyboard-response","49","179418","0.0-49.0","C083122313ED412FA4EB27591D1A7887","9562c342-5f03-49d0-8b57-925f0d065daa","61e1ec61-13c7-4a8f-bf47-a91ec9909364","","null","<div style=""display: flex; justify-content: center; align-items: center;"">
                <img src=""images/causal/causal_series_4/causal_series_4_c.jpg"" style=""width: 300px; height: 300px;"" />
              </div>","null",""
"","","","","","html-button-response","50","180694","0.0-50.0","C083122313ED412FA4EB27591D1A7887","9562c342-5f03-49d0-8b57-925f0d065daa","61e1ec61-13c7-4a8f-bf47-a91ec9909364","","1276","
    <div style=""display: flex; justify-content: center; align-items: center;"">
      <img src=""images/red_deck_2.png"" style=""width: 300px; height: 300px; margin-right: 10px;"" />
      <img src=""images/blue_deck_1.png"" style=""width: 300px; height: 300px;"" />
    </div>","0","0"
"","","","","","html-keyboard-response","51","183702","0.0-51.0-0.0-0.0","C083122313ED412FA4EB27591D1A7887","9562c342-5f03-49d0-8b57-925f0d065daa","61e1ec61-13c7-4a8f-bf47-a91ec9909364","","null","<div style=""display: flex; justify-content: center; align-items: center;"">
                <img src=""images/causal/causal_series_4/causal_series_4_d.jpg"" style=""width: 300px; height: 300px;"" />
              </div>","null",""
"","","","","","html-keyboard-response","52","186714","0.0-52.0","C083122313ED412FA4EB27591D1A7887","9562c342-5f03-49d0-8b57-925f0d065daa","61e1ec61-13c7-4a8f-bf47-a91ec9909364","","null","<div style=""display: flex; justify-content: center; align-items: center;"">
                <img src=""images/other/blank.jpg"" style=""width: 300px; height: 300px;"" />
              </div>","null",""
"","","","","","html-keyboard-response","53","189722","0.0-53.0","C083122313ED412FA4EB27591D1A7887","9562c342-5f03-49d0-8b57-925f0d065daa","61e1ec61-13c7-4a8f-bf47-a91ec9909364","","null","<div style=""display: flex; justify-content: center; align-items: center;"">
                <img src=""images/causal/causal_series_5/causal_series_5_a.jpg"" style=""width: 300px; height: 300px;"" />
              </div>","null",""
"","","","","","html-keyboard-response","54","192731","0.0-54.0","C083122313ED412FA4EB27591D1A7887","9562c342-5f03-49d0-8b57-925f0d065daa","61e1ec61-13c7-4a8f-bf47-a91ec9909364","","null","<div style=""display: flex; justify-content: center; align-items: center;"">
                <img src=""images/causal/causal_series_5/causal_series_5_b.jpg"" style=""width: 300px; height: 300px;"" />
              </div>","null",""
"","","","","","html-keyboard-response","55","195733","0.0-55.0","C083122313ED412FA4EB27591D1A7887","9562c342-5f03-49d0-8b57-925f0d065daa","61e1ec61-13c7-4a8f-bf47-a91ec9909364","","null","<div style=""display: flex; justify-content: center; align-items: center;"">
                <img src=""images/causal/causal_series_5/causal_series_5_c.jpg"" style=""width: 300px; height: 300px;"" />
              </div>","null",""
"","","","","","html-button-response","56","196527","0.0-56.0","C083122313ED412FA4EB27591D1A7887","9562c342-5f03-49d0-8b57-925f0d065daa","61e1ec61-13c7-4a8f-bf47-a91ec9909364","","793","
    <div style=""display: flex; justify-content: center; align-items: center;"">
      <img src=""images/red_deck_2.png"" style=""width: 300px; height: 300px; margin-right: 10px;"" />
      <img src=""images/blue_deck_1.png"" style=""width: 300px; height: 300px;"" />
    </div>","0","0"
"","","","","","html-keyboard-response","57","199543","0.0-57.0-0.0-0.0","C083122313ED412FA4EB27591D1A7887","9562c342-5f03-49d0-8b57-925f0d065daa","61e1ec61-13c7-4a8f-bf47-a91ec9909364","","null","<div style=""display: flex; justify-content: center; align-items: center;"">
                <img src=""images/causal/causal_series_5/causal_series_5_d.jpg"" style=""width: 300px; height: 300px;"" />
              </div>","null",""
"","","","","","html-keyboard-response","58","202548","0.0-58.0","C083122313ED412FA4EB27591D1A7887","9562c342-5f03-49d0-8b57-925f0d065daa","61e1ec61-13c7-4a8f-bf47-a91ec9909364","","null","<div style=""display: flex; justify-content: center; align-items: center;"">
                <img src=""images/other/blank.jpg"" style=""width: 300px; height: 300px;"" />
              </div>","null",""
"","","","","","html-keyboard-response","59","205550","0.0-59.0","C083122313ED412FA4EB27591D1A7887","9562c342-5f03-49d0-8b57-925f0d065daa","61e1ec61-13c7-4a8f-bf47-a91ec9909364","","null","<div style=""display: flex; justify-content: center; align-items: center;"">
                <img src=""images/causal/causal_series_3/causal_series_3_a.jpg"" style=""width: 300px; height: 300px;"" />
              </div>","null",""
"","","","","","html-keyboard-response","60","208565","0.0-60.0","C083122313ED412FA4EB27591D1A7887","9562c342-5f03-49d0-8b57-925f0d065daa","61e1ec61-13c7-4a8f-bf47-a91ec9909364","","null","<div style=""display: flex; justify-content: center; align-items: center;"">
                <img src=""images/causal/causal_series_3/causal_series_3_b.jpg"" style=""width: 300px; height: 300px;"" />
              </div>","null",""
"","","","","","html-keyboard-response","61","211573","0.0-61.0","C083122313ED412FA4EB27591D1A7887","9562c342-5f03-49d0-8b57-925f0d065daa","61e1ec61-13c7-4a8f-bf47-a91ec9909364","","null","<div style=""display: flex; justify-content: center; align-items: center;"">
                <img src=""images/causal/causal_series_3/causal_series_3_c.jpg"" style=""width: 300px; height: 300px;"" />
              </div>","null",""
"","","","","","html-button-response","62","212425","0.0-62.0","C083122313ED412FA4EB27591D1A7887","9562c342-5f03-49d0-8b57-925f0d065daa","61e1ec61-13c7-4a8f-bf47-a91ec9909364","","850","
    <div style=""display: flex; justify-content: center; align-items: center;"">
      <img src=""images/red_deck_2.png"" style=""width: 300px; height: 300px; margin-right: 10px;"" />
      <img src=""images/blue_deck_1.png"" style=""width: 300px; height: 300px;"" />
    </div>","1","1"
"","","","","","html-keyboard-response","63","215438","0.0-63.0-1.0-0.0","C083122313ED412FA4EB27591D1A7887","9562c342-5f03-49d0-8b57-925f0d065daa","61e1ec61-13c7-4a8f-bf47-a91ec9909364","","null","<div style=""display: flex; justify-content: center; align-items: center;"">
                <img src=""images/semantic/semantic_series_2/semantic_series_2_d.jpg"" style=""width: 300px; height: 300px;"" />
              </div>","null",""
"","","","","","html-keyboard-response","64","218453","0.0-64.0","C083122313ED412FA4EB27591D1A7887","9562c342-5f03-49d0-8b57-925f0d065daa","61e1ec61-13c7-4a8f-bf47-a91ec9909364","","null","<div style=""display: flex; justify-content: center; align-items: center;"">
                <img src=""images/other/blank.jpg"" style=""width: 300px; height: 300px;"" />
              </div>","null",""
"","","","","","html-keyboard-response","65","221457","0.0-65.0","C083122313ED412FA4EB27591D1A7887","9562c342-5f03-49d0-8b57-925f0d065daa","61e1ec61-13c7-4a8f-bf47-a91ec9909364","","null","<div style=""display: flex; justify-content: center; align-items: center;"">
                <img src=""images/causal/causal_series_11/causal_series_11_a.jpg"" style=""width: 300px; height: 300px;"" />
              </div>","null",""
"","","","","","html-keyboard-response","66","224463","0.0-66.0","C083122313ED412FA4EB27591D1A7887","9562c342-5f03-49d0-8b57-925f0d065daa","61e1ec61-13c7-4a8f-bf47-a91ec9909364","","null","<div style=""display: flex; justify-content: center; align-items: center;"">
                <img src=""images/causal/causal_series_11/causal_series_11_b.jpg"" style=""width: 300px; height: 300px;"" />
              </div>","null",""
"","","","","","html-keyboard-response","67","227472","0.0-67.0","C083122313ED412FA4EB27591D1A7887","9562c342-5f03-49d0-8b57-925f0d065daa","61e1ec61-13c7-4a8f-bf47-a91ec9909364","","null","<div style=""display: flex; justify-content: center; align-items: center;"">
                <img src=""images/causal/causal_series_11/causal_series_11_c.jpg"" style=""width: 300px; height: 300px;"" />
              </div>","null",""
"","","","","","html-button-response","68","228210","0.0-68.0","C083122313ED412FA4EB27591D1A7887","9562c342-5f03-49d0-8b57-925f0d065daa","61e1ec61-13c7-4a8f-bf47-a91ec9909364","","737","
    <div style=""display: flex; justify-content: center; align-items: center;"">
      <img src=""images/red_deck_2.png"" style=""width: 300px; height: 300px; margin-right: 10px;"" />
      <img src=""images/blue_deck_1.png"" style=""width: 300px; height: 300px;"" />
    </div>","1","1"
"","","","","","html-keyboard-response","69","231219","0.0-69.0-1.0-0.0","C083122313ED412FA4EB27591D1A7887","9562c342-5f03-49d0-8b57-925f0d065daa","61e1ec61-13c7-4a8f-bf47-a91ec9909364","","null","<div style=""display: flex; justify-content: center; align-items: center;"">
                <img src=""images/semantic/semantic_series_10/semantic_series_10_d.jpg"" style=""width: 300px; height: 300px;"" />
              </div>","null",""
"","","","","","html-keyboard-response","70","234228","0.0-70.0","C083122313ED412FA4EB27591D1A7887","9562c342-5f03-49d0-8b57-925f0d065daa","61e1ec61-13c7-4a8f-bf47-a91ec9909364","","null","<div style=""display: flex; justify-content: center; align-items: center;"">
                <img src=""images/other/blank.jpg"" style=""width: 300px; height: 300px;"" />
              </div>","null",""
"","","","","","html-keyboard-response","71","237232","0.0-71.0","C083122313ED412FA4EB27591D1A7887","9562c342-5f03-49d0-8b57-925f0d065daa","61e1ec61-13c7-4a8f-bf47-a91ec9909364","","null","<div style=""display: flex; justify-content: center; align-items: center;"">
                <img src=""images/causal/causal_series_9/causal_series_9_a.jpg"" style=""width: 300px; height: 300px;"" />
              </div>","null",""
"","","","","","html-keyboard-response","72","240243","0.0-72.0","C083122313ED412FA4EB27591D1A7887","9562c342-5f03-49d0-8b57-925f0d065daa","61e1ec61-13c7-4a8f-bf47-a91ec9909364","","null","<div style=""display: flex; justify-content: center; align-items: center;"">
                <img src=""images/causal/causal_series_9/causal_series_9_b.jpg"" style=""width: 300px; height: 300px;"" />
              </div>","null",""
"","","","","","html-keyboard-response","73","243254","0.0-73.0","C083122313ED412FA4EB27591D1A7887","9562c342-5f03-49d0-8b57-925f0d065daa","61e1ec61-13c7-4a8f-bf47-a91ec9909364","","null","<div style=""display: flex; justify-content: center; align-items: center;"">
                <img src=""images/causal/causal_series_9/causal_series_9_c.jpg"" style=""width: 300px; height: 300px;"" />
              </div>","null",""
"","","","","","html-button-response","74","244358","0.0-74.0","C083122313ED412FA4EB27591D1A7887","9562c342-5f03-49d0-8b57-925f0d065daa","61e1ec61-13c7-4a8f-bf47-a91ec9909364","","1103","
    <div style=""display: flex; justify-content: center; align-items: center;"">
      <img src=""images/red_deck_2.png"" style=""width: 300px; height: 300px; margin-right: 10px;"" />
      <img src=""images/blue_deck_1.png"" style=""width: 300px; height: 300px;"" />
    </div>","1","1"
"","","","","","html-keyboard-response","75","247373","0.0-75.0-1.0-0.0","C083122313ED412FA4EB27591D1A7887","9562c342-5f03-49d0-8b57-925f0d065daa","61e1ec61-13c7-4a8f-bf47-a91ec9909364","","null","<div style=""display: flex; justify-content: center; align-items: center;"">
                <img src=""images/semantic/semantic_series_8/semantic_series_8_d.jpg"" style=""width: 300px; height: 300px;"" />
              </div>","null",""
"","","","","","html-keyboard-response","76","250387","0.0-76.0","C083122313ED412FA4EB27591D1A7887","9562c342-5f03-49d0-8b57-925f0d065daa","61e1ec61-13c7-4a8f-bf47-a91ec9909364","","null","<div style=""display: flex; justify-content: center; align-items: center;"">
                <img src=""images/other/blank.jpg"" style=""width: 300px; height: 300px;"" />
              </div>","null",""
"","","","","","html-keyboard-response","77","253400","0.0-77.0","C083122313ED412FA4EB27591D1A7887","9562c342-5f03-49d0-8b57-925f0d065daa","61e1ec61-13c7-4a8f-bf47-a91ec9909364","","null","<div style=""display: flex; justify-content: center; align-items: center;"">
                <img src=""images/causal/causal_series_16/causal_series_16_a.jpg"" style=""width: 300px; height: 300px;"" />
              </div>","null",""
"","","","","","html-keyboard-response","78","256412","0.0-78.0","C083122313ED412FA4EB27591D1A7887","9562c342-5f03-49d0-8b57-925f0d065daa","61e1ec61-13c7-4a8f-bf47-a91ec9909364","","null","<div style=""display: flex; justify-content: center; align-items: center;"">
                <img src=""images/causal/causal_series_16/causal_series_16_b.jpg"" style=""width: 300px; height: 300px;"" />
              </div>","null",""
"","","","","","html-keyboard-response","79","259420","0.0-79.0","C083122313ED412FA4EB27591D1A7887","9562c342-5f03-49d0-8b57-925f0d065daa","61e1ec61-13c7-4a8f-bf47-a91ec9909364","","null","<div style=""display: flex; justify-content: center; align-items: center;"">
                <img src=""images/causal/causal_series_16/causal_series_16_c.jpg"" style=""width: 300px; height: 300px;"" />
              </div>","null",""
"","","","","","html-button-response","80","261844","0.0-80.0","C083122313ED412FA4EB27591D1A7887","9562c342-5f03-49d0-8b57-925f0d065daa","61e1ec61-13c7-4a8f-bf47-a91ec9909364","","2423","
    <div style=""display: flex; justify-content: center; align-items: center;"">
      <img src=""images/red_deck_2.png"" style=""width: 300px; height: 300px; margin-right: 10px;"" />
      <img src=""images/blue_deck_1.png"" style=""width: 300px; height: 300px;"" />
    </div>","0","0"
"","","","","","html-keyboard-response","81","264847","0.0-81.0-0.0-0.0","C083122313ED412FA4EB27591D1A7887","9562c342-5f03-49d0-8b57-925f0d065daa","61e1ec61-13c7-4a8f-bf47-a91ec9909364","","null","<div style=""display: flex; justify-content: center; align-items: center;"">
                <img src=""images/causal/causal_series_16/causal_series_16_d.jpg"" style=""width: 300px; height: 300px;"" />
              </div>","null",""
"","","","","","html-keyboard-response","82","267853","0.0-82.0","C083122313ED412FA4EB27591D1A7887","9562c342-5f03-49d0-8b57-925f0d065daa","61e1ec61-13c7-4a8f-bf47-a91ec9909364","","null","<div style=""display: flex; justify-content: center; align-items: center;"">
                <img src=""images/other/blank.jpg"" style=""width: 300px; height: 300px;"" />
              </div>","null",""
"","","","","","html-keyboard-response","83","270866","0.0-83.0","C083122313ED412FA4EB27591D1A7887","9562c342-5f03-49d0-8b57-925f0d065daa","61e1ec61-13c7-4a8f-bf47-a91ec9909364","","null","<div style=""display: flex; justify-content: center; align-items: center;"">
                <img src=""images/causal/causal_series_15/causal_series_15_a.jpg"" style=""width: 300px; height: 300px;"" />
              </div>","null",""
"","","","","","html-keyboard-response","84","273871","0.0-84.0","C083122313ED412FA4EB27591D1A7887","9562c342-5f03-49d0-8b57-925f0d065daa","61e1ec61-13c7-4a8f-bf47-a91ec9909364","","null","<div style=""display: flex; justify-content: center; align-items: center;"">
                <img src=""images/causal/causal_series_15/causal_series_15_b.jpg"" style=""width: 300px; height: 300px;"" />
              </div>","null",""
"","","","","","html-keyboard-response","85","276874","0.0-85.0","C083122313ED412FA4EB27591D1A7887","9562c342-5f03-49d0-8b57-925f0d065daa","61e1ec61-13c7-4a8f-bf47-a91ec9909364","","null","<div style=""display: flex; justify-content: center; align-items: center;"">
                <img src=""images/causal/causal_series_15/causal_series_15_c.jpg"" style=""width: 300px; height: 300px;"" />
              </div>","null",""
"","","","","","html-button-response","86","283724","0.0-86.0","C083122313ED412FA4EB27591D1A7887","9562c342-5f03-49d0-8b57-925f0d065daa","61e1ec61-13c7-4a8f-bf47-a91ec9909364","","6849","
    <div style=""display: flex; justify-content: center; align-items: center;"">
      <img src=""images/red_deck_2.png"" style=""width: 300px; height: 300px; margin-right: 10px;"" />
      <img src=""images/blue_deck_1.png"" style=""width: 300px; height: 300px;"" />
    </div>","0","0"
"","","","","","html-keyboard-response","87","286728","0.0-87.0-0.0-0.0","C083122313ED412FA4EB27591D1A7887","9562c342-5f03-49d0-8b57-925f0d065daa","61e1ec61-13c7-4a8f-bf47-a91ec9909364","","null","<div style=""display: flex; justify-content: center; align-items: center;"">
                <img src=""images/causal/causal_series_15/causal_series_15_d.jpg"" style=""width: 300px; height: 300px;"" />
              </div>","null",""
"","","","","","html-keyboard-response","88","289736","0.0-88.0","C083122313ED412FA4EB27591D1A7887","9562c342-5f03-49d0-8b57-925f0d065daa","61e1ec61-13c7-4a8f-bf47-a91ec9909364","","null","<div style=""display: flex; justify-content: center; align-items: center;"">
                <img src=""images/other/blank.jpg"" style=""width: 300px; height: 300px;"" />
              </div>","null",""
"","","","","","html-keyboard-response","89","292739","0.0-89.0","C083122313ED412FA4EB27591D1A7887","9562c342-5f03-49d0-8b57-925f0d065daa","61e1ec61-13c7-4a8f-bf47-a91ec9909364","","null","<div style=""display: flex; justify-content: center; align-items: center;"">
                <img src=""images/causal/causal_series_12/causal_series_12_a.jpg"" style=""width: 300px; height: 300px;"" />
              </div>","null",""
"","","","","","html-keyboard-response","90","295752","0.0-90.0","C083122313ED412FA4EB27591D1A7887","9562c342-5f03-49d0-8b57-925f0d065daa","61e1ec61-13c7-4a8f-bf47-a91ec9909364","","null","<div style=""display: flex; justify-content: center; align-items: center;"">
                <img src=""images/causal/causal_series_12/causal_series_12_b.jpg"" style=""width: 300px; height: 300px;"" />
              </div>","null",""
"","","","","","html-keyboard-response","91","298757","0.0-91.0","C083122313ED412FA4EB27591D1A7887","9562c342-5f03-49d0-8b57-925f0d065daa","61e1ec61-13c7-4a8f-bf47-a91ec9909364","","null","<div style=""display: flex; justify-content: center; align-items: center;"">
                <img src=""images/causal/causal_series_12/causal_series_12_c.jpg"" style=""width: 300px; height: 300px;"" />
              </div>","null",""
"","","","","","html-button-response","92","299442","0.0-92.0","C083122313ED412FA4EB27591D1A7887","9562c342-5f03-49d0-8b57-925f0d065daa","61e1ec61-13c7-4a8f-bf47-a91ec9909364","","685","
    <div style=""display: flex; justify-content: center; align-items: center;"">
      <img src=""images/red_deck_2.png"" style=""width: 300px; height: 300px; margin-right: 10px;"" />
      <img src=""images/blue_deck_1.png"" style=""width: 300px; height: 300px;"" />
    </div>","0","0"
"","","","","","html-keyboard-response","93","302457","0.0-93.0-0.0-0.0","C083122313ED412FA4EB27591D1A7887","9562c342-5f03-49d0-8b57-925f0d065daa","61e1ec61-13c7-4a8f-bf47-a91ec9909364","","null","<div style=""display: flex; justify-content: center; align-items: center;"">
                <img src=""images/causal/causal_series_12/causal_series_12_d.jpg"" style=""width: 300px; height: 300px;"" />
              </div>","null",""
"","","","","","html-keyboard-response","94","305471","0.0-94.0","C083122313ED412FA4EB27591D1A7887","9562c342-5f03-49d0-8b57-925f0d065daa","61e1ec61-13c7-4a8f-bf47-a91ec9909364","","null","<div style=""display: flex; justify-content: center; align-items: center;"">
                <img src=""images/other/blank.jpg"" style=""width: 300px; height: 300px;"" />
              </div>","null",""
"","","","","","html-keyboard-response","95","308480","0.0-95.0","C083122313ED412FA4EB27591D1A7887","9562c342-5f03-49d0-8b57-925f0d065daa","61e1ec61-13c7-4a8f-bf47-a91ec9909364","","null","<div style=""display: flex; justify-content: center; align-items: center;"">
                <img src=""images/causal/causal_series_2/causal_series_2_a.jpg"" style=""width: 300px; height: 300px;"" />
              </div>","null",""
"","","","","","html-keyboard-response","96","311490","0.0-96.0","C083122313ED412FA4EB27591D1A7887","9562c342-5f03-49d0-8b57-925f0d065daa","61e1ec61-13c7-4a8f-bf47-a91ec9909364","","null","<div style=""display: flex; justify-content: center; align-items: center;"">
                <img src=""images/causal/causal_series_2/causal_series_2_b.jpg"" style=""width: 300px; height: 300px;"" />
              </div>","null",""
"","","","","","html-keyboard-response","97","314497","0.0-97.0","C083122313ED412FA4EB27591D1A7887","9562c342-5f03-49d0-8b57-925f0d065daa","61e1ec61-13c7-4a8f-bf47-a91ec9909364","","null","<div style=""display: flex; justify-content: center; align-items: center;"">
                <img src=""images/causal/causal_series_2/causal_series_2_c.jpg"" style=""width: 300px; height: 300px;"" />
              </div>","null",""
"","","","","","html-button-response","98","316278","0.0-98.0","C083122313ED412FA4EB27591D1A7887","9562c342-5f03-49d0-8b57-925f0d065daa","61e1ec61-13c7-4a8f-bf47-a91ec9909364","","1780","
    <div style=""display: flex; justify-content: center; align-items: center;"">
      <img src=""images/red_deck_2.png"" style=""width: 300px; height: 300px; margin-right: 10px;"" />
      <img src=""images/blue_deck_1.png"" style=""width: 300px; height: 300px;"" />
    </div>","1","1"
"","","","","","html-keyboard-response","99","319289","0.0-99.0-1.0-0.0","C083122313ED412FA4EB27591D1A7887","9562c342-5f03-49d0-8b57-925f0d065daa","61e1ec61-13c7-4a8f-bf47-a91ec9909364","","null","<div style=""display: flex; justify-content: center; align-items: center;"">
                <img src=""images/semantic/semantic_series_1/semantic_series_1_d.jpg"" style=""width: 300px; height: 300px;"" />
              </div>","null",""
"","","","","","html-keyboard-response","100","322291","0.0-100.0","C083122313ED412FA4EB27591D1A7887","9562c342-5f03-49d0-8b57-925f0d065daa","61e1ec61-13c7-4a8f-bf47-a91ec9909364","","null","<div style=""display: flex; justify-content: center; align-items: center;"">
                <img src=""images/other/blank.jpg"" style=""width: 300px; height: 300px;"" />
              </div>","null",""
"","","","","","html-keyboard-response","101","325297","0.0-101.0","C083122313ED412FA4EB27591D1A7887","9562c342-5f03-49d0-8b57-925f0d065daa","61e1ec61-13c7-4a8f-bf47-a91ec9909364","","null","<div style=""display: flex; justify-content: center; align-items: center;"">
                <img src=""images/causal/causal_series_17/causal_series_17_a.jpg"" style=""width: 300px; height: 300px;"" />
              </div>","null",""
"","","","","","html-keyboard-response","102","328309","0.0-102.0","C083122313ED412FA4EB27591D1A7887","9562c342-5f03-49d0-8b57-925f0d065daa","61e1ec61-13c7-4a8f-bf47-a91ec9909364","","null","<div style=""display: flex; justify-content: center; align-items: center;"">
                <img src=""images/causal/causal_series_17/causal_series_17_b.jpg"" style=""width: 300px; height: 300px;"" />
              </div>","null",""
"","","","","","html-keyboard-response","103","331313","0.0-103.0","C083122313ED412FA4EB27591D1A7887","9562c342-5f03-49d0-8b57-925f0d065daa","61e1ec61-13c7-4a8f-bf47-a91ec9909364","","null","<div style=""display: flex; justify-content: center; align-items: center;"">
                <img src=""images/causal/causal_series_17/causal_series_17_c.jpg"" style=""width: 300px; height: 300px;"" />
              </div>","null",""
"","","","","","html-button-response","104","334088","0.0-104.0","C083122313ED412FA4EB27591D1A7887","9562c342-5f03-49d0-8b57-925f0d065daa","61e1ec61-13c7-4a8f-bf47-a91ec9909364","","2773","
    <div style=""display: flex; justify-content: center; align-items: center;"">
      <img src=""images/red_deck_2.png"" style=""width: 300px; height: 300px; margin-right: 10px;"" />
      <img src=""images/blue_deck_1.png"" style=""width: 300px; height: 300px;"" />
    </div>","1","1"
"","","","","","html-keyboard-response","105","337100","0.0-105.0-1.0-0.0","C083122313ED412FA4EB27591D1A7887","9562c342-5f03-49d0-8b57-925f0d065daa","61e1ec61-13c7-4a8f-bf47-a91ec9909364","","null","<div style=""display: flex; justify-content: center; align-items: center;"">
                <img src=""images/semantic/semantic_series_16/semantic_series_16_d.jpg"" style=""width: 300px; height: 300px;"" />
              </div>","null",""
"","","","","","html-keyboard-response","106","340107","0.0-106.0","C083122313ED412FA4EB27591D1A7887","9562c342-5f03-49d0-8b57-925f0d065daa","61e1ec61-13c7-4a8f-bf47-a91ec9909364","","null","<div style=""display: flex; justify-content: center; align-items: center;"">
                <img src=""images/other/blank.jpg"" style=""width: 300px; height: 300px;"" />
              </div>","null",""
"","","","","","html-keyboard-response","107","343119","0.0-107.0","C083122313ED412FA4EB27591D1A7887","9562c342-5f03-49d0-8b57-925f0d065daa","61e1ec61-13c7-4a8f-bf47-a91ec9909364","","null","<div style=""display: flex; justify-content: center; align-items: center;"">
                <img src=""images/causal/causal_series_8/causal_series_8_a.jpg"" style=""width: 300px; height: 300px;"" />
              </div>","null",""
"","","","","","html-keyboard-response","108","346123","0.0-108.0","C083122313ED412FA4EB27591D1A7887","9562c342-5f03-49d0-8b57-925f0d065daa","61e1ec61-13c7-4a8f-bf47-a91ec9909364","","null","<div style=""display: flex; justify-content: center; align-items: center;"">
                <img src=""images/causal/causal_series_8/causal_series_8_b.jpg"" style=""width: 300px; height: 300px;"" />
              </div>","null",""
"","","","","","html-keyboard-response","109","349133","0.0-109.0","C083122313ED412FA4EB27591D1A7887","9562c342-5f03-49d0-8b57-925f0d065daa","61e1ec61-13c7-4a8f-bf47-a91ec9909364","","null","<div style=""display: flex; justify-content: center; align-items: center;"">
                <img src=""images/causal/causal_series_8/causal_series_8_c.jpg"" style=""width: 300px; height: 300px;"" />
              </div>","null",""
"","","","","","html-button-response","110","350438","0.0-110.0","C083122313ED412FA4EB27591D1A7887","9562c342-5f03-49d0-8b57-925f0d065daa","61e1ec61-13c7-4a8f-bf47-a91ec9909364","","1304","
    <div style=""display: flex; justify-content: center; align-items: center;"">
      <img src=""images/red_deck_2.png"" style=""width: 300px; height: 300px; margin-right: 10px;"" />
      <img src=""images/blue_deck_1.png"" style=""width: 300px; height: 300px;"" />
    </div>","1","1"
"","","","","","html-keyboard-response","111","353444","0.0-111.0-1.0-0.0","C083122313ED412FA4EB27591D1A7887","9562c342-5f03-49d0-8b57-925f0d065daa","61e1ec61-13c7-4a8f-bf47-a91ec9909364","","null","<div style=""display: flex; justify-content: center; align-items: center;"">
                <img src=""images/semantic/semantic_series_7/semantic_series_7_d.jpg"" style=""width: 300px; height: 300px;"" />
              </div>","null",""
"","","","","","html-keyboard-response","112","356452","0.0-112.0","C083122313ED412FA4EB27591D1A7887","9562c342-5f03-49d0-8b57-925f0d065daa","61e1ec61-13c7-4a8f-bf47-a91ec9909364","","null","<div style=""display: flex; justify-content: center; align-items: center;"">
                <img src=""images/other/blank.jpg"" style=""width: 300px; height: 300px;"" />
              </div>","null",""
"","","","","","survey-text","113","398323","0.0-113.0","C083122313ED412FA4EB27591D1A7887","9562c342-5f03-49d0-8b57-925f0d065daa","61e1ec61-13c7-4a8f-bf47-a91ec9909364","","41855","","{""Q0"":""One would finish the story, while the other went with a random story to start off.""}",""
"","","","","","survey-text","114","414880","0.0-114.0","C083122313ED412FA4EB27591D1A7887","9562c342-5f03-49d0-8b57-925f0d065daa","61e1ec61-13c7-4a8f-bf47-a91ec9909364","","16542","","{""Q0"":""I would say both were interesting""}",""
"","","","","","html-button-response","115","428685","0.0-115.0","C083122313ED412FA4EB27591D1A7887","9562c342-5f03-49d0-8b57-925f0d065daa","61e1ec61-13c7-4a8f-bf47-a91ec9909364","","13804","Which color deck does the fourth image continue the story from the series?","1",""
"","","","","","html-button-response","116","431226","0.0-116.0","C083122313ED412FA4EB27591D1A7887","9562c342-5f03-49d0-8b57-925f0d065daa","61e1ec61-13c7-4a8f-bf47-a91ec9909364","","2540","Which color deck does the fourth image not follow the story from the series?","0",""
"","","","","","survey-text","117","439240","0.0-117.0","C083122313ED412FA4EB27591D1A7887","9562c342-5f03-49d0-8b57-925f0d065daa","61e1ec61-13c7-4a8f-bf47-a91ec9909364","","7995","","{""Q0"":""MALE"",""Q1"":""22""}",""
"","","","","","instructions","118","446328","0.0-118.0","C083122313ED412FA4EB27591D1A7887","9562c342-5f03-49d0-8b57-925f0d065daa","61e1ec61-13c7-4a8f-bf47-a91ec9909364","[{""page_index"":0,""viewing_time"":7086}]","7086","","",""
