"success","timeout","failed_images","failed_audio","failed_video","trial_type","trial_index","time_elapsed","internal_node_id","subject_id","study_id","session_id","view_history","rt","stimulus","response","choice"
"true","false","[]","[]","[]","preload","0","5982","0.0-0.0","811D1726C59944EF8FE0D3986C5B7FB5","8bda8a43-0542-41f2-849f-6c7ede4c8912","61e1ec61-13c7-4a8f-bf47-a91ec9909364","","","","",""
"","","","","","instructions","1","10681","0.0-1.0","811D1726C59944EF8FE0D3986C5B7FB5","8bda8a43-0542-41f2-849f-6c7ede4c8912","61e1ec61-13c7-4a8f-bf47-a91ec9909364","[{""page_index"":0,""viewing_time"":4699}]","4699","","",""
"","","","","","instructions","2","16317","0.0-2.0","811D1726C59944EF8FE0D3986C5B7FB5","8bda8a43-0542-41f2-849f-6c7ede4c8912","61e1ec61-13c7-4a8f-bf47-a91ec9909364","[{""page_index"":0,""viewing_time"":5636}]","5636","","",""
"true","","","","","fullscreen","3","19134","0.0-3.0","811D1726C59944EF8FE0D3986C5B7FB5","8bda8a43-0542-41f2-849f-6c7ede4c8912","61e1ec61-13c7-4a8f-bf47-a91ec9909364","","1814","","",""
"","","","","","instructions","4","37100","0.0-4.0","811D1726C59944EF8FE0D3986C5B7FB5","8bda8a43-0542-41f2-849f-6c7ede4c8912","61e1ec61-13c7-4a8f-bf47-a91ec9909364","[{""page_index"":0,""viewing_time"":17966}]","17966","","",""
"","","","","","html-keyboard-response","5","40106","0.0-5.0","811D1726C59944EF8FE0D3986C5B7FB5","8bda8a43-0542-41f2-849f-6c7ede4c8912","61e1ec61-13c7-4a8f-bf47-a91ec9909364","","null","<div style=""display: flex; justify-content: center; align-items: center;"">
                <img src=""images/causal/causal_series_9/causal_series_9_a.jpg"" style=""width: 300px; height: 300px;"" />
              </div>","null",""
"","","","","","html-keyboard-response","6","43117","0.0-6.0","811D1726C59944EF8FE0D3986C5B7FB5","8bda8a43-0542-41f2-849f-6c7ede4c8912","61e1ec61-13c7-4a8f-bf47-a91ec9909364","","null","<div style=""display: flex; justify-content: center; align-items: center;"">
                <img src=""images/causal/causal_series_9/causal_series_9_b.jpg"" style=""width: 300px; height: 300px;"" />
              </div>","null",""
"","","","","","html-keyboard-response","7","46132","0.0-7.0","811D1726C59944EF8FE0D3986C5B7FB5","8bda8a43-0542-41f2-849f-6c7ede4c8912","61e1ec61-13c7-4a8f-bf47-a91ec9909364","","null","<div style=""display: flex; justify-content: center; align-items: center;"">
                <img src=""images/causal/causal_series_9/causal_series_9_c.jpg"" style=""width: 300px; height: 300px;"" />
              </div>","null",""
"","","","","","html-button-response","8","48384","0.0-8.0","811D1726C59944EF8FE0D3986C5B7FB5","8bda8a43-0542-41f2-849f-6c7ede4c8912","61e1ec61-13c7-4a8f-bf47-a91ec9909364","","2251","
    <div style=""display: flex; justify-content: center; align-items: center;"">
      <img src=""images/red_deck_2.png"" style=""width: 300px; height: 300px; margin-right: 10px;"" />
      <img src=""images/blue_deck_1.png"" style=""width: 300px; height: 300px;"" />
    </div>","1","1"
"","","","","","html-keyboard-response","9","51386","0.0-9.0-1.0-0.0","811D1726C59944EF8FE0D3986C5B7FB5","8bda8a43-0542-41f2-849f-6c7ede4c8912","61e1ec61-13c7-4a8f-bf47-a91ec9909364","","null","<div style=""display: flex; justify-content: center; align-items: center;"">
                <img src=""images/semantic/semantic_series_8/semantic_series_8_d.jpg"" style=""width: 300px; height: 300px;"" />
              </div>","null",""
"","","","","","html-keyboard-response","10","54388","0.0-10.0","811D1726C59944EF8FE0D3986C5B7FB5","8bda8a43-0542-41f2-849f-6c7ede4c8912","61e1ec61-13c7-4a8f-bf47-a91ec9909364","","null","<div style=""display: flex; justify-content: center; align-items: center;"">
                <img src=""images/other/blank.jpg"" style=""width: 300px; height: 300px;"" />
              </div>","null",""
"","","","","","html-keyboard-response","11","57392","0.0-11.0","811D1726C59944EF8FE0D3986C5B7FB5","8bda8a43-0542-41f2-849f-6c7ede4c8912","61e1ec61-13c7-4a8f-bf47-a91ec9909364","","null","<div style=""display: flex; justify-content: center; align-items: center;"">
                <img src=""images/causal/causal_series_4/causal_series_4_a.jpg"" style=""width: 300px; height: 300px;"" />
              </div>","null",""
"","","","","","html-keyboard-response","12","60401","0.0-12.0","811D1726C59944EF8FE0D3986C5B7FB5","8bda8a43-0542-41f2-849f-6c7ede4c8912","61e1ec61-13c7-4a8f-bf47-a91ec9909364","","null","<div style=""display: flex; justify-content: center; align-items: center;"">
                <img src=""images/causal/causal_series_4/causal_series_4_b.jpg"" style=""width: 300px; height: 300px;"" />
              </div>","null",""
"","","","","","html-keyboard-response","13","63408","0.0-13.0","811D1726C59944EF8FE0D3986C5B7FB5","8bda8a43-0542-41f2-849f-6c7ede4c8912","61e1ec61-13c7-4a8f-bf47-a91ec9909364","","null","<div style=""display: flex; justify-content: center; align-items: center;"">
                <img src=""images/causal/causal_series_4/causal_series_4_c.jpg"" style=""width: 300px; height: 300px;"" />
              </div>","null",""
"","","","","","html-button-response","14","64745","0.0-14.0","811D1726C59944EF8FE0D3986C5B7FB5","8bda8a43-0542-41f2-849f-6c7ede4c8912","61e1ec61-13c7-4a8f-bf47-a91ec9909364","","1336","
    <div style=""display: flex; justify-content: center; align-items: center;"">
      <img src=""images/red_deck_2.png"" style=""width: 300px; height: 300px; margin-right: 10px;"" />
      <img src=""images/blue_deck_1.png"" style=""width: 300px; height: 300px;"" />
    </div>","1","1"
"","","","","","html-keyboard-response","15","67757","0.0-15.0-1.0-0.0","811D1726C59944EF8FE0D3986C5B7FB5","8bda8a43-0542-41f2-849f-6c7ede4c8912","61e1ec61-13c7-4a8f-bf47-a91ec9909364","","null","<div style=""display: flex; justify-content: center; align-items: center;"">
                <img src=""images/semantic/semantic_series_3/semantic_series_3_d.jpg"" style=""width: 300px; height: 300px;"" />
              </div>","null",""
"","","","","","html-keyboard-response","16","70763","0.0-16.0","811D1726C59944EF8FE0D3986C5B7FB5","8bda8a43-0542-41f2-849f-6c7ede4c8912","61e1ec61-13c7-4a8f-bf47-a91ec9909364","","null","<div style=""display: flex; justify-content: center; align-items: center;"">
                <img src=""images/other/blank.jpg"" style=""width: 300px; height: 300px;"" />
              </div>","null",""
"","","","","","html-keyboard-response","17","73773","0.0-17.0","811D1726C59944EF8FE0D3986C5B7FB5","8bda8a43-0542-41f2-849f-6c7ede4c8912","61e1ec61-13c7-4a8f-bf47-a91ec9909364","","null","<div style=""display: flex; justify-content: center; align-items: center;"">
                <img src=""images/causal/causal_series_1/causal_series_1_a.jpg"" style=""width: 300px; height: 300px;"" />
              </div>","null",""
"","","","","","html-keyboard-response","18","76780","0.0-18.0","811D1726C59944EF8FE0D3986C5B7FB5","8bda8a43-0542-41f2-849f-6c7ede4c8912","61e1ec61-13c7-4a8f-bf47-a91ec9909364","","null","<div style=""display: flex; justify-content: center; align-items: center;"">
                <img src=""images/causal/causal_series_1/causal_series_1_b.jpg"" style=""width: 300px; height: 300px;"" />
              </div>","null",""
"","","","","","html-keyboard-response","19","79792","0.0-19.0","811D1726C59944EF8FE0D3986C5B7FB5","8bda8a43-0542-41f2-849f-6c7ede4c8912","61e1ec61-13c7-4a8f-bf47-a91ec9909364","","null","<div style=""display: flex; justify-content: center; align-items: center;"">
                <img src=""images/causal/causal_series_1/causal_series_1_c.jpg"" style=""width: 300px; height: 300px;"" />
              </div>","null",""
"","","","","","html-button-response","20","86479","0.0-20.0","811D1726C59944EF8FE0D3986C5B7FB5","8bda8a43-0542-41f2-849f-6c7ede4c8912","61e1ec61-13c7-4a8f-bf47-a91ec9909364","","6685","
    <div style=""display: flex; justify-content: center; align-items: center;"">
      <img src=""images/red_deck_2.png"" style=""width: 300px; height: 300px; margin-right: 10px;"" />
      <img src=""images/blue_deck_1.png"" style=""width: 300px; height: 300px;"" />
    </div>","0","0"
"","","","","","html-keyboard-response","21","89483","0.0-21.0-0.0-0.0","811D1726C59944EF8FE0D3986C5B7FB5","8bda8a43-0542-41f2-849f-6c7ede4c8912","61e1ec61-13c7-4a8f-bf47-a91ec9909364","","null","<div style=""display: flex; justify-content: center; align-items: center;"">
                <img src=""images/causal/causal_series_1/causal_series_1_d.jpg"" style=""width: 300px; height: 300px;"" />
              </div>","null",""
"","","","","","html-keyboard-response","22","92498","0.0-22.0","811D1726C59944EF8FE0D3986C5B7FB5","8bda8a43-0542-41f2-849f-6c7ede4c8912","61e1ec61-13c7-4a8f-bf47-a91ec9909364","","null","<div style=""display: flex; justify-content: center; align-items: center;"">
                <img src=""images/other/blank.jpg"" style=""width: 300px; height: 300px;"" />
              </div>","null",""
"","","","","","html-keyboard-response","23","95502","0.0-23.0","811D1726C59944EF8FE0D3986C5B7FB5","8bda8a43-0542-41f2-849f-6c7ede4c8912","61e1ec61-13c7-4a8f-bf47-a91ec9909364","","null","<div style=""display: flex; justify-content: center; align-items: center;"">
                <img src=""images/causal/causal_series_12/causal_series_12_a.jpg"" style=""width: 300px; height: 300px;"" />
              </div>","null",""
"","","","","","html-keyboard-response","24","98518","0.0-24.0","811D1726C59944EF8FE0D3986C5B7FB5","8bda8a43-0542-41f2-849f-6c7ede4c8912","61e1ec61-13c7-4a8f-bf47-a91ec9909364","","null","<div style=""display: flex; justify-content: center; align-items: center;"">
                <img src=""images/causal/causal_series_12/causal_series_12_b.jpg"" style=""width: 300px; height: 300px;"" />
              </div>","null",""
"","","","","","html-keyboard-response","25","101520","0.0-25.0","811D1726C59944EF8FE0D3986C5B7FB5","8bda8a43-0542-41f2-849f-6c7ede4c8912","61e1ec61-13c7-4a8f-bf47-a91ec9909364","","null","<div style=""display: flex; justify-content: center; align-items: center;"">
                <img src=""images/causal/causal_series_12/causal_series_12_c.jpg"" style=""width: 300px; height: 300px;"" />
              </div>","null",""
"","","","","","html-button-response","26","122918","0.0-26.0","811D1726C59944EF8FE0D3986C5B7FB5","8bda8a43-0542-41f2-849f-6c7ede4c8912","61e1ec61-13c7-4a8f-bf47-a91ec9909364","","21397","
    <div style=""display: flex; justify-content: center; align-items: center;"">
      <img src=""images/red_deck_2.png"" style=""width: 300px; height: 300px; margin-right: 10px;"" />
      <img src=""images/blue_deck_1.png"" style=""width: 300px; height: 300px;"" />
    </div>","1","1"
"","","","","","html-keyboard-response","27","125931","0.0-27.0-1.0-0.0","811D1726C59944EF8FE0D3986C5B7FB5","8bda8a43-0542-41f2-849f-6c7ede4c8912","61e1ec61-13c7-4a8f-bf47-a91ec9909364","","null","<div style=""display: flex; justify-content: center; align-items: center;"">
                <img src=""images/semantic/semantic_series_11/semantic_series_11_d.jpg"" style=""width: 300px; height: 300px;"" />
              </div>","null",""
"","","","","","html-keyboard-response","28","128943","0.0-28.0","811D1726C59944EF8FE0D3986C5B7FB5","8bda8a43-0542-41f2-849f-6c7ede4c8912","61e1ec61-13c7-4a8f-bf47-a91ec9909364","","null","<div style=""display: flex; justify-content: center; align-items: center;"">
                <img src=""images/other/blank.jpg"" style=""width: 300px; height: 300px;"" />
              </div>","null",""
"","","","","","html-keyboard-response","29","131956","0.0-29.0","811D1726C59944EF8FE0D3986C5B7FB5","8bda8a43-0542-41f2-849f-6c7ede4c8912","61e1ec61-13c7-4a8f-bf47-a91ec9909364","","null","<div style=""display: flex; justify-content: center; align-items: center;"">
                <img src=""images/causal/causal_series_11/causal_series_11_a.jpg"" style=""width: 300px; height: 300px;"" />
              </div>","null",""
"","","","","","html-keyboard-response","30","134964","0.0-30.0","811D1726C59944EF8FE0D3986C5B7FB5","8bda8a43-0542-41f2-849f-6c7ede4c8912","61e1ec61-13c7-4a8f-bf47-a91ec9909364","","null","<div style=""display: flex; justify-content: center; align-items: center;"">
                <img src=""images/causal/causal_series_11/causal_series_11_b.jpg"" style=""width: 300px; height: 300px;"" />
              </div>","null",""
"","","","","","html-keyboard-response","31","137979","0.0-31.0","811D1726C59944EF8FE0D3986C5B7FB5","8bda8a43-0542-41f2-849f-6c7ede4c8912","61e1ec61-13c7-4a8f-bf47-a91ec9909364","","null","<div style=""display: flex; justify-content: center; align-items: center;"">
                <img src=""images/causal/causal_series_11/causal_series_11_c.jpg"" style=""width: 300px; height: 300px;"" />
              </div>","null",""
"","","","","","html-button-response","32","139839","0.0-32.0","811D1726C59944EF8FE0D3986C5B7FB5","8bda8a43-0542-41f2-849f-6c7ede4c8912","61e1ec61-13c7-4a8f-bf47-a91ec9909364","","1860","
    <div style=""display: flex; justify-content: center; align-items: center;"">
      <img src=""images/red_deck_2.png"" style=""width: 300px; height: 300px; margin-right: 10px;"" />
      <img src=""images/blue_deck_1.png"" style=""width: 300px; height: 300px;"" />
    </div>","0","0"
"","","","","","html-keyboard-response","33","142857","0.0-33.0-0.0-0.0","811D1726C59944EF8FE0D3986C5B7FB5","8bda8a43-0542-41f2-849f-6c7ede4c8912","61e1ec61-13c7-4a8f-bf47-a91ec9909364","","null","<div style=""display: flex; justify-content: center; align-items: center;"">
                <img src=""images/causal/causal_series_11/causal_series_11_d.jpg"" style=""width: 300px; height: 300px;"" />
              </div>","null",""
"","","","","","html-keyboard-response","34","145859","0.0-34.0","811D1726C59944EF8FE0D3986C5B7FB5","8bda8a43-0542-41f2-849f-6c7ede4c8912","61e1ec61-13c7-4a8f-bf47-a91ec9909364","","null","<div style=""display: flex; justify-content: center; align-items: center;"">
                <img src=""images/other/blank.jpg"" style=""width: 300px; height: 300px;"" />
              </div>","null",""
"","","","","","html-keyboard-response","35","148873","0.0-35.0","811D1726C59944EF8FE0D3986C5B7FB5","8bda8a43-0542-41f2-849f-6c7ede4c8912","61e1ec61-13c7-4a8f-bf47-a91ec9909364","","null","<div style=""display: flex; justify-content: center; align-items: center;"">
                <img src=""images/causal/causal_series_5/causal_series_5_a.jpg"" style=""width: 300px; height: 300px;"" />
              </div>","null",""
"","","","","","html-keyboard-response","36","151881","0.0-36.0","811D1726C59944EF8FE0D3986C5B7FB5","8bda8a43-0542-41f2-849f-6c7ede4c8912","61e1ec61-13c7-4a8f-bf47-a91ec9909364","","null","<div style=""display: flex; justify-content: center; align-items: center;"">
                <img src=""images/causal/causal_series_5/causal_series_5_b.jpg"" style=""width: 300px; height: 300px;"" />
              </div>","null",""
"","","","","","html-keyboard-response","37","154897","0.0-37.0","811D1726C59944EF8FE0D3986C5B7FB5","8bda8a43-0542-41f2-849f-6c7ede4c8912","61e1ec61-13c7-4a8f-bf47-a91ec9909364","","null","<div style=""display: flex; justify-content: center; align-items: center;"">
                <img src=""images/causal/causal_series_5/causal_series_5_c.jpg"" style=""width: 300px; height: 300px;"" />
              </div>","null",""
"","","","","","html-button-response","38","156672","0.0-38.0","811D1726C59944EF8FE0D3986C5B7FB5","8bda8a43-0542-41f2-849f-6c7ede4c8912","61e1ec61-13c7-4a8f-bf47-a91ec9909364","","1774","
    <div style=""display: flex; justify-content: center; align-items: center;"">
      <img src=""images/red_deck_2.png"" style=""width: 300px; height: 300px; margin-right: 10px;"" />
      <img src=""images/blue_deck_1.png"" style=""width: 300px; height: 300px;"" />
    </div>","0","0"
"","","","","","html-keyboard-response","39","159685","0.0-39.0-0.0-0.0","811D1726C59944EF8FE0D3986C5B7FB5","8bda8a43-0542-41f2-849f-6c7ede4c8912","61e1ec61-13c7-4a8f-bf47-a91ec9909364","","null","<div style=""display: flex; justify-content: center; align-items: center;"">
                <img src=""images/causal/causal_series_5/causal_series_5_d.jpg"" style=""width: 300px; height: 300px;"" />
              </div>","null",""
"","","","","","html-keyboard-response","40","162692","0.0-40.0","811D1726C59944EF8FE0D3986C5B7FB5","8bda8a43-0542-41f2-849f-6c7ede4c8912","61e1ec61-13c7-4a8f-bf47-a91ec9909364","","null","<div style=""display: flex; justify-content: center; align-items: center;"">
                <img src=""images/other/blank.jpg"" style=""width: 300px; height: 300px;"" />
              </div>","null",""
"","","","","","html-keyboard-response","41","165699","0.0-41.0","811D1726C59944EF8FE0D3986C5B7FB5","8bda8a43-0542-41f2-849f-6c7ede4c8912","61e1ec61-13c7-4a8f-bf47-a91ec9909364","","null","<div style=""display: flex; justify-content: center; align-items: center;"">
                <img src=""images/causal/causal_series_15/causal_series_15_a.jpg"" style=""width: 300px; height: 300px;"" />
              </div>","null",""
"","","","","","html-keyboard-response","42","168702","0.0-42.0","811D1726C59944EF8FE0D3986C5B7FB5","8bda8a43-0542-41f2-849f-6c7ede4c8912","61e1ec61-13c7-4a8f-bf47-a91ec9909364","","null","<div style=""display: flex; justify-content: center; align-items: center;"">
                <img src=""images/causal/causal_series_15/causal_series_15_b.jpg"" style=""width: 300px; height: 300px;"" />
              </div>","null",""
"","","","","","html-keyboard-response","43","171705","0.0-43.0","811D1726C59944EF8FE0D3986C5B7FB5","8bda8a43-0542-41f2-849f-6c7ede4c8912","61e1ec61-13c7-4a8f-bf47-a91ec9909364","","null","<div style=""display: flex; justify-content: center; align-items: center;"">
                <img src=""images/causal/causal_series_15/causal_series_15_c.jpg"" style=""width: 300px; height: 300px;"" />
              </div>","null",""
"","","","","","html-button-response","44","173457","0.0-44.0","811D1726C59944EF8FE0D3986C5B7FB5","8bda8a43-0542-41f2-849f-6c7ede4c8912","61e1ec61-13c7-4a8f-bf47-a91ec9909364","","1751","
    <div style=""display: flex; justify-content: center; align-items: center;"">
      <img src=""images/red_deck_2.png"" style=""width: 300px; height: 300px; margin-right: 10px;"" />
      <img src=""images/blue_deck_1.png"" style=""width: 300px; height: 300px;"" />
    </div>","1","1"
"","","","","","html-keyboard-response","45","176467","0.0-45.0-1.0-0.0","811D1726C59944EF8FE0D3986C5B7FB5","8bda8a43-0542-41f2-849f-6c7ede4c8912","61e1ec61-13c7-4a8f-bf47-a91ec9909364","","null","<div style=""display: flex; justify-content: center; align-items: center;"">
                <img src=""images/semantic/semantic_series_14/semantic_series_14_d.jpg"" style=""width: 300px; height: 300px;"" />
              </div>","null",""
"","","","","","html-keyboard-response","46","179474","0.0-46.0","811D1726C59944EF8FE0D3986C5B7FB5","8bda8a43-0542-41f2-849f-6c7ede4c8912","61e1ec61-13c7-4a8f-bf47-a91ec9909364","","null","<div style=""display: flex; justify-content: center; align-items: center;"">
                <img src=""images/other/blank.jpg"" style=""width: 300px; height: 300px;"" />
              </div>","null",""
"","","","","","html-keyboard-response","47","182482","0.0-47.0","811D1726C59944EF8FE0D3986C5B7FB5","8bda8a43-0542-41f2-849f-6c7ede4c8912","61e1ec61-13c7-4a8f-bf47-a91ec9909364","","null","<div style=""display: flex; justify-content: center; align-items: center;"">
                <img src=""images/causal/causal_series_17/causal_series_17_a.jpg"" style=""width: 300px; height: 300px;"" />
              </div>","null",""
"","","","","","html-keyboard-response","48","185487","0.0-48.0","811D1726C59944EF8FE0D3986C5B7FB5","8bda8a43-0542-41f2-849f-6c7ede4c8912","61e1ec61-13c7-4a8f-bf47-a91ec9909364","","null","<div style=""display: flex; justify-content: center; align-items: center;"">
                <img src=""images/causal/causal_series_17/causal_series_17_b.jpg"" style=""width: 300px; height: 300px;"" />
              </div>","null",""
"","","","","","html-keyboard-response","49","188491","0.0-49.0","811D1726C59944EF8FE0D3986C5B7FB5","8bda8a43-0542-41f2-849f-6c7ede4c8912","61e1ec61-13c7-4a8f-bf47-a91ec9909364","","null","<div style=""display: flex; justify-content: center; align-items: center;"">
                <img src=""images/causal/causal_series_17/causal_series_17_c.jpg"" style=""width: 300px; height: 300px;"" />
              </div>","null",""
"","","","","","html-button-response","50","191696","0.0-50.0","811D1726C59944EF8FE0D3986C5B7FB5","8bda8a43-0542-41f2-849f-6c7ede4c8912","61e1ec61-13c7-4a8f-bf47-a91ec9909364","","3205","
    <div style=""display: flex; justify-content: center; align-items: center;"">
      <img src=""images/red_deck_2.png"" style=""width: 300px; height: 300px; margin-right: 10px;"" />
      <img src=""images/blue_deck_1.png"" style=""width: 300px; height: 300px;"" />
    </div>","1","1"
"","","","","","html-keyboard-response","51","194709","0.0-51.0-1.0-0.0","811D1726C59944EF8FE0D3986C5B7FB5","8bda8a43-0542-41f2-849f-6c7ede4c8912","61e1ec61-13c7-4a8f-bf47-a91ec9909364","","null","<div style=""display: flex; justify-content: center; align-items: center;"">
                <img src=""images/semantic/semantic_series_16/semantic_series_16_d.jpg"" style=""width: 300px; height: 300px;"" />
              </div>","null",""
"","","","","","html-keyboard-response","52","197720","0.0-52.0","811D1726C59944EF8FE0D3986C5B7FB5","8bda8a43-0542-41f2-849f-6c7ede4c8912","61e1ec61-13c7-4a8f-bf47-a91ec9909364","","null","<div style=""display: flex; justify-content: center; align-items: center;"">
                <img src=""images/other/blank.jpg"" style=""width: 300px; height: 300px;"" />
              </div>","null",""
"","","","","","html-keyboard-response","53","200725","0.0-53.0","811D1726C59944EF8FE0D3986C5B7FB5","8bda8a43-0542-41f2-849f-6c7ede4c8912","61e1ec61-13c7-4a8f-bf47-a91ec9909364","","null","<div style=""display: flex; justify-content: center; align-items: center;"">
                <img src=""images/causal/causal_series_18/causal_series_18_a.jpg"" style=""width: 300px; height: 300px;"" />
              </div>","null",""
"","","","","","html-keyboard-response","54","203732","0.0-54.0","811D1726C59944EF8FE0D3986C5B7FB5","8bda8a43-0542-41f2-849f-6c7ede4c8912","61e1ec61-13c7-4a8f-bf47-a91ec9909364","","null","<div style=""display: flex; justify-content: center; align-items: center;"">
                <img src=""images/causal/causal_series_18/causal_series_18_b.jpg"" style=""width: 300px; height: 300px;"" />
              </div>","null",""
"","","","","","html-keyboard-response","55","206746","0.0-55.0","811D1726C59944EF8FE0D3986C5B7FB5","8bda8a43-0542-41f2-849f-6c7ede4c8912","61e1ec61-13c7-4a8f-bf47-a91ec9909364","","null","<div style=""display: flex; justify-content: center; align-items: center;"">
                <img src=""images/causal/causal_series_18/causal_series_18_c.jpg"" style=""width: 300px; height: 300px;"" />
              </div>","null",""
"","","","","","html-button-response","56","209152","0.0-56.0","811D1726C59944EF8FE0D3986C5B7FB5","8bda8a43-0542-41f2-849f-6c7ede4c8912","61e1ec61-13c7-4a8f-bf47-a91ec9909364","","2405","
    <div style=""display: flex; justify-content: center; align-items: center;"">
      <img src=""images/red_deck_2.png"" style=""width: 300px; height: 300px; margin-right: 10px;"" />
      <img src=""images/blue_deck_1.png"" style=""width: 300px; height: 300px;"" />
    </div>","0","0"
"","","","","","html-keyboard-response","57","212156","0.0-57.0-0.0-0.0","811D1726C59944EF8FE0D3986C5B7FB5","8bda8a43-0542-41f2-849f-6c7ede4c8912","61e1ec61-13c7-4a8f-bf47-a91ec9909364","","null","<div style=""display: flex; justify-content: center; align-items: center;"">
                <img src=""images/causal/causal_series_18/causal_series_18_d.jpg"" style=""width: 300px; height: 300px;"" />
              </div>","null",""
"","","","","","html-keyboard-response","58","215158","0.0-58.0","811D1726C59944EF8FE0D3986C5B7FB5","8bda8a43-0542-41f2-849f-6c7ede4c8912","61e1ec61-13c7-4a8f-bf47-a91ec9909364","","null","<div style=""display: flex; justify-content: center; align-items: center;"">
                <img src=""images/other/blank.jpg"" style=""width: 300px; height: 300px;"" />
              </div>","null",""
"","","","","","html-keyboard-response","59","218160","0.0-59.0","811D1726C59944EF8FE0D3986C5B7FB5","8bda8a43-0542-41f2-849f-6c7ede4c8912","61e1ec61-13c7-4a8f-bf47-a91ec9909364","","null","<div style=""display: flex; justify-content: center; align-items: center;"">
                <img src=""images/causal/causal_series_13/causal_series_13_a.jpg"" style=""width: 300px; height: 300px;"" />
              </div>","null",""
"","","","","","html-keyboard-response","60","221169","0.0-60.0","811D1726C59944EF8FE0D3986C5B7FB5","8bda8a43-0542-41f2-849f-6c7ede4c8912","61e1ec61-13c7-4a8f-bf47-a91ec9909364","","null","<div style=""display: flex; justify-content: center; align-items: center;"">
                <img src=""images/causal/causal_series_13/causal_series_13_b.jpg"" style=""width: 300px; height: 300px;"" />
              </div>","null",""
"","","","","","html-keyboard-response","61","224177","0.0-61.0","811D1726C59944EF8FE0D3986C5B7FB5","8bda8a43-0542-41f2-849f-6c7ede4c8912","61e1ec61-13c7-4a8f-bf47-a91ec9909364","","null","<div style=""display: flex; justify-content: center; align-items: center;"">
                <img src=""images/causal/causal_series_13/causal_series_13_c.jpg"" style=""width: 300px; height: 300px;"" />
              </div>","null",""
"","","","","","html-button-response","62","227785","0.0-62.0","811D1726C59944EF8FE0D3986C5B7FB5","8bda8a43-0542-41f2-849f-6c7ede4c8912","61e1ec61-13c7-4a8f-bf47-a91ec9909364","","3607","
    <div style=""display: flex; justify-content: center; align-items: center;"">
      <img src=""images/red_deck_2.png"" style=""width: 300px; height: 300px; margin-right: 10px;"" />
      <img src=""images/blue_deck_1.png"" style=""width: 300px; height: 300px;"" />
    </div>","0","0"
"","","","","","html-keyboard-response","63","230801","0.0-63.0-0.0-0.0","811D1726C59944EF8FE0D3986C5B7FB5","8bda8a43-0542-41f2-849f-6c7ede4c8912","61e1ec61-13c7-4a8f-bf47-a91ec9909364","","null","<div style=""display: flex; justify-content: center; align-items: center;"">
                <img src=""images/causal/causal_series_13/causal_series_13_d.jpg"" style=""width: 300px; height: 300px;"" />
              </div>","null",""
"","","","","","html-keyboard-response","64","233817","0.0-64.0","811D1726C59944EF8FE0D3986C5B7FB5","8bda8a43-0542-41f2-849f-6c7ede4c8912","61e1ec61-13c7-4a8f-bf47-a91ec9909364","","null","<div style=""display: flex; justify-content: center; align-items: center;"">
                <img src=""images/other/blank.jpg"" style=""width: 300px; height: 300px;"" />
              </div>","null",""
"","","","","","html-keyboard-response","65","236832","0.0-65.0","811D1726C59944EF8FE0D3986C5B7FB5","8bda8a43-0542-41f2-849f-6c7ede4c8912","61e1ec61-13c7-4a8f-bf47-a91ec9909364","","null","<div style=""display: flex; justify-content: center; align-items: center;"">
                <img src=""images/causal/causal_series_3/causal_series_3_a.jpg"" style=""width: 300px; height: 300px;"" />
              </div>","null",""
"","","","","","html-keyboard-response","66","239840","0.0-66.0","811D1726C59944EF8FE0D3986C5B7FB5","8bda8a43-0542-41f2-849f-6c7ede4c8912","61e1ec61-13c7-4a8f-bf47-a91ec9909364","","null","<div style=""display: flex; justify-content: center; align-items: center;"">
                <img src=""images/causal/causal_series_3/causal_series_3_b.jpg"" style=""width: 300px; height: 300px;"" />
              </div>","null",""
"","","","","","html-keyboard-response","67","242848","0.0-67.0","811D1726C59944EF8FE0D3986C5B7FB5","8bda8a43-0542-41f2-849f-6c7ede4c8912","61e1ec61-13c7-4a8f-bf47-a91ec9909364","","null","<div style=""display: flex; justify-content: center; align-items: center;"">
                <img src=""images/causal/causal_series_3/causal_series_3_c.jpg"" style=""width: 300px; height: 300px;"" />
              </div>","null",""
"","","","","","html-button-response","68","249391","0.0-68.0","811D1726C59944EF8FE0D3986C5B7FB5","8bda8a43-0542-41f2-849f-6c7ede4c8912","61e1ec61-13c7-4a8f-bf47-a91ec9909364","","6543","
    <div style=""display: flex; justify-content: center; align-items: center;"">
      <img src=""images/red_deck_2.png"" style=""width: 300px; height: 300px; margin-right: 10px;"" />
      <img src=""images/blue_deck_1.png"" style=""width: 300px; height: 300px;"" />
    </div>","1","1"
"","","","","","html-keyboard-response","69","252404","0.0-69.0-1.0-0.0","811D1726C59944EF8FE0D3986C5B7FB5","8bda8a43-0542-41f2-849f-6c7ede4c8912","61e1ec61-13c7-4a8f-bf47-a91ec9909364","","null","<div style=""display: flex; justify-content: center; align-items: center;"">
                <img src=""images/semantic/semantic_series_2/semantic_series_2_d.jpg"" style=""width: 300px; height: 300px;"" />
              </div>","null",""
"","","","","","html-keyboard-response","70","255408","0.0-70.0","811D1726C59944EF8FE0D3986C5B7FB5","8bda8a43-0542-41f2-849f-6c7ede4c8912","61e1ec61-13c7-4a8f-bf47-a91ec9909364","","null","<div style=""display: flex; justify-content: center; align-items: center;"">
                <img src=""images/other/blank.jpg"" style=""width: 300px; height: 300px;"" />
              </div>","null",""
"","","","","","html-keyboard-response","71","258417","0.0-71.0","811D1726C59944EF8FE0D3986C5B7FB5","8bda8a43-0542-41f2-849f-6c7ede4c8912","61e1ec61-13c7-4a8f-bf47-a91ec9909364","","null","<div style=""display: flex; justify-content: center; align-items: center;"">
                <img src=""images/causal/causal_series_8/causal_series_8_a.jpg"" style=""width: 300px; height: 300px;"" />
              </div>","null",""
"","","","","","html-keyboard-response","72","261431","0.0-72.0","811D1726C59944EF8FE0D3986C5B7FB5","8bda8a43-0542-41f2-849f-6c7ede4c8912","61e1ec61-13c7-4a8f-bf47-a91ec9909364","","null","<div style=""display: flex; justify-content: center; align-items: center;"">
                <img src=""images/causal/causal_series_8/causal_series_8_b.jpg"" style=""width: 300px; height: 300px;"" />
              </div>","null",""
"","","","","","html-keyboard-response","73","264435","0.0-73.0","811D1726C59944EF8FE0D3986C5B7FB5","8bda8a43-0542-41f2-849f-6c7ede4c8912","61e1ec61-13c7-4a8f-bf47-a91ec9909364","","null","<div style=""display: flex; justify-content: center; align-items: center;"">
                <img src=""images/causal/causal_series_8/causal_series_8_c.jpg"" style=""width: 300px; height: 300px;"" />
              </div>","null",""
"","","","","","html-button-response","74","266832","0.0-74.0","811D1726C59944EF8FE0D3986C5B7FB5","8bda8a43-0542-41f2-849f-6c7ede4c8912","61e1ec61-13c7-4a8f-bf47-a91ec9909364","","2396","
    <div style=""display: flex; justify-content: center; align-items: center;"">
      <img src=""images/red_deck_2.png"" style=""width: 300px; height: 300px; margin-right: 10px;"" />
      <img src=""images/blue_deck_1.png"" style=""width: 300px; height: 300px;"" />
    </div>","1","1"
"","","","","","html-keyboard-response","75","269838","0.0-75.0-1.0-0.0","811D1726C59944EF8FE0D3986C5B7FB5","8bda8a43-0542-41f2-849f-6c7ede4c8912","61e1ec61-13c7-4a8f-bf47-a91ec9909364","","null","<div style=""display: flex; justify-content: center; align-items: center;"">
                <img src=""images/semantic/semantic_series_7/semantic_series_7_d.jpg"" style=""width: 300px; height: 300px;"" />
              </div>","null",""
"","","","","","html-keyboard-response","76","272842","0.0-76.0","811D1726C59944EF8FE0D3986C5B7FB5","8bda8a43-0542-41f2-849f-6c7ede4c8912","61e1ec61-13c7-4a8f-bf47-a91ec9909364","","null","<div style=""display: flex; justify-content: center; align-items: center;"">
                <img src=""images/other/blank.jpg"" style=""width: 300px; height: 300px;"" />
              </div>","null",""
"","","","","","html-keyboard-response","77","275843","0.0-77.0","811D1726C59944EF8FE0D3986C5B7FB5","8bda8a43-0542-41f2-849f-6c7ede4c8912","61e1ec61-13c7-4a8f-bf47-a91ec9909364","","null","<div style=""display: flex; justify-content: center; align-items: center;"">
                <img src=""images/causal/causal_series_7/causal_series_7_a.jpg"" style=""width: 300px; height: 300px;"" />
              </div>","null",""
"","","","","","html-keyboard-response","78","278845","0.0-78.0","811D1726C59944EF8FE0D3986C5B7FB5","8bda8a43-0542-41f2-849f-6c7ede4c8912","61e1ec61-13c7-4a8f-bf47-a91ec9909364","","null","<div style=""display: flex; justify-content: center; align-items: center;"">
                <img src=""images/causal/causal_series_7/causal_series_7_b.jpg"" style=""width: 300px; height: 300px;"" />
              </div>","null",""
"","","","","","html-keyboard-response","79","281857","0.0-79.0","811D1726C59944EF8FE0D3986C5B7FB5","8bda8a43-0542-41f2-849f-6c7ede4c8912","61e1ec61-13c7-4a8f-bf47-a91ec9909364","","null","<div style=""display: flex; justify-content: center; align-items: center;"">
                <img src=""images/causal/causal_series_7/causal_series_7_c.jpg"" style=""width: 300px; height: 300px;"" />
              </div>","null",""
"","","","","","html-button-response","80","286991","0.0-80.0","811D1726C59944EF8FE0D3986C5B7FB5","8bda8a43-0542-41f2-849f-6c7ede4c8912","61e1ec61-13c7-4a8f-bf47-a91ec9909364","","5133","
    <div style=""display: flex; justify-content: center; align-items: center;"">
      <img src=""images/red_deck_2.png"" style=""width: 300px; height: 300px; margin-right: 10px;"" />
      <img src=""images/blue_deck_1.png"" style=""width: 300px; height: 300px;"" />
    </div>","1","1"
"","","","","","html-keyboard-response","81","290006","0.0-81.0-1.0-0.0","811D1726C59944EF8FE0D3986C5B7FB5","8bda8a43-0542-41f2-849f-6c7ede4c8912","61e1ec61-13c7-4a8f-bf47-a91ec9909364","","null","<div style=""display: flex; justify-content: center; align-items: center;"">
                <img src=""images/semantic/semantic_series_6/semantic_series_6_d.jpg"" style=""width: 300px; height: 300px;"" />
              </div>","null",""
"","","","","","html-keyboard-response","82","293009","0.0-82.0","811D1726C59944EF8FE0D3986C5B7FB5","8bda8a43-0542-41f2-849f-6c7ede4c8912","61e1ec61-13c7-4a8f-bf47-a91ec9909364","","null","<div style=""display: flex; justify-content: center; align-items: center;"">
                <img src=""images/other/blank.jpg"" style=""width: 300px; height: 300px;"" />
              </div>","null",""
"","","","","","html-keyboard-response","83","296025","0.0-83.0","811D1726C59944EF8FE0D3986C5B7FB5","8bda8a43-0542-41f2-849f-6c7ede4c8912","61e1ec61-13c7-4a8f-bf47-a91ec9909364","","null","<div style=""display: flex; justify-content: center; align-items: center;"">
                <img src=""images/causal/causal_series_10/causal_series_10_a.jpg"" style=""width: 300px; height: 300px;"" />
              </div>","null",""
"","","","","","html-keyboard-response","84","299038","0.0-84.0","811D1726C59944EF8FE0D3986C5B7FB5","8bda8a43-0542-41f2-849f-6c7ede4c8912","61e1ec61-13c7-4a8f-bf47-a91ec9909364","","null","<div style=""display: flex; justify-content: center; align-items: center;"">
                <img src=""images/causal/causal_series_10/causal_series_10_b.jpg"" style=""width: 300px; height: 300px;"" />
              </div>","null",""
"","","","","","html-keyboard-response","85","302045","0.0-85.0","811D1726C59944EF8FE0D3986C5B7FB5","8bda8a43-0542-41f2-849f-6c7ede4c8912","61e1ec61-13c7-4a8f-bf47-a91ec9909364","","null","<div style=""display: flex; justify-content: center; align-items: center;"">
                <img src=""images/causal/causal_series_10/causal_series_10_c.jpg"" style=""width: 300px; height: 300px;"" />
              </div>","null",""
"","","","","","html-button-response","86","304160","0.0-86.0","811D1726C59944EF8FE0D3986C5B7FB5","8bda8a43-0542-41f2-849f-6c7ede4c8912","61e1ec61-13c7-4a8f-bf47-a91ec9909364","","2114","
    <div style=""display: flex; justify-content: center; align-items: center;"">
      <img src=""images/red_deck_2.png"" style=""width: 300px; height: 300px; margin-right: 10px;"" />
      <img src=""images/blue_deck_1.png"" style=""width: 300px; height: 300px;"" />
    </div>","0","0"
"","","","","","html-keyboard-response","87","307173","0.0-87.0-0.0-0.0","811D1726C59944EF8FE0D3986C5B7FB5","8bda8a43-0542-41f2-849f-6c7ede4c8912","61e1ec61-13c7-4a8f-bf47-a91ec9909364","","null","<div style=""display: flex; justify-content: center; align-items: center;"">
                <img src=""images/causal/causal_series_10/causal_series_10_d.jpg"" style=""width: 300px; height: 300px;"" />
              </div>","null",""
"","","","","","html-keyboard-response","88","310184","0.0-88.0","811D1726C59944EF8FE0D3986C5B7FB5","8bda8a43-0542-41f2-849f-6c7ede4c8912","61e1ec61-13c7-4a8f-bf47-a91ec9909364","","null","<div style=""display: flex; justify-content: center; align-items: center;"">
                <img src=""images/other/blank.jpg"" style=""width: 300px; height: 300px;"" />
              </div>","null",""
"","","","","","html-keyboard-response","89","313197","0.0-89.0","811D1726C59944EF8FE0D3986C5B7FB5","8bda8a43-0542-41f2-849f-6c7ede4c8912","61e1ec61-13c7-4a8f-bf47-a91ec9909364","","null","<div style=""display: flex; justify-content: center; align-items: center;"">
                <img src=""images/causal/causal_series_6/causal_series_6_a.jpg"" style=""width: 300px; height: 300px;"" />
              </div>","null",""
"","","","","","html-keyboard-response","90","316208","0.0-90.0","811D1726C59944EF8FE0D3986C5B7FB5","8bda8a43-0542-41f2-849f-6c7ede4c8912","61e1ec61-13c7-4a8f-bf47-a91ec9909364","","null","<div style=""display: flex; justify-content: center; align-items: center;"">
                <img src=""images/causal/causal_series_6/causal_series_6_b.jpg"" style=""width: 300px; height: 300px;"" />
              </div>","null",""
"","","","","","html-keyboard-response","91","319214","0.0-91.0","811D1726C59944EF8FE0D3986C5B7FB5","8bda8a43-0542-41f2-849f-6c7ede4c8912","61e1ec61-13c7-4a8f-bf47-a91ec9909364","","null","<div style=""display: flex; justify-content: center; align-items: center;"">
                <img src=""images/causal/causal_series_6/causal_series_6_c.jpg"" style=""width: 300px; height: 300px;"" />
              </div>","null",""
"","","","","","html-button-response","92","320656","0.0-92.0","811D1726C59944EF8FE0D3986C5B7FB5","8bda8a43-0542-41f2-849f-6c7ede4c8912","61e1ec61-13c7-4a8f-bf47-a91ec9909364","","1441","
    <div style=""display: flex; justify-content: center; align-items: center;"">
      <img src=""images/red_deck_2.png"" style=""width: 300px; height: 300px; margin-right: 10px;"" />
      <img src=""images/blue_deck_1.png"" style=""width: 300px; height: 300px;"" />
    </div>","1","1"
"","","","","","html-keyboard-response","93","323663","0.0-93.0-1.0-0.0","811D1726C59944EF8FE0D3986C5B7FB5","8bda8a43-0542-41f2-849f-6c7ede4c8912","61e1ec61-13c7-4a8f-bf47-a91ec9909364","","null","<div style=""display: flex; justify-content: center; align-items: center;"">
                <img src=""images/semantic/semantic_series_5/semantic_series_5_d.jpg"" style=""width: 300px; height: 300px;"" />
              </div>","null",""
"","","","","","html-keyboard-response","94","326669","0.0-94.0","811D1726C59944EF8FE0D3986C5B7FB5","8bda8a43-0542-41f2-849f-6c7ede4c8912","61e1ec61-13c7-4a8f-bf47-a91ec9909364","","null","<div style=""display: flex; justify-content: center; align-items: center;"">
                <img src=""images/other/blank.jpg"" style=""width: 300px; height: 300px;"" />
              </div>","null",""
"","","","","","html-keyboard-response","95","329682","0.0-95.0","811D1726C59944EF8FE0D3986C5B7FB5","8bda8a43-0542-41f2-849f-6c7ede4c8912","61e1ec61-13c7-4a8f-bf47-a91ec9909364","","null","<div style=""display: flex; justify-content: center; align-items: center;"">
                <img src=""images/causal/causal_series_16/causal_series_16_a.jpg"" style=""width: 300px; height: 300px;"" />
              </div>","null",""
"","","","","","html-keyboard-response","96","332689","0.0-96.0","811D1726C59944EF8FE0D3986C5B7FB5","8bda8a43-0542-41f2-849f-6c7ede4c8912","61e1ec61-13c7-4a8f-bf47-a91ec9909364","","null","<div style=""display: flex; justify-content: center; align-items: center;"">
                <img src=""images/causal/causal_series_16/causal_series_16_b.jpg"" style=""width: 300px; height: 300px;"" />
              </div>","null",""
"","","","","","html-keyboard-response","97","335691","0.0-97.0","811D1726C59944EF8FE0D3986C5B7FB5","8bda8a43-0542-41f2-849f-6c7ede4c8912","61e1ec61-13c7-4a8f-bf47-a91ec9909364","","null","<div style=""display: flex; justify-content: center; align-items: center;"">
                <img src=""images/causal/causal_series_16/causal_series_16_c.jpg"" style=""width: 300px; height: 300px;"" />
              </div>","null",""
"","","","","","html-button-response","98","339680","0.0-98.0","811D1726C59944EF8FE0D3986C5B7FB5","8bda8a43-0542-41f2-849f-6c7ede4c8912","61e1ec61-13c7-4a8f-bf47-a91ec9909364","","3988","
    <div style=""display: flex; justify-content: center; align-items: center;"">
      <img src=""images/red_deck_2.png"" style=""width: 300px; height: 300px; margin-right: 10px;"" />
      <img src=""images/blue_deck_1.png"" style=""width: 300px; height: 300px;"" />
    </div>","0","0"
"","","","","","html-keyboard-response","99","342687","0.0-99.0-0.0-0.0","811D1726C59944EF8FE0D3986C5B7FB5","8bda8a43-0542-41f2-849f-6c7ede4c8912","61e1ec61-13c7-4a8f-bf47-a91ec9909364","","null","<div style=""display: flex; justify-content: center; align-items: center;"">
                <img src=""images/causal/causal_series_16/causal_series_16_d.jpg"" style=""width: 300px; height: 300px;"" />
              </div>","null",""
"","","","","","html-keyboard-response","100","345698","0.0-100.0","811D1726C59944EF8FE0D3986C5B7FB5","8bda8a43-0542-41f2-849f-6c7ede4c8912","61e1ec61-13c7-4a8f-bf47-a91ec9909364","","null","<div style=""display: flex; justify-content: center; align-items: center;"">
                <img src=""images/other/blank.jpg"" style=""width: 300px; height: 300px;"" />
              </div>","null",""
"","","","","","html-keyboard-response","101","348704","0.0-101.0","811D1726C59944EF8FE0D3986C5B7FB5","8bda8a43-0542-41f2-849f-6c7ede4c8912","61e1ec61-13c7-4a8f-bf47-a91ec9909364","","null","<div style=""display: flex; justify-content: center; align-items: center;"">
                <img src=""images/causal/causal_series_14/causal_series_14_a.jpg"" style=""width: 300px; height: 300px;"" />
              </div>","null",""
"","","","","","html-keyboard-response","102","351710","0.0-102.0","811D1726C59944EF8FE0D3986C5B7FB5","8bda8a43-0542-41f2-849f-6c7ede4c8912","61e1ec61-13c7-4a8f-bf47-a91ec9909364","","null","<div style=""display: flex; justify-content: center; align-items: center;"">
                <img src=""images/causal/causal_series_14/causal_series_14_b.jpg"" style=""width: 300px; height: 300px;"" />
              </div>","null",""
"","","","","","html-keyboard-response","103","354720","0.0-103.0","811D1726C59944EF8FE0D3986C5B7FB5","8bda8a43-0542-41f2-849f-6c7ede4c8912","61e1ec61-13c7-4a8f-bf47-a91ec9909364","","null","<div style=""display: flex; justify-content: center; align-items: center;"">
                <img src=""images/causal/causal_series_14/causal_series_14_c.jpg"" style=""width: 300px; height: 300px;"" />
              </div>","null",""
"","","","","","html-button-response","104","356297","0.0-104.0","811D1726C59944EF8FE0D3986C5B7FB5","8bda8a43-0542-41f2-849f-6c7ede4c8912","61e1ec61-13c7-4a8f-bf47-a91ec9909364","","1576","
    <div style=""display: flex; justify-content: center; align-items: center;"">
      <img src=""images/red_deck_2.png"" style=""width: 300px; height: 300px; margin-right: 10px;"" />
      <img src=""images/blue_deck_1.png"" style=""width: 300px; height: 300px;"" />
    </div>","0","0"
"","","","","","html-keyboard-response","105","359308","0.0-105.0-0.0-0.0","811D1726C59944EF8FE0D3986C5B7FB5","8bda8a43-0542-41f2-849f-6c7ede4c8912","61e1ec61-13c7-4a8f-bf47-a91ec9909364","","null","<div style=""display: flex; justify-content: center; align-items: center;"">
                <img src=""images/causal/causal_series_14/causal_series_14_d.jpg"" style=""width: 300px; height: 300px;"" />
              </div>","null",""
"","","","","","html-keyboard-response","106","362312","0.0-106.0","811D1726C59944EF8FE0D3986C5B7FB5","8bda8a43-0542-41f2-849f-6c7ede4c8912","61e1ec61-13c7-4a8f-bf47-a91ec9909364","","null","<div style=""display: flex; justify-content: center; align-items: center;"">
                <img src=""images/other/blank.jpg"" style=""width: 300px; height: 300px;"" />
              </div>","null",""
"","","","","","html-keyboard-response","107","365323","0.0-107.0","811D1726C59944EF8FE0D3986C5B7FB5","8bda8a43-0542-41f2-849f-6c7ede4c8912","61e1ec61-13c7-4a8f-bf47-a91ec9909364","","null","<div style=""display: flex; justify-content: center; align-items: center;"">
                <img src=""images/causal/causal_series_2/causal_series_2_a.jpg"" style=""width: 300px; height: 300px;"" />
              </div>","null",""
"","","","","","html-keyboard-response","108","368328","0.0-108.0","811D1726C59944EF8FE0D3986C5B7FB5","8bda8a43-0542-41f2-849f-6c7ede4c8912","61e1ec61-13c7-4a8f-bf47-a91ec9909364","","null","<div style=""display: flex; justify-content: center; align-items: center;"">
                <img src=""images/causal/causal_series_2/causal_series_2_b.jpg"" style=""width: 300px; height: 300px;"" />
              </div>","null",""
"","","","","","html-keyboard-response","109","371332","0.0-109.0","811D1726C59944EF8FE0D3986C5B7FB5","8bda8a43-0542-41f2-849f-6c7ede4c8912","61e1ec61-13c7-4a8f-bf47-a91ec9909364","","null","<div style=""display: flex; justify-content: center; align-items: center;"">
                <img src=""images/causal/causal_series_2/causal_series_2_c.jpg"" style=""width: 300px; height: 300px;"" />
              </div>","null",""
"","","","","","html-button-response","110","374705","0.0-110.0","811D1726C59944EF8FE0D3986C5B7FB5","8bda8a43-0542-41f2-849f-6c7ede4c8912","61e1ec61-13c7-4a8f-bf47-a91ec9909364","","3372","
    <div style=""display: flex; justify-content: center; align-items: center;"">
      <img src=""images/red_deck_2.png"" style=""width: 300px; height: 300px; margin-right: 10px;"" />
      <img src=""images/blue_deck_1.png"" style=""width: 300px; height: 300px;"" />
    </div>","1","1"
"","","","","","html-keyboard-response","111","377712","0.0-111.0-1.0-0.0","811D1726C59944EF8FE0D3986C5B7FB5","8bda8a43-0542-41f2-849f-6c7ede4c8912","61e1ec61-13c7-4a8f-bf47-a91ec9909364","","null","<div style=""display: flex; justify-content: center; align-items: center;"">
                <img src=""images/semantic/semantic_series_1/semantic_series_1_d.jpg"" style=""width: 300px; height: 300px;"" />
              </div>","null",""
"","","","","","html-keyboard-response","112","380714","0.0-112.0","811D1726C59944EF8FE0D3986C5B7FB5","8bda8a43-0542-41f2-849f-6c7ede4c8912","61e1ec61-13c7-4a8f-bf47-a91ec9909364","","null","<div style=""display: flex; justify-content: center; align-items: center;"">
                <img src=""images/other/blank.jpg"" style=""width: 300px; height: 300px;"" />
              </div>","null",""
"","","","","","survey-text","113","403644","0.0-113.0","811D1726C59944EF8FE0D3986C5B7FB5","8bda8a43-0542-41f2-849f-6c7ede4c8912","61e1ec61-13c7-4a8f-bf47-a91ec9909364","","22927","","{""Q0"":""One was red and the other was blue. ""}",""
"","","","","","survey-text","114","417958","0.0-114.0","811D1726C59944EF8FE0D3986C5B7FB5","8bda8a43-0542-41f2-849f-6c7ede4c8912","61e1ec61-13c7-4a8f-bf47-a91ec9909364","","14312","","{""Q0"":""I liked all of the cartoons. ""}",""
"","","","","","html-button-response","115","429519","0.0-115.0","811D1726C59944EF8FE0D3986C5B7FB5","8bda8a43-0542-41f2-849f-6c7ede4c8912","61e1ec61-13c7-4a8f-bf47-a91ec9909364","","11561","Which color deck does the fourth image continue the story from the series?","1",""
"","","","","","html-button-response","116","433390","0.0-116.0","811D1726C59944EF8FE0D3986C5B7FB5","8bda8a43-0542-41f2-849f-6c7ede4c8912","61e1ec61-13c7-4a8f-bf47-a91ec9909364","","3871","Which color deck does the fourth image not follow the story from the series?","0",""
"","","","","","survey-text","117","441299","0.0-117.0","811D1726C59944EF8FE0D3986C5B7FB5","8bda8a43-0542-41f2-849f-6c7ede4c8912","61e1ec61-13c7-4a8f-bf47-a91ec9909364","","7905","","{""Q0"":""Female"",""Q1"":""26""}",""
"","","","","","instructions","118","445344","0.0-118.0","811D1726C59944EF8FE0D3986C5B7FB5","8bda8a43-0542-41f2-849f-6c7ede4c8912","61e1ec61-13c7-4a8f-bf47-a91ec9909364","[{""page_index"":0,""viewing_time"":4045}]","4046","","",""
