"success","timeout","failed_images","failed_audio","failed_video","trial_type","trial_index","time_elapsed","internal_node_id","subject_id","study_id","session_id","view_history","rt","stimulus","response","series","repetition","phase","choice","question_order"
"true","false","[]","[]","[]","preload","0","409","0.0-0.0","7707F203186E4B6993828EA8615086B2","0199d602-b798-740e-b206-b092193b9909","0199d5ef-c7d4-7cab-a194-b2c3afbaf8e8","","","","","","","","",""
"","","","","","instructions","1","183723","0.0-1.0","7707F203186E4B6993828EA8615086B2","0199d602-b798-740e-b206-b092193b9909","0199d5ef-c7d4-7cab-a194-b2c3afbaf8e8","[{""page_index"":0,""viewing_time"":183313}]","183314","","","","","","",""
"","","","","","instructions","2","186553","0.0-2.0","7707F203186E4B6993828EA8615086B2","0199d602-b798-740e-b206-b092193b9909","0199d5ef-c7d4-7cab-a194-b2c3afbaf8e8","[{""page_index"":0,""viewing_time"":2829}]","2829","","","","","","",""
"true","","","","","fullscreen","3","188874","0.0-3.0","7707F203186E4B6993828EA8615086B2","0199d602-b798-740e-b206-b092193b9909","0199d5ef-c7d4-7cab-a194-b2c3afbaf8e8","","1314","","","","","","",""
"","","","","","instructions","4","323882","0.0-4.0","7707F203186E4B6993828EA8615086B2","0199d602-b798-740e-b206-b092193b9909","0199d5ef-c7d4-7cab-a194-b2c3afbaf8e8","[{""page_index"":0,""viewing_time"":135007}]","135007","","","","","","",""
"","","","","","html-keyboard-response","5","329886","0.0-5.0","7707F203186E4B6993828EA8615086B2","0199d602-b798-740e-b206-b092193b9909","0199d5ef-c7d4-7cab-a194-b2c3afbaf8e8","","null","<div style=""display: flex; justify-content: center; align-items: center;"">
                     <img src=""images/causal/causal_series_4/causal_series_4_a.png"" style=""width: 300px; height: 300px;"" />
                   </div>","null","4","1","A","",""
"","","","","","html-keyboard-response","6","335898","0.0-6.0","7707F203186E4B6993828EA8615086B2","0199d602-b798-740e-b206-b092193b9909","0199d5ef-c7d4-7cab-a194-b2c3afbaf8e8","","null","<div style=""display: flex; justify-content: center; align-items: center;"">
                     <img src=""images/causal/causal_series_4/causal_series_4_b.png"" style=""width: 300px; height: 300px;"" />
                   </div>","null","4","1","B","",""
"","","","","","html-keyboard-response","7","341903","0.0-7.0","7707F203186E4B6993828EA8615086B2","0199d602-b798-740e-b206-b092193b9909","0199d5ef-c7d4-7cab-a194-b2c3afbaf8e8","","null","<div style=""display: flex; justify-content: center; align-items: center;"">
                     <img src=""images/causal/causal_series_4/causal_series_4_c.png"" style=""width: 300px; height: 300px;"" />
                   </div>","null","4","1","C","",""
"","","","","","html-button-response","8","344561","0.0-8.0","7707F203186E4B6993828EA8615086B2","0199d602-b798-740e-b206-b092193b9909","0199d5ef-c7d4-7cab-a194-b2c3afbaf8e8","","2656","
        <div style=""display: flex; justify-content: center; align-items: center;"">
          <img src=""images/red_deck_2.png"" style=""width: 300px; height: 300px; margin-right: 10px;"" />
          <img src=""images/blue_deck_1.png"" style=""width: 300px; height: 300px;"" />
        </div>","0","4","1","choice","0",""
"","","","","","html-keyboard-response","9","350572","0.0-9.0-0.0-0.0","7707F203186E4B6993828EA8615086B2","0199d602-b798-740e-b206-b092193b9909","0199d5ef-c7d4-7cab-a194-b2c3afbaf8e8","","null","<div style=""display: flex; justify-content: center; align-items: center;"">
                     <img src=""images/causal/causal_series_4/causal_series_4_d.png"" style=""width: 300px; height: 300px;"" />
                   </div>","null","4","1","D","",""
"","","","","","html-keyboard-response","10","356576","0.0-9.0-0.0-1.0","7707F203186E4B6993828EA8615086B2","0199d602-b798-740e-b206-b092193b9909","0199d5ef-c7d4-7cab-a194-b2c3afbaf8e8","","null","<div style=""display: flex; justify-content: center; align-items: center;"">
                     <img src=""images/causal/causal_series_4/causal_series_4_e.png"" style=""width: 300px; height: 300px;"" />
                   </div>","null","4","1","E","",""
"","","","","","html-keyboard-response","11","362581","0.0-9.0-0.0-2.0","7707F203186E4B6993828EA8615086B2","0199d602-b798-740e-b206-b092193b9909","0199d5ef-c7d4-7cab-a194-b2c3afbaf8e8","","null","<div style=""display: flex; justify-content: center; align-items: center;"">
                     <img src=""images/causal/causal_series_4/causal_series_4_f.png"" style=""width: 300px; height: 300px;"" />
                   </div>","null","4","1","F","",""
"","","","","","survey-likert","12","365976","0.0-10.0","7707F203186E4B6993828EA8615086B2","0199d602-b798-740e-b206-b092193b9909","0199d5ef-c7d4-7cab-a194-b2c3afbaf8e8","","3393","","{""Q0"":3}","4","1","surprise_rating","","[0]"
"","","","","","survey-likert","13","368334","0.0-11.0","7707F203186E4B6993828EA8615086B2","0199d602-b798-740e-b206-b092193b9909","0199d5ef-c7d4-7cab-a194-b2c3afbaf8e8","","2356","","{""Q0"":1}","4","1","enjoyment_rating","","[0]"
"","","","","","html-keyboard-response","14","374339","0.0-12.0","7707F203186E4B6993828EA8615086B2","0199d602-b798-740e-b206-b092193b9909","0199d5ef-c7d4-7cab-a194-b2c3afbaf8e8","","null","<div style=""display: flex; justify-content: center; align-items: center;"">
                     <img src=""images/other/blank.png"" style=""width: 300px; height: 300px;"" />
                   </div>","null","0","0","blank","",""
"","","","","","html-keyboard-response","15","380351","0.0-13.0","7707F203186E4B6993828EA8615086B2","0199d602-b798-740e-b206-b092193b9909","0199d5ef-c7d4-7cab-a194-b2c3afbaf8e8","","null","<div style=""display: flex; justify-content: center; align-items: center;"">
                     <img src=""images/causal/causal_series_5/causal_series_5_a.png"" style=""width: 300px; height: 300px;"" />
                   </div>","null","5","1","A","",""
"","","","","","html-keyboard-response","16","386356","0.0-14.0","7707F203186E4B6993828EA8615086B2","0199d602-b798-740e-b206-b092193b9909","0199d5ef-c7d4-7cab-a194-b2c3afbaf8e8","","null","<div style=""display: flex; justify-content: center; align-items: center;"">
                     <img src=""images/causal/causal_series_5/causal_series_5_b.png"" style=""width: 300px; height: 300px;"" />
                   </div>","null","5","1","B","",""
"","","","","","html-keyboard-response","17","392360","0.0-15.0","7707F203186E4B6993828EA8615086B2","0199d602-b798-740e-b206-b092193b9909","0199d5ef-c7d4-7cab-a194-b2c3afbaf8e8","","null","<div style=""display: flex; justify-content: center; align-items: center;"">
                     <img src=""images/causal/causal_series_5/causal_series_5_c.png"" style=""width: 300px; height: 300px;"" />
                   </div>","null","5","1","C","",""
"","","","","","html-button-response","18","397449","0.0-16.0","7707F203186E4B6993828EA8615086B2","0199d602-b798-740e-b206-b092193b9909","0199d5ef-c7d4-7cab-a194-b2c3afbaf8e8","","5087","
        <div style=""display: flex; justify-content: center; align-items: center;"">
          <img src=""images/red_deck_2.png"" style=""width: 300px; height: 300px; margin-right: 10px;"" />
          <img src=""images/blue_deck_1.png"" style=""width: 300px; height: 300px;"" />
        </div>","1","5","1","choice","1",""
"","","","","","html-keyboard-response","19","403456","0.0-17.0-1.0-0.0","7707F203186E4B6993828EA8615086B2","0199d602-b798-740e-b206-b092193b9909","0199d5ef-c7d4-7cab-a194-b2c3afbaf8e8","","null","<div style=""display: flex; justify-content: center; align-items: center;"">
                     <img src=""images/semantic/semantic_series_5/semantic_series_5_d.png"" style=""width: 300px; height: 300px;"" />
                   </div>","null","5","1","D","",""
"","","","","","html-keyboard-response","20","409460","0.0-17.0-1.0-1.0","7707F203186E4B6993828EA8615086B2","0199d602-b798-740e-b206-b092193b9909","0199d5ef-c7d4-7cab-a194-b2c3afbaf8e8","","null","<div style=""display: flex; justify-content: center; align-items: center;"">
                     <img src=""images/semantic/semantic_series_5/semantic_series_5_e.png"" style=""width: 300px; height: 300px;"" />
                   </div>","null","5","1","E","",""
"","","","","","html-keyboard-response","21","415464","0.0-17.0-1.0-2.0","7707F203186E4B6993828EA8615086B2","0199d602-b798-740e-b206-b092193b9909","0199d5ef-c7d4-7cab-a194-b2c3afbaf8e8","","null","<div style=""display: flex; justify-content: center; align-items: center;"">
                     <img src=""images/semantic/semantic_series_5/semantic_series_5_f.png"" style=""width: 300px; height: 300px;"" />
                   </div>","null","5","1","F","",""
"","","","","","survey-likert","22","420308","0.0-18.0","7707F203186E4B6993828EA8615086B2","0199d602-b798-740e-b206-b092193b9909","0199d5ef-c7d4-7cab-a194-b2c3afbaf8e8","","4842","","{""Q0"":3}","5","1","surprise_rating","","[0]"
"","","","","","survey-likert","23","422158","0.0-19.0","7707F203186E4B6993828EA8615086B2","0199d602-b798-740e-b206-b092193b9909","0199d5ef-c7d4-7cab-a194-b2c3afbaf8e8","","1848","","{""Q0"":2}","5","1","enjoyment_rating","","[0]"
"","","","","","html-keyboard-response","24","428164","0.0-20.0","7707F203186E4B6993828EA8615086B2","0199d602-b798-740e-b206-b092193b9909","0199d5ef-c7d4-7cab-a194-b2c3afbaf8e8","","null","<div style=""display: flex; justify-content: center; align-items: center;"">
                     <img src=""images/other/blank.png"" style=""width: 300px; height: 300px;"" />
                   </div>","null","0","0","blank","",""
"","","","","","html-keyboard-response","25","434177","0.0-21.0","7707F203186E4B6993828EA8615086B2","0199d602-b798-740e-b206-b092193b9909","0199d5ef-c7d4-7cab-a194-b2c3afbaf8e8","","null","<div style=""display: flex; justify-content: center; align-items: center;"">
                     <img src=""images/causal/causal_series_6/causal_series_6_a.png"" style=""width: 300px; height: 300px;"" />
                   </div>","null","6","1","A","",""
"","","","","","html-keyboard-response","26","440183","0.0-22.0","7707F203186E4B6993828EA8615086B2","0199d602-b798-740e-b206-b092193b9909","0199d5ef-c7d4-7cab-a194-b2c3afbaf8e8","","null","<div style=""display: flex; justify-content: center; align-items: center;"">
                     <img src=""images/causal/causal_series_6/causal_series_6_b.png"" style=""width: 300px; height: 300px;"" />
                   </div>","null","6","1","B","",""
"","","","","","html-keyboard-response","27","446196","0.0-23.0","7707F203186E4B6993828EA8615086B2","0199d602-b798-740e-b206-b092193b9909","0199d5ef-c7d4-7cab-a194-b2c3afbaf8e8","","null","<div style=""display: flex; justify-content: center; align-items: center;"">
                     <img src=""images/causal/causal_series_6/causal_series_6_c.png"" style=""width: 300px; height: 300px;"" />
                   </div>","null","6","1","C","",""
"","","","","","html-button-response","28","447692","0.0-24.0","7707F203186E4B6993828EA8615086B2","0199d602-b798-740e-b206-b092193b9909","0199d5ef-c7d4-7cab-a194-b2c3afbaf8e8","","1495","
        <div style=""display: flex; justify-content: center; align-items: center;"">
          <img src=""images/red_deck_2.png"" style=""width: 300px; height: 300px; margin-right: 10px;"" />
          <img src=""images/blue_deck_1.png"" style=""width: 300px; height: 300px;"" />
        </div>","0","6","1","choice","0",""
"","","","","","html-keyboard-response","29","453694","0.0-25.0-0.0-0.0","7707F203186E4B6993828EA8615086B2","0199d602-b798-740e-b206-b092193b9909","0199d5ef-c7d4-7cab-a194-b2c3afbaf8e8","","null","<div style=""display: flex; justify-content: center; align-items: center;"">
                     <img src=""images/causal/causal_series_6/causal_series_6_d.png"" style=""width: 300px; height: 300px;"" />
                   </div>","null","6","1","D","",""
"","","","","","html-keyboard-response","30","459716","0.0-25.0-0.0-1.0","7707F203186E4B6993828EA8615086B2","0199d602-b798-740e-b206-b092193b9909","0199d5ef-c7d4-7cab-a194-b2c3afbaf8e8","","null","<div style=""display: flex; justify-content: center; align-items: center;"">
                     <img src=""images/causal/causal_series_6/causal_series_6_e.png"" style=""width: 300px; height: 300px;"" />
                   </div>","null","6","1","E","",""
"","","","","","html-keyboard-response","31","465725","0.0-25.0-0.0-2.0","7707F203186E4B6993828EA8615086B2","0199d602-b798-740e-b206-b092193b9909","0199d5ef-c7d4-7cab-a194-b2c3afbaf8e8","","null","<div style=""display: flex; justify-content: center; align-items: center;"">
                     <img src=""images/causal/causal_series_6/causal_series_6_f.png"" style=""width: 300px; height: 300px;"" />
                   </div>","null","6","1","F","",""
"","","","","","survey-likert","32","471352","0.0-26.0","7707F203186E4B6993828EA8615086B2","0199d602-b798-740e-b206-b092193b9909","0199d5ef-c7d4-7cab-a194-b2c3afbaf8e8","","5626","","{""Q0"":2}","6","1","surprise_rating","","[0]"
"","","","","","survey-likert","33","474598","0.0-27.0","7707F203186E4B6993828EA8615086B2","0199d602-b798-740e-b206-b092193b9909","0199d5ef-c7d4-7cab-a194-b2c3afbaf8e8","","3245","","{""Q0"":1}","6","1","enjoyment_rating","","[0]"
"","","","","","html-keyboard-response","34","480614","0.0-28.0","7707F203186E4B6993828EA8615086B2","0199d602-b798-740e-b206-b092193b9909","0199d5ef-c7d4-7cab-a194-b2c3afbaf8e8","","null","<div style=""display: flex; justify-content: center; align-items: center;"">
                     <img src=""images/other/blank.png"" style=""width: 300px; height: 300px;"" />
                   </div>","null","0","0","blank","",""
"","","","","","html-keyboard-response","35","486621","0.0-29.0","7707F203186E4B6993828EA8615086B2","0199d602-b798-740e-b206-b092193b9909","0199d5ef-c7d4-7cab-a194-b2c3afbaf8e8","","null","<div style=""display: flex; justify-content: center; align-items: center;"">
                     <img src=""images/causal/causal_series_8/causal_series_8_a.png"" style=""width: 300px; height: 300px;"" />
                   </div>","null","8","2","A","",""
"","","","","","html-keyboard-response","36","492636","0.0-30.0","7707F203186E4B6993828EA8615086B2","0199d602-b798-740e-b206-b092193b9909","0199d5ef-c7d4-7cab-a194-b2c3afbaf8e8","","null","<div style=""display: flex; justify-content: center; align-items: center;"">
                     <img src=""images/causal/causal_series_8/causal_series_8_b.png"" style=""width: 300px; height: 300px;"" />
                   </div>","null","8","2","B","",""
"","","","","","html-keyboard-response","37","498640","0.0-31.0","7707F203186E4B6993828EA8615086B2","0199d602-b798-740e-b206-b092193b9909","0199d5ef-c7d4-7cab-a194-b2c3afbaf8e8","","null","<div style=""display: flex; justify-content: center; align-items: center;"">
                     <img src=""images/causal/causal_series_8/causal_series_8_c.png"" style=""width: 300px; height: 300px;"" />
                   </div>","null","8","2","C","",""
"","","","","","html-button-response","38","502548","0.0-32.0","7707F203186E4B6993828EA8615086B2","0199d602-b798-740e-b206-b092193b9909","0199d5ef-c7d4-7cab-a194-b2c3afbaf8e8","","3908","
        <div style=""display: flex; justify-content: center; align-items: center;"">
          <img src=""images/red_deck_2.png"" style=""width: 300px; height: 300px; margin-right: 10px;"" />
          <img src=""images/blue_deck_1.png"" style=""width: 300px; height: 300px;"" />
        </div>","1","8","2","choice","1",""
"","","","","","html-keyboard-response","39","508558","0.0-33.0-1.0-0.0","7707F203186E4B6993828EA8615086B2","0199d602-b798-740e-b206-b092193b9909","0199d5ef-c7d4-7cab-a194-b2c3afbaf8e8","","null","<div style=""display: flex; justify-content: center; align-items: center;"">
                     <img src=""images/semantic/semantic_series_8/semantic_series_8_d.png"" style=""width: 300px; height: 300px;"" />
                   </div>","null","8","2","D","",""
"","","","","","html-keyboard-response","40","514560","0.0-33.0-1.0-1.0","7707F203186E4B6993828EA8615086B2","0199d602-b798-740e-b206-b092193b9909","0199d5ef-c7d4-7cab-a194-b2c3afbaf8e8","","null","<div style=""display: flex; justify-content: center; align-items: center;"">
                     <img src=""images/semantic/semantic_series_8/semantic_series_8_e.png"" style=""width: 300px; height: 300px;"" />
                   </div>","null","8","2","E","",""
"","","","","","html-keyboard-response","41","520564","0.0-33.0-1.0-2.0","7707F203186E4B6993828EA8615086B2","0199d602-b798-740e-b206-b092193b9909","0199d5ef-c7d4-7cab-a194-b2c3afbaf8e8","","null","<div style=""display: flex; justify-content: center; align-items: center;"">
                     <img src=""images/semantic/semantic_series_8/semantic_series_8_f.png"" style=""width: 300px; height: 300px;"" />
                   </div>","null","8","2","F","",""
"","","","","","survey-likert","42","524299","0.0-34.0","7707F203186E4B6993828EA8615086B2","0199d602-b798-740e-b206-b092193b9909","0199d5ef-c7d4-7cab-a194-b2c3afbaf8e8","","3734","","{""Q0"":1}","8","2","surprise_rating","","[0]"
"","","","","","survey-likert","43","526680","0.0-35.0","7707F203186E4B6993828EA8615086B2","0199d602-b798-740e-b206-b092193b9909","0199d5ef-c7d4-7cab-a194-b2c3afbaf8e8","","2380","","{""Q0"":1}","8","2","enjoyment_rating","","[0]"
"","","","","","html-keyboard-response","44","532682","0.0-36.0","7707F203186E4B6993828EA8615086B2","0199d602-b798-740e-b206-b092193b9909","0199d5ef-c7d4-7cab-a194-b2c3afbaf8e8","","null","<div style=""display: flex; justify-content: center; align-items: center;"">
                     <img src=""images/other/blank.png"" style=""width: 300px; height: 300px;"" />
                   </div>","null","0","0","blank","",""
"","","","","","html-keyboard-response","45","538686","0.0-37.0","7707F203186E4B6993828EA8615086B2","0199d602-b798-740e-b206-b092193b9909","0199d5ef-c7d4-7cab-a194-b2c3afbaf8e8","","null","<div style=""display: flex; justify-content: center; align-items: center;"">
                     <img src=""images/causal/causal_series_10/causal_series_10_a.png"" style=""width: 300px; height: 300px;"" />
                   </div>","null","10","1","A","",""
"","","","","","html-keyboard-response","46","544691","0.0-38.0","7707F203186E4B6993828EA8615086B2","0199d602-b798-740e-b206-b092193b9909","0199d5ef-c7d4-7cab-a194-b2c3afbaf8e8","","null","<div style=""display: flex; justify-content: center; align-items: center;"">
                     <img src=""images/causal/causal_series_10/causal_series_10_b.png"" style=""width: 300px; height: 300px;"" />
                   </div>","null","10","1","B","",""
"","","","","","html-keyboard-response","47","550695","0.0-39.0","7707F203186E4B6993828EA8615086B2","0199d602-b798-740e-b206-b092193b9909","0199d5ef-c7d4-7cab-a194-b2c3afbaf8e8","","null","<div style=""display: flex; justify-content: center; align-items: center;"">
                     <img src=""images/causal/causal_series_10/causal_series_10_c.png"" style=""width: 300px; height: 300px;"" />
                   </div>","null","10","1","C","",""
"","","","","","html-button-response","48","553121","0.0-40.0","7707F203186E4B6993828EA8615086B2","0199d602-b798-740e-b206-b092193b9909","0199d5ef-c7d4-7cab-a194-b2c3afbaf8e8","","2424","
        <div style=""display: flex; justify-content: center; align-items: center;"">
          <img src=""images/red_deck_2.png"" style=""width: 300px; height: 300px; margin-right: 10px;"" />
          <img src=""images/blue_deck_1.png"" style=""width: 300px; height: 300px;"" />
        </div>","1","10","1","choice","1",""
"","","","","","html-keyboard-response","49","559122","0.0-41.0-1.0-0.0","7707F203186E4B6993828EA8615086B2","0199d602-b798-740e-b206-b092193b9909","0199d5ef-c7d4-7cab-a194-b2c3afbaf8e8","","null","<div style=""display: flex; justify-content: center; align-items: center;"">
                     <img src=""images/semantic/semantic_series_10/semantic_series_10_d.png"" style=""width: 300px; height: 300px;"" />
                   </div>","null","10","1","D","",""
"","","","","","html-keyboard-response","50","565125","0.0-41.0-1.0-1.0","7707F203186E4B6993828EA8615086B2","0199d602-b798-740e-b206-b092193b9909","0199d5ef-c7d4-7cab-a194-b2c3afbaf8e8","","null","<div style=""display: flex; justify-content: center; align-items: center;"">
                     <img src=""images/semantic/semantic_series_10/semantic_series_10_e.png"" style=""width: 300px; height: 300px;"" />
                   </div>","null","10","1","E","",""
"","","","","","html-keyboard-response","51","571129","0.0-41.0-1.0-2.0","7707F203186E4B6993828EA8615086B2","0199d602-b798-740e-b206-b092193b9909","0199d5ef-c7d4-7cab-a194-b2c3afbaf8e8","","null","<div style=""display: flex; justify-content: center; align-items: center;"">
                     <img src=""images/semantic/semantic_series_10/semantic_series_10_f.png"" style=""width: 300px; height: 300px;"" />
                   </div>","null","10","1","F","",""
"","","","","","survey-likert","52","573604","0.0-42.0","7707F203186E4B6993828EA8615086B2","0199d602-b798-740e-b206-b092193b9909","0199d5ef-c7d4-7cab-a194-b2c3afbaf8e8","","2474","","{""Q0"":2}","10","1","surprise_rating","","[0]"
"","","","","","survey-likert","53","575313","0.0-43.0","7707F203186E4B6993828EA8615086B2","0199d602-b798-740e-b206-b092193b9909","0199d5ef-c7d4-7cab-a194-b2c3afbaf8e8","","1709","","{""Q0"":1}","10","1","enjoyment_rating","","[0]"
"","","","","","html-keyboard-response","54","581315","0.0-44.0","7707F203186E4B6993828EA8615086B2","0199d602-b798-740e-b206-b092193b9909","0199d5ef-c7d4-7cab-a194-b2c3afbaf8e8","","null","<div style=""display: flex; justify-content: center; align-items: center;"">
                     <img src=""images/other/blank.png"" style=""width: 300px; height: 300px;"" />
                   </div>","null","0","0","blank","",""
"","","","","","html-keyboard-response","55","587319","0.0-45.0","7707F203186E4B6993828EA8615086B2","0199d602-b798-740e-b206-b092193b9909","0199d5ef-c7d4-7cab-a194-b2c3afbaf8e8","","null","<div style=""display: flex; justify-content: center; align-items: center;"">
                     <img src=""images/causal/causal_series_7/causal_series_7_a.png"" style=""width: 300px; height: 300px;"" />
                   </div>","null","7","2","A","",""
"","","","","","html-keyboard-response","56","593323","0.0-46.0","7707F203186E4B6993828EA8615086B2","0199d602-b798-740e-b206-b092193b9909","0199d5ef-c7d4-7cab-a194-b2c3afbaf8e8","","null","<div style=""display: flex; justify-content: center; align-items: center;"">
                     <img src=""images/causal/causal_series_7/causal_series_7_b.png"" style=""width: 300px; height: 300px;"" />
                   </div>","null","7","2","B","",""
"","","","","","html-keyboard-response","57","599328","0.0-47.0","7707F203186E4B6993828EA8615086B2","0199d602-b798-740e-b206-b092193b9909","0199d5ef-c7d4-7cab-a194-b2c3afbaf8e8","","null","<div style=""display: flex; justify-content: center; align-items: center;"">
                     <img src=""images/causal/causal_series_7/causal_series_7_c.png"" style=""width: 300px; height: 300px;"" />
                   </div>","null","7","2","C","",""
"","","","","","html-button-response","58","600927","0.0-48.0","7707F203186E4B6993828EA8615086B2","0199d602-b798-740e-b206-b092193b9909","0199d5ef-c7d4-7cab-a194-b2c3afbaf8e8","","1598","
        <div style=""display: flex; justify-content: center; align-items: center;"">
          <img src=""images/red_deck_2.png"" style=""width: 300px; height: 300px; margin-right: 10px;"" />
          <img src=""images/blue_deck_1.png"" style=""width: 300px; height: 300px;"" />
        </div>","1","7","2","choice","1",""
"","","","","","html-keyboard-response","59","606940","0.0-49.0-1.0-0.0","7707F203186E4B6993828EA8615086B2","0199d602-b798-740e-b206-b092193b9909","0199d5ef-c7d4-7cab-a194-b2c3afbaf8e8","","null","<div style=""display: flex; justify-content: center; align-items: center;"">
                     <img src=""images/semantic/semantic_series_7/semantic_series_7_d.png"" style=""width: 300px; height: 300px;"" />
                   </div>","null","7","2","D","",""
"","","","","","html-keyboard-response","60","612945","0.0-49.0-1.0-1.0","7707F203186E4B6993828EA8615086B2","0199d602-b798-740e-b206-b092193b9909","0199d5ef-c7d4-7cab-a194-b2c3afbaf8e8","","null","<div style=""display: flex; justify-content: center; align-items: center;"">
                     <img src=""images/semantic/semantic_series_7/semantic_series_7_e.png"" style=""width: 300px; height: 300px;"" />
                   </div>","null","7","2","E","",""
"","","","","","html-keyboard-response","61","618952","0.0-49.0-1.0-2.0","7707F203186E4B6993828EA8615086B2","0199d602-b798-740e-b206-b092193b9909","0199d5ef-c7d4-7cab-a194-b2c3afbaf8e8","","null","<div style=""display: flex; justify-content: center; align-items: center;"">
                     <img src=""images/semantic/semantic_series_7/semantic_series_7_f.png"" style=""width: 300px; height: 300px;"" />
                   </div>","null","7","2","F","",""
"","","","","","survey-likert","62","621850","0.0-50.0","7707F203186E4B6993828EA8615086B2","0199d602-b798-740e-b206-b092193b9909","0199d5ef-c7d4-7cab-a194-b2c3afbaf8e8","","2897","","{""Q0"":3}","7","2","surprise_rating","","[0]"
"","","","","","survey-likert","63","622954","0.0-51.0","7707F203186E4B6993828EA8615086B2","0199d602-b798-740e-b206-b092193b9909","0199d5ef-c7d4-7cab-a194-b2c3afbaf8e8","","1102","","{""Q0"":0}","7","2","enjoyment_rating","","[0]"
"","","","","","html-keyboard-response","64","628964","0.0-52.0","7707F203186E4B6993828EA8615086B2","0199d602-b798-740e-b206-b092193b9909","0199d5ef-c7d4-7cab-a194-b2c3afbaf8e8","","null","<div style=""display: flex; justify-content: center; align-items: center;"">
                     <img src=""images/other/blank.png"" style=""width: 300px; height: 300px;"" />
                   </div>","null","0","0","blank","",""
"","","","","","html-keyboard-response","65","634965","0.0-53.0","7707F203186E4B6993828EA8615086B2","0199d602-b798-740e-b206-b092193b9909","0199d5ef-c7d4-7cab-a194-b2c3afbaf8e8","","null","<div style=""display: flex; justify-content: center; align-items: center;"">
                     <img src=""images/causal/causal_series_4/causal_series_4_a.png"" style=""width: 300px; height: 300px;"" />
                   </div>","null","4","2","A","",""
"","","","","","html-keyboard-response","66","640970","0.0-54.0","7707F203186E4B6993828EA8615086B2","0199d602-b798-740e-b206-b092193b9909","0199d5ef-c7d4-7cab-a194-b2c3afbaf8e8","","null","<div style=""display: flex; justify-content: center; align-items: center;"">
                     <img src=""images/causal/causal_series_4/causal_series_4_b.png"" style=""width: 300px; height: 300px;"" />
                   </div>","null","4","2","B","",""
"","","","","","html-keyboard-response","67","646980","0.0-55.0","7707F203186E4B6993828EA8615086B2","0199d602-b798-740e-b206-b092193b9909","0199d5ef-c7d4-7cab-a194-b2c3afbaf8e8","","null","<div style=""display: flex; justify-content: center; align-items: center;"">
                     <img src=""images/causal/causal_series_4/causal_series_4_c.png"" style=""width: 300px; height: 300px;"" />
                   </div>","null","4","2","C","",""
"","","","","","html-button-response","68","648903","0.0-56.0","7707F203186E4B6993828EA8615086B2","0199d602-b798-740e-b206-b092193b9909","0199d5ef-c7d4-7cab-a194-b2c3afbaf8e8","","1922","
        <div style=""display: flex; justify-content: center; align-items: center;"">
          <img src=""images/red_deck_2.png"" style=""width: 300px; height: 300px; margin-right: 10px;"" />
          <img src=""images/blue_deck_1.png"" style=""width: 300px; height: 300px;"" />
        </div>","0","4","2","choice","0",""
"","","","","","html-keyboard-response","69","654905","0.0-57.0-0.0-0.0","7707F203186E4B6993828EA8615086B2","0199d602-b798-740e-b206-b092193b9909","0199d5ef-c7d4-7cab-a194-b2c3afbaf8e8","","null","<div style=""display: flex; justify-content: center; align-items: center;"">
                     <img src=""images/causal/causal_series_4/causal_series_4_d.png"" style=""width: 300px; height: 300px;"" />
                   </div>","null","4","2","D","",""
"","","","","","html-keyboard-response","70","660909","0.0-57.0-0.0-1.0","7707F203186E4B6993828EA8615086B2","0199d602-b798-740e-b206-b092193b9909","0199d5ef-c7d4-7cab-a194-b2c3afbaf8e8","","null","<div style=""display: flex; justify-content: center; align-items: center;"">
                     <img src=""images/causal/causal_series_4/causal_series_4_e.png"" style=""width: 300px; height: 300px;"" />
                   </div>","null","4","2","E","",""
"","","","","","html-keyboard-response","71","666913","0.0-57.0-0.0-2.0","7707F203186E4B6993828EA8615086B2","0199d602-b798-740e-b206-b092193b9909","0199d5ef-c7d4-7cab-a194-b2c3afbaf8e8","","null","<div style=""display: flex; justify-content: center; align-items: center;"">
                     <img src=""images/causal/causal_series_4/causal_series_4_f.png"" style=""width: 300px; height: 300px;"" />
                   </div>","null","4","2","F","",""
"","","","","","survey-likert","72","671436","0.0-58.0","7707F203186E4B6993828EA8615086B2","0199d602-b798-740e-b206-b092193b9909","0199d5ef-c7d4-7cab-a194-b2c3afbaf8e8","","4522","","{""Q0"":1}","4","2","surprise_rating","","[0]"
"","","","","","survey-likert","73","674904","0.0-59.0","7707F203186E4B6993828EA8615086B2","0199d602-b798-740e-b206-b092193b9909","0199d5ef-c7d4-7cab-a194-b2c3afbaf8e8","","3467","","{""Q0"":2}","4","2","enjoyment_rating","","[0]"
"","","","","","html-keyboard-response","74","680926","0.0-60.0","7707F203186E4B6993828EA8615086B2","0199d602-b798-740e-b206-b092193b9909","0199d5ef-c7d4-7cab-a194-b2c3afbaf8e8","","null","<div style=""display: flex; justify-content: center; align-items: center;"">
                     <img src=""images/other/blank.png"" style=""width: 300px; height: 300px;"" />
                   </div>","null","0","0","blank","",""
"","","","","","html-keyboard-response","75","686937","0.0-61.0","7707F203186E4B6993828EA8615086B2","0199d602-b798-740e-b206-b092193b9909","0199d5ef-c7d4-7cab-a194-b2c3afbaf8e8","","null","<div style=""display: flex; justify-content: center; align-items: center;"">
                     <img src=""images/causal/causal_series_2/causal_series_2_a.png"" style=""width: 300px; height: 300px;"" />
                   </div>","null","2","2","A","",""
"","","","","","html-keyboard-response","76","692941","0.0-62.0","7707F203186E4B6993828EA8615086B2","0199d602-b798-740e-b206-b092193b9909","0199d5ef-c7d4-7cab-a194-b2c3afbaf8e8","","null","<div style=""display: flex; justify-content: center; align-items: center;"">
                     <img src=""images/causal/causal_series_2/causal_series_2_b.png"" style=""width: 300px; height: 300px;"" />
                   </div>","null","2","2","B","",""
"","","","","","html-keyboard-response","77","698946","0.0-63.0","7707F203186E4B6993828EA8615086B2","0199d602-b798-740e-b206-b092193b9909","0199d5ef-c7d4-7cab-a194-b2c3afbaf8e8","","null","<div style=""display: flex; justify-content: center; align-items: center;"">
                     <img src=""images/causal/causal_series_2/causal_series_2_c.png"" style=""width: 300px; height: 300px;"" />
                   </div>","null","2","2","C","",""
"","","","","","html-button-response","78","702374","0.0-64.0","7707F203186E4B6993828EA8615086B2","0199d602-b798-740e-b206-b092193b9909","0199d5ef-c7d4-7cab-a194-b2c3afbaf8e8","","3427","
        <div style=""display: flex; justify-content: center; align-items: center;"">
          <img src=""images/red_deck_2.png"" style=""width: 300px; height: 300px; margin-right: 10px;"" />
          <img src=""images/blue_deck_1.png"" style=""width: 300px; height: 300px;"" />
        </div>","0","2","2","choice","0",""
"","","","","","html-keyboard-response","79","708386","0.0-65.0-0.0-0.0","7707F203186E4B6993828EA8615086B2","0199d602-b798-740e-b206-b092193b9909","0199d5ef-c7d4-7cab-a194-b2c3afbaf8e8","","null","<div style=""display: flex; justify-content: center; align-items: center;"">
                     <img src=""images/causal/causal_series_2/causal_series_2_d.png"" style=""width: 300px; height: 300px;"" />
                   </div>","null","2","2","D","",""
"","","","","","html-keyboard-response","80","714392","0.0-65.0-0.0-1.0","7707F203186E4B6993828EA8615086B2","0199d602-b798-740e-b206-b092193b9909","0199d5ef-c7d4-7cab-a194-b2c3afbaf8e8","","null","<div style=""display: flex; justify-content: center; align-items: center;"">
                     <img src=""images/causal/causal_series_2/causal_series_2_e.png"" style=""width: 300px; height: 300px;"" />
                   </div>","null","2","2","E","",""
"","","","","","html-keyboard-response","81","720393","0.0-65.0-0.0-2.0","7707F203186E4B6993828EA8615086B2","0199d602-b798-740e-b206-b092193b9909","0199d5ef-c7d4-7cab-a194-b2c3afbaf8e8","","null","<div style=""display: flex; justify-content: center; align-items: center;"">
                     <img src=""images/causal/causal_series_2/causal_series_2_f.png"" style=""width: 300px; height: 300px;"" />
                   </div>","null","2","2","F","",""
"","","","","","survey-likert","82","723802","0.0-66.0","7707F203186E4B6993828EA8615086B2","0199d602-b798-740e-b206-b092193b9909","0199d5ef-c7d4-7cab-a194-b2c3afbaf8e8","","3408","","{""Q0"":1}","2","2","surprise_rating","","[0]"
"","","","","","survey-likert","83","725408","0.0-67.0","7707F203186E4B6993828EA8615086B2","0199d602-b798-740e-b206-b092193b9909","0199d5ef-c7d4-7cab-a194-b2c3afbaf8e8","","1605","","{""Q0"":1}","2","2","enjoyment_rating","","[0]"
"","","","","","html-keyboard-response","84","731411","0.0-68.0","7707F203186E4B6993828EA8615086B2","0199d602-b798-740e-b206-b092193b9909","0199d5ef-c7d4-7cab-a194-b2c3afbaf8e8","","null","<div style=""display: flex; justify-content: center; align-items: center;"">
                     <img src=""images/other/blank.png"" style=""width: 300px; height: 300px;"" />
                   </div>","null","0","0","blank","",""
"","","","","","html-keyboard-response","85","737426","0.0-69.0","7707F203186E4B6993828EA8615086B2","0199d602-b798-740e-b206-b092193b9909","0199d5ef-c7d4-7cab-a194-b2c3afbaf8e8","","null","<div style=""display: flex; justify-content: center; align-items: center;"">
                     <img src=""images/causal/causal_series_8/causal_series_8_a.png"" style=""width: 300px; height: 300px;"" />
                   </div>","null","8","1","A","",""
"","","","","","html-keyboard-response","86","743430","0.0-70.0","7707F203186E4B6993828EA8615086B2","0199d602-b798-740e-b206-b092193b9909","0199d5ef-c7d4-7cab-a194-b2c3afbaf8e8","","null","<div style=""display: flex; justify-content: center; align-items: center;"">
                     <img src=""images/causal/causal_series_8/causal_series_8_b.png"" style=""width: 300px; height: 300px;"" />
                   </div>","null","8","1","B","",""
"","","","","","html-keyboard-response","87","749434","0.0-71.0","7707F203186E4B6993828EA8615086B2","0199d602-b798-740e-b206-b092193b9909","0199d5ef-c7d4-7cab-a194-b2c3afbaf8e8","","null","<div style=""display: flex; justify-content: center; align-items: center;"">
                     <img src=""images/causal/causal_series_8/causal_series_8_c.png"" style=""width: 300px; height: 300px;"" />
                   </div>","null","8","1","C","",""
"","","","","","html-button-response","88","752524","0.0-72.0","7707F203186E4B6993828EA8615086B2","0199d602-b798-740e-b206-b092193b9909","0199d5ef-c7d4-7cab-a194-b2c3afbaf8e8","","3089","
        <div style=""display: flex; justify-content: center; align-items: center;"">
          <img src=""images/red_deck_2.png"" style=""width: 300px; height: 300px; margin-right: 10px;"" />
          <img src=""images/blue_deck_1.png"" style=""width: 300px; height: 300px;"" />
        </div>","1","8","1","choice","1",""
"","","","","","html-keyboard-response","89","758537","0.0-73.0-1.0-0.0","7707F203186E4B6993828EA8615086B2","0199d602-b798-740e-b206-b092193b9909","0199d5ef-c7d4-7cab-a194-b2c3afbaf8e8","","null","<div style=""display: flex; justify-content: center; align-items: center;"">
                     <img src=""images/semantic/semantic_series_8/semantic_series_8_d.png"" style=""width: 300px; height: 300px;"" />
                   </div>","null","8","1","D","",""
"","","","","","html-keyboard-response","90","764547","0.0-73.0-1.0-1.0","7707F203186E4B6993828EA8615086B2","0199d602-b798-740e-b206-b092193b9909","0199d5ef-c7d4-7cab-a194-b2c3afbaf8e8","","null","<div style=""display: flex; justify-content: center; align-items: center;"">
                     <img src=""images/semantic/semantic_series_8/semantic_series_8_e.png"" style=""width: 300px; height: 300px;"" />
                   </div>","null","8","1","E","",""
"","","","","","html-keyboard-response","91","770559","0.0-73.0-1.0-2.0","7707F203186E4B6993828EA8615086B2","0199d602-b798-740e-b206-b092193b9909","0199d5ef-c7d4-7cab-a194-b2c3afbaf8e8","","null","<div style=""display: flex; justify-content: center; align-items: center;"">
                     <img src=""images/semantic/semantic_series_8/semantic_series_8_f.png"" style=""width: 300px; height: 300px;"" />
                   </div>","null","8","1","F","",""
"","","","","","survey-likert","92","773482","0.0-74.0","7707F203186E4B6993828EA8615086B2","0199d602-b798-740e-b206-b092193b9909","0199d5ef-c7d4-7cab-a194-b2c3afbaf8e8","","2922","","{""Q0"":0}","8","1","surprise_rating","","[0]"
"","","","","","survey-likert","93","774674","0.0-75.0","7707F203186E4B6993828EA8615086B2","0199d602-b798-740e-b206-b092193b9909","0199d5ef-c7d4-7cab-a194-b2c3afbaf8e8","","1191","","{""Q0"":1}","8","1","enjoyment_rating","","[0]"
"","","","","","html-keyboard-response","94","780689","0.0-76.0","7707F203186E4B6993828EA8615086B2","0199d602-b798-740e-b206-b092193b9909","0199d5ef-c7d4-7cab-a194-b2c3afbaf8e8","","null","<div style=""display: flex; justify-content: center; align-items: center;"">
                     <img src=""images/other/blank.png"" style=""width: 300px; height: 300px;"" />
                   </div>","null","0","0","blank","",""
"","","","","","html-keyboard-response","95","786697","0.0-77.0","7707F203186E4B6993828EA8615086B2","0199d602-b798-740e-b206-b092193b9909","0199d5ef-c7d4-7cab-a194-b2c3afbaf8e8","","null","<div style=""display: flex; justify-content: center; align-items: center;"">
                     <img src=""images/causal/causal_series_10/causal_series_10_a.png"" style=""width: 300px; height: 300px;"" />
                   </div>","null","10","2","A","",""
"","","","","","html-keyboard-response","96","792703","0.0-78.0","7707F203186E4B6993828EA8615086B2","0199d602-b798-740e-b206-b092193b9909","0199d5ef-c7d4-7cab-a194-b2c3afbaf8e8","","null","<div style=""display: flex; justify-content: center; align-items: center;"">
                     <img src=""images/causal/causal_series_10/causal_series_10_b.png"" style=""width: 300px; height: 300px;"" />
                   </div>","null","10","2","B","",""
"","","","","","html-keyboard-response","97","798709","0.0-79.0","7707F203186E4B6993828EA8615086B2","0199d602-b798-740e-b206-b092193b9909","0199d5ef-c7d4-7cab-a194-b2c3afbaf8e8","","null","<div style=""display: flex; justify-content: center; align-items: center;"">
                     <img src=""images/causal/causal_series_10/causal_series_10_c.png"" style=""width: 300px; height: 300px;"" />
                   </div>","null","10","2","C","",""
"","","","","","html-button-response","98","801482","0.0-80.0","7707F203186E4B6993828EA8615086B2","0199d602-b798-740e-b206-b092193b9909","0199d5ef-c7d4-7cab-a194-b2c3afbaf8e8","","2772","
        <div style=""display: flex; justify-content: center; align-items: center;"">
          <img src=""images/red_deck_2.png"" style=""width: 300px; height: 300px; margin-right: 10px;"" />
          <img src=""images/blue_deck_1.png"" style=""width: 300px; height: 300px;"" />
        </div>","0","10","2","choice","0",""
"","","","","","html-keyboard-response","99","807488","0.0-81.0-0.0-0.0","7707F203186E4B6993828EA8615086B2","0199d602-b798-740e-b206-b092193b9909","0199d5ef-c7d4-7cab-a194-b2c3afbaf8e8","","null","<div style=""display: flex; justify-content: center; align-items: center;"">
                     <img src=""images/causal/causal_series_10/causal_series_10_d.png"" style=""width: 300px; height: 300px;"" />
                   </div>","null","10","2","D","",""
"","","","","","html-keyboard-response","100","813492","0.0-81.0-0.0-1.0","7707F203186E4B6993828EA8615086B2","0199d602-b798-740e-b206-b092193b9909","0199d5ef-c7d4-7cab-a194-b2c3afbaf8e8","","null","<div style=""display: flex; justify-content: center; align-items: center;"">
                     <img src=""images/causal/causal_series_10/causal_series_10_e.png"" style=""width: 300px; height: 300px;"" />
                   </div>","null","10","2","E","",""
"","","","","","html-keyboard-response","101","819503","0.0-81.0-0.0-2.0","7707F203186E4B6993828EA8615086B2","0199d602-b798-740e-b206-b092193b9909","0199d5ef-c7d4-7cab-a194-b2c3afbaf8e8","","null","<div style=""display: flex; justify-content: center; align-items: center;"">
                     <img src=""images/causal/causal_series_10/causal_series_10_f.png"" style=""width: 300px; height: 300px;"" />
                   </div>","null","10","2","F","",""
"","","","","","survey-likert","102","825164","0.0-82.0","7707F203186E4B6993828EA8615086B2","0199d602-b798-740e-b206-b092193b9909","0199d5ef-c7d4-7cab-a194-b2c3afbaf8e8","","5661","","{""Q0"":0}","10","2","surprise_rating","","[0]"
"","","","","","survey-likert","103","827483","0.0-83.0","7707F203186E4B6993828EA8615086B2","0199d602-b798-740e-b206-b092193b9909","0199d5ef-c7d4-7cab-a194-b2c3afbaf8e8","","2318","","{""Q0"":0}","10","2","enjoyment_rating","","[0]"
"","","","","","html-keyboard-response","104","833493","0.0-84.0","7707F203186E4B6993828EA8615086B2","0199d602-b798-740e-b206-b092193b9909","0199d5ef-c7d4-7cab-a194-b2c3afbaf8e8","","null","<div style=""display: flex; justify-content: center; align-items: center;"">
                     <img src=""images/other/blank.png"" style=""width: 300px; height: 300px;"" />
                   </div>","null","0","0","blank","",""
"","","","","","html-keyboard-response","105","839494","0.0-85.0","7707F203186E4B6993828EA8615086B2","0199d602-b798-740e-b206-b092193b9909","0199d5ef-c7d4-7cab-a194-b2c3afbaf8e8","","null","<div style=""display: flex; justify-content: center; align-items: center;"">
                     <img src=""images/causal/causal_series_1/causal_series_1_a.png"" style=""width: 300px; height: 300px;"" />
                   </div>","null","1","1","A","",""
"","","","","","html-keyboard-response","106","845504","0.0-86.0","7707F203186E4B6993828EA8615086B2","0199d602-b798-740e-b206-b092193b9909","0199d5ef-c7d4-7cab-a194-b2c3afbaf8e8","","null","<div style=""display: flex; justify-content: center; align-items: center;"">
                     <img src=""images/causal/causal_series_1/causal_series_1_b.png"" style=""width: 300px; height: 300px;"" />
                   </div>","null","1","1","B","",""
"","","","","","html-keyboard-response","107","851508","0.0-87.0","7707F203186E4B6993828EA8615086B2","0199d602-b798-740e-b206-b092193b9909","0199d5ef-c7d4-7cab-a194-b2c3afbaf8e8","","null","<div style=""display: flex; justify-content: center; align-items: center;"">
                     <img src=""images/causal/causal_series_1/causal_series_1_c.png"" style=""width: 300px; height: 300px;"" />
                   </div>","null","1","1","C","",""
"","","","","","html-button-response","108","860157","0.0-88.0","7707F203186E4B6993828EA8615086B2","0199d602-b798-740e-b206-b092193b9909","0199d5ef-c7d4-7cab-a194-b2c3afbaf8e8","","8647","
        <div style=""display: flex; justify-content: center; align-items: center;"">
          <img src=""images/red_deck_2.png"" style=""width: 300px; height: 300px; margin-right: 10px;"" />
          <img src=""images/blue_deck_1.png"" style=""width: 300px; height: 300px;"" />
        </div>","0","1","1","choice","0",""
"","","","","","html-keyboard-response","109","866159","0.0-89.0-0.0-0.0","7707F203186E4B6993828EA8615086B2","0199d602-b798-740e-b206-b092193b9909","0199d5ef-c7d4-7cab-a194-b2c3afbaf8e8","","null","<div style=""display: flex; justify-content: center; align-items: center;"">
                     <img src=""images/causal/causal_series_1/causal_series_1_d.png"" style=""width: 300px; height: 300px;"" />
                   </div>","null","1","1","D","",""
"","","","","","html-keyboard-response","110","872164","0.0-89.0-0.0-1.0","7707F203186E4B6993828EA8615086B2","0199d602-b798-740e-b206-b092193b9909","0199d5ef-c7d4-7cab-a194-b2c3afbaf8e8","","null","<div style=""display: flex; justify-content: center; align-items: center;"">
                     <img src=""images/causal/causal_series_1/causal_series_1_e.png"" style=""width: 300px; height: 300px;"" />
                   </div>","null","1","1","E","",""
"","","","","","html-keyboard-response","111","878175","0.0-89.0-0.0-2.0","7707F203186E4B6993828EA8615086B2","0199d602-b798-740e-b206-b092193b9909","0199d5ef-c7d4-7cab-a194-b2c3afbaf8e8","","null","<div style=""display: flex; justify-content: center; align-items: center;"">
                     <img src=""images/causal/causal_series_1/causal_series_1_f.png"" style=""width: 300px; height: 300px;"" />
                   </div>","null","1","1","F","",""
"","","","","","survey-likert","112","882306","0.0-90.0","7707F203186E4B6993828EA8615086B2","0199d602-b798-740e-b206-b092193b9909","0199d5ef-c7d4-7cab-a194-b2c3afbaf8e8","","4129","","{""Q0"":1}","1","1","surprise_rating","","[0]"
"","","","","","survey-likert","113","883579","0.0-91.0","7707F203186E4B6993828EA8615086B2","0199d602-b798-740e-b206-b092193b9909","0199d5ef-c7d4-7cab-a194-b2c3afbaf8e8","","1272","","{""Q0"":0}","1","1","enjoyment_rating","","[0]"
"","","","","","html-keyboard-response","114","889583","0.0-92.0","7707F203186E4B6993828EA8615086B2","0199d602-b798-740e-b206-b092193b9909","0199d5ef-c7d4-7cab-a194-b2c3afbaf8e8","","null","<div style=""display: flex; justify-content: center; align-items: center;"">
                     <img src=""images/other/blank.png"" style=""width: 300px; height: 300px;"" />
                   </div>","null","0","0","blank","",""
"","","","","","html-keyboard-response","115","895591","0.0-93.0","7707F203186E4B6993828EA8615086B2","0199d602-b798-740e-b206-b092193b9909","0199d5ef-c7d4-7cab-a194-b2c3afbaf8e8","","null","<div style=""display: flex; justify-content: center; align-items: center;"">
                     <img src=""images/causal/causal_series_9/causal_series_9_a.png"" style=""width: 300px; height: 300px;"" />
                   </div>","null","9","1","A","",""
"","","","","","html-keyboard-response","116","901607","0.0-94.0","7707F203186E4B6993828EA8615086B2","0199d602-b798-740e-b206-b092193b9909","0199d5ef-c7d4-7cab-a194-b2c3afbaf8e8","","null","<div style=""display: flex; justify-content: center; align-items: center;"">
                     <img src=""images/causal/causal_series_9/causal_series_9_b.png"" style=""width: 300px; height: 300px;"" />
                   </div>","null","9","1","B","",""
"","","","","","html-keyboard-response","117","907619","0.0-95.0","7707F203186E4B6993828EA8615086B2","0199d602-b798-740e-b206-b092193b9909","0199d5ef-c7d4-7cab-a194-b2c3afbaf8e8","","null","<div style=""display: flex; justify-content: center; align-items: center;"">
                     <img src=""images/causal/causal_series_9/causal_series_9_c.png"" style=""width: 300px; height: 300px;"" />
                   </div>","null","9","1","C","",""
"","","","","","html-button-response","118","908568","0.0-96.0","7707F203186E4B6993828EA8615086B2","0199d602-b798-740e-b206-b092193b9909","0199d5ef-c7d4-7cab-a194-b2c3afbaf8e8","","949","
        <div style=""display: flex; justify-content: center; align-items: center;"">
          <img src=""images/red_deck_2.png"" style=""width: 300px; height: 300px; margin-right: 10px;"" />
          <img src=""images/blue_deck_1.png"" style=""width: 300px; height: 300px;"" />
        </div>","1","9","1","choice","1",""
"","","","","","html-keyboard-response","119","914572","0.0-97.0-1.0-0.0","7707F203186E4B6993828EA8615086B2","0199d602-b798-740e-b206-b092193b9909","0199d5ef-c7d4-7cab-a194-b2c3afbaf8e8","","null","<div style=""display: flex; justify-content: center; align-items: center;"">
                     <img src=""images/semantic/semantic_series_9/semantic_series_9_d.png"" style=""width: 300px; height: 300px;"" />
                   </div>","null","9","1","D","",""
"","","","","","html-keyboard-response","120","920577","0.0-97.0-1.0-1.0","7707F203186E4B6993828EA8615086B2","0199d602-b798-740e-b206-b092193b9909","0199d5ef-c7d4-7cab-a194-b2c3afbaf8e8","","null","<div style=""display: flex; justify-content: center; align-items: center;"">
                     <img src=""images/semantic/semantic_series_9/semantic_series_9_e.png"" style=""width: 300px; height: 300px;"" />
                   </div>","null","9","1","E","",""
"","","","","","html-keyboard-response","121","926580","0.0-97.0-1.0-2.0","7707F203186E4B6993828EA8615086B2","0199d602-b798-740e-b206-b092193b9909","0199d5ef-c7d4-7cab-a194-b2c3afbaf8e8","","null","<div style=""display: flex; justify-content: center; align-items: center;"">
                     <img src=""images/semantic/semantic_series_9/semantic_series_9_f.png"" style=""width: 300px; height: 300px;"" />
                   </div>","null","9","1","F","",""
"","","","","","survey-likert","122","930065","0.0-98.0","7707F203186E4B6993828EA8615086B2","0199d602-b798-740e-b206-b092193b9909","0199d5ef-c7d4-7cab-a194-b2c3afbaf8e8","","3484","","{""Q0"":1}","9","1","surprise_rating","","[0]"
"","","","","","survey-likert","123","931719","0.0-99.0","7707F203186E4B6993828EA8615086B2","0199d602-b798-740e-b206-b092193b9909","0199d5ef-c7d4-7cab-a194-b2c3afbaf8e8","","1653","","{""Q0"":0}","9","1","enjoyment_rating","","[0]"
"","","","","","html-keyboard-response","124","937731","0.0-100.0","7707F203186E4B6993828EA8615086B2","0199d602-b798-740e-b206-b092193b9909","0199d5ef-c7d4-7cab-a194-b2c3afbaf8e8","","null","<div style=""display: flex; justify-content: center; align-items: center;"">
                     <img src=""images/other/blank.png"" style=""width: 300px; height: 300px;"" />
                   </div>","null","0","0","blank","",""
"","","","","","html-keyboard-response","125","943735","0.0-101.0","7707F203186E4B6993828EA8615086B2","0199d602-b798-740e-b206-b092193b9909","0199d5ef-c7d4-7cab-a194-b2c3afbaf8e8","","null","<div style=""display: flex; justify-content: center; align-items: center;"">
                     <img src=""images/causal/causal_series_6/causal_series_6_a.png"" style=""width: 300px; height: 300px;"" />
                   </div>","null","6","2","A","",""
"","","","","","html-keyboard-response","126","949740","0.0-102.0","7707F203186E4B6993828EA8615086B2","0199d602-b798-740e-b206-b092193b9909","0199d5ef-c7d4-7cab-a194-b2c3afbaf8e8","","null","<div style=""display: flex; justify-content: center; align-items: center;"">
                     <img src=""images/causal/causal_series_6/causal_series_6_b.png"" style=""width: 300px; height: 300px;"" />
                   </div>","null","6","2","B","",""
"","","","","","html-keyboard-response","127","955744","0.0-103.0","7707F203186E4B6993828EA8615086B2","0199d602-b798-740e-b206-b092193b9909","0199d5ef-c7d4-7cab-a194-b2c3afbaf8e8","","null","<div style=""display: flex; justify-content: center; align-items: center;"">
                     <img src=""images/causal/causal_series_6/causal_series_6_c.png"" style=""width: 300px; height: 300px;"" />
                   </div>","null","6","2","C","",""
"","","","","","html-button-response","128","956849","0.0-104.0","7707F203186E4B6993828EA8615086B2","0199d602-b798-740e-b206-b092193b9909","0199d5ef-c7d4-7cab-a194-b2c3afbaf8e8","","1105","
        <div style=""display: flex; justify-content: center; align-items: center;"">
          <img src=""images/red_deck_2.png"" style=""width: 300px; height: 300px; margin-right: 10px;"" />
          <img src=""images/blue_deck_1.png"" style=""width: 300px; height: 300px;"" />
        </div>","1","6","2","choice","1",""
"","","","","","html-keyboard-response","129","962854","0.0-105.0-1.0-0.0","7707F203186E4B6993828EA8615086B2","0199d602-b798-740e-b206-b092193b9909","0199d5ef-c7d4-7cab-a194-b2c3afbaf8e8","","null","<div style=""display: flex; justify-content: center; align-items: center;"">
                     <img src=""images/semantic/semantic_series_6/semantic_series_6_d.png"" style=""width: 300px; height: 300px;"" />
                   </div>","null","6","2","D","",""
"","","","","","html-keyboard-response","130","968859","0.0-105.0-1.0-1.0","7707F203186E4B6993828EA8615086B2","0199d602-b798-740e-b206-b092193b9909","0199d5ef-c7d4-7cab-a194-b2c3afbaf8e8","","null","<div style=""display: flex; justify-content: center; align-items: center;"">
                     <img src=""images/semantic/semantic_series_6/semantic_series_6_e.png"" style=""width: 300px; height: 300px;"" />
                   </div>","null","6","2","E","",""
"","","","","","html-keyboard-response","131","974863","0.0-105.0-1.0-2.0","7707F203186E4B6993828EA8615086B2","0199d602-b798-740e-b206-b092193b9909","0199d5ef-c7d4-7cab-a194-b2c3afbaf8e8","","null","<div style=""display: flex; justify-content: center; align-items: center;"">
                     <img src=""images/semantic/semantic_series_6/semantic_series_6_f.png"" style=""width: 300px; height: 300px;"" />
                   </div>","null","6","2","F","",""
"","","","","","survey-likert","132","976325","0.0-106.0","7707F203186E4B6993828EA8615086B2","0199d602-b798-740e-b206-b092193b9909","0199d5ef-c7d4-7cab-a194-b2c3afbaf8e8","","1461","","{""Q0"":3}","6","2","surprise_rating","","[0]"
"","","","","","survey-likert","133","978184","0.0-107.0","7707F203186E4B6993828EA8615086B2","0199d602-b798-740e-b206-b092193b9909","0199d5ef-c7d4-7cab-a194-b2c3afbaf8e8","","1858","","{""Q0"":1}","6","2","enjoyment_rating","","[0]"
"","","","","","html-keyboard-response","134","984193","0.0-108.0","7707F203186E4B6993828EA8615086B2","0199d602-b798-740e-b206-b092193b9909","0199d5ef-c7d4-7cab-a194-b2c3afbaf8e8","","null","<div style=""display: flex; justify-content: center; align-items: center;"">
                     <img src=""images/other/blank.png"" style=""width: 300px; height: 300px;"" />
                   </div>","null","0","0","blank","",""
"","","","","","html-keyboard-response","135","990198","0.0-109.0","7707F203186E4B6993828EA8615086B2","0199d602-b798-740e-b206-b092193b9909","0199d5ef-c7d4-7cab-a194-b2c3afbaf8e8","","null","<div style=""display: flex; justify-content: center; align-items: center;"">
                     <img src=""images/causal/causal_series_2/causal_series_2_a.png"" style=""width: 300px; height: 300px;"" />
                   </div>","null","2","1","A","",""
"","","","","","html-keyboard-response","136","996202","0.0-110.0","7707F203186E4B6993828EA8615086B2","0199d602-b798-740e-b206-b092193b9909","0199d5ef-c7d4-7cab-a194-b2c3afbaf8e8","","null","<div style=""display: flex; justify-content: center; align-items: center;"">
                     <img src=""images/causal/causal_series_2/causal_series_2_b.png"" style=""width: 300px; height: 300px;"" />
                   </div>","null","2","1","B","",""
"","","","","","html-keyboard-response","137","1002213","0.0-111.0","7707F203186E4B6993828EA8615086B2","0199d602-b798-740e-b206-b092193b9909","0199d5ef-c7d4-7cab-a194-b2c3afbaf8e8","","null","<div style=""display: flex; justify-content: center; align-items: center;"">
                     <img src=""images/causal/causal_series_2/causal_series_2_c.png"" style=""width: 300px; height: 300px;"" />
                   </div>","null","2","1","C","",""
"","","","","","html-button-response","138","1005174","0.0-112.0","7707F203186E4B6993828EA8615086B2","0199d602-b798-740e-b206-b092193b9909","0199d5ef-c7d4-7cab-a194-b2c3afbaf8e8","","2959","
        <div style=""display: flex; justify-content: center; align-items: center;"">
          <img src=""images/red_deck_2.png"" style=""width: 300px; height: 300px; margin-right: 10px;"" />
          <img src=""images/blue_deck_1.png"" style=""width: 300px; height: 300px;"" />
        </div>","1","2","1","choice","1",""
"","","","","","html-keyboard-response","139","1011181","0.0-113.0-1.0-0.0","7707F203186E4B6993828EA8615086B2","0199d602-b798-740e-b206-b092193b9909","0199d5ef-c7d4-7cab-a194-b2c3afbaf8e8","","null","<div style=""display: flex; justify-content: center; align-items: center;"">
                     <img src=""images/semantic/semantic_series_2/semantic_series_2_d.png"" style=""width: 300px; height: 300px;"" />
                   </div>","null","2","1","D","",""
"","","","","","html-keyboard-response","140","1017186","0.0-113.0-1.0-1.0","7707F203186E4B6993828EA8615086B2","0199d602-b798-740e-b206-b092193b9909","0199d5ef-c7d4-7cab-a194-b2c3afbaf8e8","","null","<div style=""display: flex; justify-content: center; align-items: center;"">
                     <img src=""images/semantic/semantic_series_2/semantic_series_2_e.png"" style=""width: 300px; height: 300px;"" />
                   </div>","null","2","1","E","",""
"","","","","","html-keyboard-response","141","1023190","0.0-113.0-1.0-2.0","7707F203186E4B6993828EA8615086B2","0199d602-b798-740e-b206-b092193b9909","0199d5ef-c7d4-7cab-a194-b2c3afbaf8e8","","null","<div style=""display: flex; justify-content: center; align-items: center;"">
                     <img src=""images/semantic/semantic_series_2/semantic_series_2_f.png"" style=""width: 300px; height: 300px;"" />
                   </div>","null","2","1","F","",""
"","","","","","survey-likert","142","1027015","0.0-114.0","7707F203186E4B6993828EA8615086B2","0199d602-b798-740e-b206-b092193b9909","0199d5ef-c7d4-7cab-a194-b2c3afbaf8e8","","3824","","{""Q0"":2}","2","1","surprise_rating","","[0]"
"","","","","","survey-likert","143","1029504","0.0-115.0","7707F203186E4B6993828EA8615086B2","0199d602-b798-740e-b206-b092193b9909","0199d5ef-c7d4-7cab-a194-b2c3afbaf8e8","","2488","","{""Q0"":1}","2","1","enjoyment_rating","","[0]"
"","","","","","html-keyboard-response","144","1035527","0.0-116.0","7707F203186E4B6993828EA8615086B2","0199d602-b798-740e-b206-b092193b9909","0199d5ef-c7d4-7cab-a194-b2c3afbaf8e8","","null","<div style=""display: flex; justify-content: center; align-items: center;"">
                     <img src=""images/other/blank.png"" style=""width: 300px; height: 300px;"" />
                   </div>","null","0","0","blank","",""
"","","","","","html-keyboard-response","145","1041536","0.0-117.0","7707F203186E4B6993828EA8615086B2","0199d602-b798-740e-b206-b092193b9909","0199d5ef-c7d4-7cab-a194-b2c3afbaf8e8","","null","<div style=""display: flex; justify-content: center; align-items: center;"">
                     <img src=""images/causal/causal_series_3/causal_series_3_a.png"" style=""width: 300px; height: 300px;"" />
                   </div>","null","3","2","A","",""
"","","","","","html-keyboard-response","146","1047548","0.0-118.0","7707F203186E4B6993828EA8615086B2","0199d602-b798-740e-b206-b092193b9909","0199d5ef-c7d4-7cab-a194-b2c3afbaf8e8","","null","<div style=""display: flex; justify-content: center; align-items: center;"">
                     <img src=""images/causal/causal_series_3/causal_series_3_b.png"" style=""width: 300px; height: 300px;"" />
                   </div>","null","3","2","B","",""
"","","","","","html-keyboard-response","147","1053570","0.0-119.0","7707F203186E4B6993828EA8615086B2","0199d602-b798-740e-b206-b092193b9909","0199d5ef-c7d4-7cab-a194-b2c3afbaf8e8","","null","<div style=""display: flex; justify-content: center; align-items: center;"">
                     <img src=""images/causal/causal_series_3/causal_series_3_c.png"" style=""width: 300px; height: 300px;"" />
                   </div>","null","3","2","C","",""
"","","","","","html-button-response","148","1056757","0.0-120.0","7707F203186E4B6993828EA8615086B2","0199d602-b798-740e-b206-b092193b9909","0199d5ef-c7d4-7cab-a194-b2c3afbaf8e8","","3187","
        <div style=""display: flex; justify-content: center; align-items: center;"">
          <img src=""images/red_deck_2.png"" style=""width: 300px; height: 300px; margin-right: 10px;"" />
          <img src=""images/blue_deck_1.png"" style=""width: 300px; height: 300px;"" />
        </div>","0","3","2","choice","0",""
"","","","","","html-keyboard-response","149","1062771","0.0-121.0-0.0-0.0","7707F203186E4B6993828EA8615086B2","0199d602-b798-740e-b206-b092193b9909","0199d5ef-c7d4-7cab-a194-b2c3afbaf8e8","","null","<div style=""display: flex; justify-content: center; align-items: center;"">
                     <img src=""images/causal/causal_series_3/causal_series_3_d.png"" style=""width: 300px; height: 300px;"" />
                   </div>","null","3","2","D","",""
"","","","","","html-keyboard-response","150","1068775","0.0-121.0-0.0-1.0","7707F203186E4B6993828EA8615086B2","0199d602-b798-740e-b206-b092193b9909","0199d5ef-c7d4-7cab-a194-b2c3afbaf8e8","","null","<div style=""display: flex; justify-content: center; align-items: center;"">
                     <img src=""images/causal/causal_series_3/causal_series_3_e.png"" style=""width: 300px; height: 300px;"" />
                   </div>","null","3","2","E","",""
"","","","","","html-keyboard-response","151","1074779","0.0-121.0-0.0-2.0","7707F203186E4B6993828EA8615086B2","0199d602-b798-740e-b206-b092193b9909","0199d5ef-c7d4-7cab-a194-b2c3afbaf8e8","","null","<div style=""display: flex; justify-content: center; align-items: center;"">
                     <img src=""images/causal/causal_series_3/causal_series_3_f.png"" style=""width: 300px; height: 300px;"" />
                   </div>","null","3","2","F","",""
"","","","","","survey-likert","152","1078084","0.0-122.0","7707F203186E4B6993828EA8615086B2","0199d602-b798-740e-b206-b092193b9909","0199d5ef-c7d4-7cab-a194-b2c3afbaf8e8","","3303","","{""Q0"":1}","3","2","surprise_rating","","[0]"
"","","","","","survey-likert","153","1080908","0.0-123.0","7707F203186E4B6993828EA8615086B2","0199d602-b798-740e-b206-b092193b9909","0199d5ef-c7d4-7cab-a194-b2c3afbaf8e8","","2822","","{""Q0"":0}","3","2","enjoyment_rating","","[0]"
"","","","","","html-keyboard-response","154","1086920","0.0-124.0","7707F203186E4B6993828EA8615086B2","0199d602-b798-740e-b206-b092193b9909","0199d5ef-c7d4-7cab-a194-b2c3afbaf8e8","","null","<div style=""display: flex; justify-content: center; align-items: center;"">
                     <img src=""images/other/blank.png"" style=""width: 300px; height: 300px;"" />
                   </div>","null","0","0","blank","",""
"","","","","","html-keyboard-response","155","1092924","0.0-125.0","7707F203186E4B6993828EA8615086B2","0199d602-b798-740e-b206-b092193b9909","0199d5ef-c7d4-7cab-a194-b2c3afbaf8e8","","null","<div style=""display: flex; justify-content: center; align-items: center;"">
                     <img src=""images/causal/causal_series_9/causal_series_9_a.png"" style=""width: 300px; height: 300px;"" />
                   </div>","null","9","2","A","",""
"","","","","","html-keyboard-response","156","1098929","0.0-126.0","7707F203186E4B6993828EA8615086B2","0199d602-b798-740e-b206-b092193b9909","0199d5ef-c7d4-7cab-a194-b2c3afbaf8e8","","null","<div style=""display: flex; justify-content: center; align-items: center;"">
                     <img src=""images/causal/causal_series_9/causal_series_9_b.png"" style=""width: 300px; height: 300px;"" />
                   </div>","null","9","2","B","",""
"","","","","","html-keyboard-response","157","1104933","0.0-127.0","7707F203186E4B6993828EA8615086B2","0199d602-b798-740e-b206-b092193b9909","0199d5ef-c7d4-7cab-a194-b2c3afbaf8e8","","null","<div style=""display: flex; justify-content: center; align-items: center;"">
                     <img src=""images/causal/causal_series_9/causal_series_9_c.png"" style=""width: 300px; height: 300px;"" />
                   </div>","null","9","2","C","",""
"","","","","","html-button-response","158","1108053","0.0-128.0","7707F203186E4B6993828EA8615086B2","0199d602-b798-740e-b206-b092193b9909","0199d5ef-c7d4-7cab-a194-b2c3afbaf8e8","","3120","
        <div style=""display: flex; justify-content: center; align-items: center;"">
          <img src=""images/red_deck_2.png"" style=""width: 300px; height: 300px; margin-right: 10px;"" />
          <img src=""images/blue_deck_1.png"" style=""width: 300px; height: 300px;"" />
        </div>","0","9","2","choice","0",""
"","","","","","html-keyboard-response","159","1114056","0.0-129.0-0.0-0.0","7707F203186E4B6993828EA8615086B2","0199d602-b798-740e-b206-b092193b9909","0199d5ef-c7d4-7cab-a194-b2c3afbaf8e8","","null","<div style=""display: flex; justify-content: center; align-items: center;"">
                     <img src=""images/causal/causal_series_9/causal_series_9_d.png"" style=""width: 300px; height: 300px;"" />
                   </div>","null","9","2","D","",""
"","","","","","html-keyboard-response","160","1120066","0.0-129.0-0.0-1.0","7707F203186E4B6993828EA8615086B2","0199d602-b798-740e-b206-b092193b9909","0199d5ef-c7d4-7cab-a194-b2c3afbaf8e8","","null","<div style=""display: flex; justify-content: center; align-items: center;"">
                     <img src=""images/causal/causal_series_9/causal_series_9_e.png"" style=""width: 300px; height: 300px;"" />
                   </div>","null","9","2","E","",""
"","","","","","html-keyboard-response","161","1126077","0.0-129.0-0.0-2.0","7707F203186E4B6993828EA8615086B2","0199d602-b798-740e-b206-b092193b9909","0199d5ef-c7d4-7cab-a194-b2c3afbaf8e8","","null","<div style=""display: flex; justify-content: center; align-items: center;"">
                     <img src=""images/causal/causal_series_9/causal_series_9_f.png"" style=""width: 300px; height: 300px;"" />
                   </div>","null","9","2","F","",""
"","","","","","survey-likert","162","1131161","0.0-130.0","7707F203186E4B6993828EA8615086B2","0199d602-b798-740e-b206-b092193b9909","0199d5ef-c7d4-7cab-a194-b2c3afbaf8e8","","5084","","{""Q0"":1}","9","2","surprise_rating","","[0]"
"","","","","","survey-likert","163","1133001","0.0-131.0","7707F203186E4B6993828EA8615086B2","0199d602-b798-740e-b206-b092193b9909","0199d5ef-c7d4-7cab-a194-b2c3afbaf8e8","","1839","","{""Q0"":0}","9","2","enjoyment_rating","","[0]"
"","","","","","html-keyboard-response","164","1139011","0.0-132.0","7707F203186E4B6993828EA8615086B2","0199d602-b798-740e-b206-b092193b9909","0199d5ef-c7d4-7cab-a194-b2c3afbaf8e8","","null","<div style=""display: flex; justify-content: center; align-items: center;"">
                     <img src=""images/other/blank.png"" style=""width: 300px; height: 300px;"" />
                   </div>","null","0","0","blank","",""
"","","","","","html-keyboard-response","165","1145015","0.0-133.0","7707F203186E4B6993828EA8615086B2","0199d602-b798-740e-b206-b092193b9909","0199d5ef-c7d4-7cab-a194-b2c3afbaf8e8","","null","<div style=""display: flex; justify-content: center; align-items: center;"">
                     <img src=""images/causal/causal_series_7/causal_series_7_a.png"" style=""width: 300px; height: 300px;"" />
                   </div>","null","7","1","A","",""
"","","","","","html-keyboard-response","166","1151020","0.0-134.0","7707F203186E4B6993828EA8615086B2","0199d602-b798-740e-b206-b092193b9909","0199d5ef-c7d4-7cab-a194-b2c3afbaf8e8","","null","<div style=""display: flex; justify-content: center; align-items: center;"">
                     <img src=""images/causal/causal_series_7/causal_series_7_b.png"" style=""width: 300px; height: 300px;"" />
                   </div>","null","7","1","B","",""
"","","","","","html-keyboard-response","167","1157023","0.0-135.0","7707F203186E4B6993828EA8615086B2","0199d602-b798-740e-b206-b092193b9909","0199d5ef-c7d4-7cab-a194-b2c3afbaf8e8","","null","<div style=""display: flex; justify-content: center; align-items: center;"">
                     <img src=""images/causal/causal_series_7/causal_series_7_c.png"" style=""width: 300px; height: 300px;"" />
                   </div>","null","7","1","C","",""
"","","","","","html-button-response","168","1159074","0.0-136.0","7707F203186E4B6993828EA8615086B2","0199d602-b798-740e-b206-b092193b9909","0199d5ef-c7d4-7cab-a194-b2c3afbaf8e8","","2050","
        <div style=""display: flex; justify-content: center; align-items: center;"">
          <img src=""images/red_deck_2.png"" style=""width: 300px; height: 300px; margin-right: 10px;"" />
          <img src=""images/blue_deck_1.png"" style=""width: 300px; height: 300px;"" />
        </div>","0","7","1","choice","0",""
"","","","","","html-keyboard-response","169","1165081","0.0-137.0-0.0-0.0","7707F203186E4B6993828EA8615086B2","0199d602-b798-740e-b206-b092193b9909","0199d5ef-c7d4-7cab-a194-b2c3afbaf8e8","","null","<div style=""display: flex; justify-content: center; align-items: center;"">
                     <img src=""images/causal/causal_series_7/causal_series_7_d.png"" style=""width: 300px; height: 300px;"" />
                   </div>","null","7","1","D","",""
"","","","","","html-keyboard-response","170","1171082","0.0-137.0-0.0-1.0","7707F203186E4B6993828EA8615086B2","0199d602-b798-740e-b206-b092193b9909","0199d5ef-c7d4-7cab-a194-b2c3afbaf8e8","","null","<div style=""display: flex; justify-content: center; align-items: center;"">
                     <img src=""images/causal/causal_series_7/causal_series_7_e.png"" style=""width: 300px; height: 300px;"" />
                   </div>","null","7","1","E","",""
"","","","","","html-keyboard-response","171","1177084","0.0-137.0-0.0-2.0","7707F203186E4B6993828EA8615086B2","0199d602-b798-740e-b206-b092193b9909","0199d5ef-c7d4-7cab-a194-b2c3afbaf8e8","","null","<div style=""display: flex; justify-content: center; align-items: center;"">
                     <img src=""images/causal/causal_series_7/causal_series_7_f.png"" style=""width: 300px; height: 300px;"" />
                   </div>","null","7","1","F","",""
"","","","","","survey-likert","172","1180724","0.0-138.0","7707F203186E4B6993828EA8615086B2","0199d602-b798-740e-b206-b092193b9909","0199d5ef-c7d4-7cab-a194-b2c3afbaf8e8","","3639","","{""Q0"":0}","7","1","surprise_rating","","[0]"
"","","","","","survey-likert","173","1182500","0.0-139.0","7707F203186E4B6993828EA8615086B2","0199d602-b798-740e-b206-b092193b9909","0199d5ef-c7d4-7cab-a194-b2c3afbaf8e8","","1775","","{""Q0"":1}","7","1","enjoyment_rating","","[0]"
"","","","","","html-keyboard-response","174","1188513","0.0-140.0","7707F203186E4B6993828EA8615086B2","0199d602-b798-740e-b206-b092193b9909","0199d5ef-c7d4-7cab-a194-b2c3afbaf8e8","","null","<div style=""display: flex; justify-content: center; align-items: center;"">
                     <img src=""images/other/blank.png"" style=""width: 300px; height: 300px;"" />
                   </div>","null","0","0","blank","",""
"","","","","","html-keyboard-response","175","1194513","0.0-141.0","7707F203186E4B6993828EA8615086B2","0199d602-b798-740e-b206-b092193b9909","0199d5ef-c7d4-7cab-a194-b2c3afbaf8e8","","null","<div style=""display: flex; justify-content: center; align-items: center;"">
                     <img src=""images/causal/causal_series_5/causal_series_5_a.png"" style=""width: 300px; height: 300px;"" />
                   </div>","null","5","2","A","",""
"","","","","","html-keyboard-response","176","1200516","0.0-142.0","7707F203186E4B6993828EA8615086B2","0199d602-b798-740e-b206-b092193b9909","0199d5ef-c7d4-7cab-a194-b2c3afbaf8e8","","null","<div style=""display: flex; justify-content: center; align-items: center;"">
                     <img src=""images/causal/causal_series_5/causal_series_5_b.png"" style=""width: 300px; height: 300px;"" />
                   </div>","null","5","2","B","",""
"","","","","","html-keyboard-response","177","1206524","0.0-143.0","7707F203186E4B6993828EA8615086B2","0199d602-b798-740e-b206-b092193b9909","0199d5ef-c7d4-7cab-a194-b2c3afbaf8e8","","null","<div style=""display: flex; justify-content: center; align-items: center;"">
                     <img src=""images/causal/causal_series_5/causal_series_5_c.png"" style=""width: 300px; height: 300px;"" />
                   </div>","null","5","2","C","",""
"","","","","","html-button-response","178","1209380","0.0-144.0","7707F203186E4B6993828EA8615086B2","0199d602-b798-740e-b206-b092193b9909","0199d5ef-c7d4-7cab-a194-b2c3afbaf8e8","","2855","
        <div style=""display: flex; justify-content: center; align-items: center;"">
          <img src=""images/red_deck_2.png"" style=""width: 300px; height: 300px; margin-right: 10px;"" />
          <img src=""images/blue_deck_1.png"" style=""width: 300px; height: 300px;"" />
        </div>","0","5","2","choice","0",""
"","","","","","html-keyboard-response","179","1215382","0.0-145.0-0.0-0.0","7707F203186E4B6993828EA8615086B2","0199d602-b798-740e-b206-b092193b9909","0199d5ef-c7d4-7cab-a194-b2c3afbaf8e8","","null","<div style=""display: flex; justify-content: center; align-items: center;"">
                     <img src=""images/causal/causal_series_5/causal_series_5_d.png"" style=""width: 300px; height: 300px;"" />
                   </div>","null","5","2","D","",""
"","","","","","html-keyboard-response","180","1221386","0.0-145.0-0.0-1.0","7707F203186E4B6993828EA8615086B2","0199d602-b798-740e-b206-b092193b9909","0199d5ef-c7d4-7cab-a194-b2c3afbaf8e8","","null","<div style=""display: flex; justify-content: center; align-items: center;"">
                     <img src=""images/causal/causal_series_5/causal_series_5_e.png"" style=""width: 300px; height: 300px;"" />
                   </div>","null","5","2","E","",""
"","","","","","html-keyboard-response","181","1227392","0.0-145.0-0.0-2.0","7707F203186E4B6993828EA8615086B2","0199d602-b798-740e-b206-b092193b9909","0199d5ef-c7d4-7cab-a194-b2c3afbaf8e8","","null","<div style=""display: flex; justify-content: center; align-items: center;"">
                     <img src=""images/causal/causal_series_5/causal_series_5_f.png"" style=""width: 300px; height: 300px;"" />
                   </div>","null","5","2","F","",""
"","","","","","survey-likert","182","1232901","0.0-146.0","7707F203186E4B6993828EA8615086B2","0199d602-b798-740e-b206-b092193b9909","0199d5ef-c7d4-7cab-a194-b2c3afbaf8e8","","5508","","{""Q0"":1}","5","2","surprise_rating","","[0]"
"","","","","","survey-likert","183","1233996","0.0-147.0","7707F203186E4B6993828EA8615086B2","0199d602-b798-740e-b206-b092193b9909","0199d5ef-c7d4-7cab-a194-b2c3afbaf8e8","","1094","","{""Q0"":1}","5","2","enjoyment_rating","","[0]"
"","","","","","html-keyboard-response","184","1239998","0.0-148.0","7707F203186E4B6993828EA8615086B2","0199d602-b798-740e-b206-b092193b9909","0199d5ef-c7d4-7cab-a194-b2c3afbaf8e8","","null","<div style=""display: flex; justify-content: center; align-items: center;"">
                     <img src=""images/other/blank.png"" style=""width: 300px; height: 300px;"" />
                   </div>","null","0","0","blank","",""
"","","","","","html-keyboard-response","185","1246002","0.0-149.0","7707F203186E4B6993828EA8615086B2","0199d602-b798-740e-b206-b092193b9909","0199d5ef-c7d4-7cab-a194-b2c3afbaf8e8","","null","<div style=""display: flex; justify-content: center; align-items: center;"">
                     <img src=""images/causal/causal_series_3/causal_series_3_a.png"" style=""width: 300px; height: 300px;"" />
                   </div>","null","3","1","A","",""
"","","","","","html-keyboard-response","186","1252006","0.0-150.0","7707F203186E4B6993828EA8615086B2","0199d602-b798-740e-b206-b092193b9909","0199d5ef-c7d4-7cab-a194-b2c3afbaf8e8","","null","<div style=""display: flex; justify-content: center; align-items: center;"">
                     <img src=""images/causal/causal_series_3/causal_series_3_b.png"" style=""width: 300px; height: 300px;"" />
                   </div>","null","3","1","B","",""
"","","","","","html-keyboard-response","187","1258011","0.0-151.0","7707F203186E4B6993828EA8615086B2","0199d602-b798-740e-b206-b092193b9909","0199d5ef-c7d4-7cab-a194-b2c3afbaf8e8","","null","<div style=""display: flex; justify-content: center; align-items: center;"">
                     <img src=""images/causal/causal_series_3/causal_series_3_c.png"" style=""width: 300px; height: 300px;"" />
                   </div>","null","3","1","C","",""
"","","","","","html-button-response","188","1260209","0.0-152.0","7707F203186E4B6993828EA8615086B2","0199d602-b798-740e-b206-b092193b9909","0199d5ef-c7d4-7cab-a194-b2c3afbaf8e8","","2197","
        <div style=""display: flex; justify-content: center; align-items: center;"">
          <img src=""images/red_deck_2.png"" style=""width: 300px; height: 300px; margin-right: 10px;"" />
          <img src=""images/blue_deck_1.png"" style=""width: 300px; height: 300px;"" />
        </div>","1","3","1","choice","1",""
"","","","","","html-keyboard-response","189","1266213","0.0-153.0-1.0-0.0","7707F203186E4B6993828EA8615086B2","0199d602-b798-740e-b206-b092193b9909","0199d5ef-c7d4-7cab-a194-b2c3afbaf8e8","","null","<div style=""display: flex; justify-content: center; align-items: center;"">
                     <img src=""images/semantic/semantic_series_3/semantic_series_3_d.png"" style=""width: 300px; height: 300px;"" />
                   </div>","null","3","1","D","",""
"","","","","","html-keyboard-response","190","1272225","0.0-153.0-1.0-1.0","7707F203186E4B6993828EA8615086B2","0199d602-b798-740e-b206-b092193b9909","0199d5ef-c7d4-7cab-a194-b2c3afbaf8e8","","null","<div style=""display: flex; justify-content: center; align-items: center;"">
                     <img src=""images/semantic/semantic_series_3/semantic_series_3_e.png"" style=""width: 300px; height: 300px;"" />
                   </div>","null","3","1","E","",""
"","","","","","html-keyboard-response","191","1278229","0.0-153.0-1.0-2.0","7707F203186E4B6993828EA8615086B2","0199d602-b798-740e-b206-b092193b9909","0199d5ef-c7d4-7cab-a194-b2c3afbaf8e8","","null","<div style=""display: flex; justify-content: center; align-items: center;"">
                     <img src=""images/semantic/semantic_series_3/semantic_series_3_f.png"" style=""width: 300px; height: 300px;"" />
                   </div>","null","3","1","F","",""
"","","","","","survey-likert","192","1287145","0.0-154.0","7707F203186E4B6993828EA8615086B2","0199d602-b798-740e-b206-b092193b9909","0199d5ef-c7d4-7cab-a194-b2c3afbaf8e8","","8915","","{""Q0"":2}","3","1","surprise_rating","","[0]"
"","","","","","survey-likert","193","1289791","0.0-155.0","7707F203186E4B6993828EA8615086B2","0199d602-b798-740e-b206-b092193b9909","0199d5ef-c7d4-7cab-a194-b2c3afbaf8e8","","2645","","{""Q0"":3}","3","1","enjoyment_rating","","[0]"
"","","","","","html-keyboard-response","194","1295797","0.0-156.0","7707F203186E4B6993828EA8615086B2","0199d602-b798-740e-b206-b092193b9909","0199d5ef-c7d4-7cab-a194-b2c3afbaf8e8","","null","<div style=""display: flex; justify-content: center; align-items: center;"">
                     <img src=""images/other/blank.png"" style=""width: 300px; height: 300px;"" />
                   </div>","null","0","0","blank","",""
"","","","","","html-keyboard-response","195","1301801","0.0-157.0","7707F203186E4B6993828EA8615086B2","0199d602-b798-740e-b206-b092193b9909","0199d5ef-c7d4-7cab-a194-b2c3afbaf8e8","","null","<div style=""display: flex; justify-content: center; align-items: center;"">
                     <img src=""images/causal/causal_series_1/causal_series_1_a.png"" style=""width: 300px; height: 300px;"" />
                   </div>","null","1","2","A","",""
"","","","","","html-keyboard-response","196","1307811","0.0-158.0","7707F203186E4B6993828EA8615086B2","0199d602-b798-740e-b206-b092193b9909","0199d5ef-c7d4-7cab-a194-b2c3afbaf8e8","","null","<div style=""display: flex; justify-content: center; align-items: center;"">
                     <img src=""images/causal/causal_series_1/causal_series_1_b.png"" style=""width: 300px; height: 300px;"" />
                   </div>","null","1","2","B","",""
"","","","","","html-keyboard-response","197","1313813","0.0-159.0","7707F203186E4B6993828EA8615086B2","0199d602-b798-740e-b206-b092193b9909","0199d5ef-c7d4-7cab-a194-b2c3afbaf8e8","","null","<div style=""display: flex; justify-content: center; align-items: center;"">
                     <img src=""images/causal/causal_series_1/causal_series_1_c.png"" style=""width: 300px; height: 300px;"" />
                   </div>","null","1","2","C","",""
"","","","","","html-button-response","198","1315340","0.0-160.0","7707F203186E4B6993828EA8615086B2","0199d602-b798-740e-b206-b092193b9909","0199d5ef-c7d4-7cab-a194-b2c3afbaf8e8","","1526","
        <div style=""display: flex; justify-content: center; align-items: center;"">
          <img src=""images/red_deck_2.png"" style=""width: 300px; height: 300px; margin-right: 10px;"" />
          <img src=""images/blue_deck_1.png"" style=""width: 300px; height: 300px;"" />
        </div>","0","1","2","choice","0",""
"","","","","","html-keyboard-response","199","1321344","0.0-161.0-0.0-0.0","7707F203186E4B6993828EA8615086B2","0199d602-b798-740e-b206-b092193b9909","0199d5ef-c7d4-7cab-a194-b2c3afbaf8e8","","null","<div style=""display: flex; justify-content: center; align-items: center;"">
                     <img src=""images/causal/causal_series_1/causal_series_1_d.png"" style=""width: 300px; height: 300px;"" />
                   </div>","null","1","2","D","",""
"","","","","","html-keyboard-response","200","1327349","0.0-161.0-0.0-1.0","7707F203186E4B6993828EA8615086B2","0199d602-b798-740e-b206-b092193b9909","0199d5ef-c7d4-7cab-a194-b2c3afbaf8e8","","null","<div style=""display: flex; justify-content: center; align-items: center;"">
                     <img src=""images/causal/causal_series_1/causal_series_1_e.png"" style=""width: 300px; height: 300px;"" />
                   </div>","null","1","2","E","",""
"","","","","","html-keyboard-response","201","1333353","0.0-161.0-0.0-2.0","7707F203186E4B6993828EA8615086B2","0199d602-b798-740e-b206-b092193b9909","0199d5ef-c7d4-7cab-a194-b2c3afbaf8e8","","null","<div style=""display: flex; justify-content: center; align-items: center;"">
                     <img src=""images/causal/causal_series_1/causal_series_1_f.png"" style=""width: 300px; height: 300px;"" />
                   </div>","null","1","2","F","",""
"","","","","","survey-likert","202","1336529","0.0-162.0","7707F203186E4B6993828EA8615086B2","0199d602-b798-740e-b206-b092193b9909","0199d5ef-c7d4-7cab-a194-b2c3afbaf8e8","","3175","","{""Q0"":1}","1","2","surprise_rating","","[0]"
"","","","","","survey-likert","203","1341284","0.0-163.0","7707F203186E4B6993828EA8615086B2","0199d602-b798-740e-b206-b092193b9909","0199d5ef-c7d4-7cab-a194-b2c3afbaf8e8","","4754","","{""Q0"":2}","1","2","enjoyment_rating","","[0]"
"","","","","","html-keyboard-response","204","1347288","0.0-164.0","7707F203186E4B6993828EA8615086B2","0199d602-b798-740e-b206-b092193b9909","0199d5ef-c7d4-7cab-a194-b2c3afbaf8e8","","null","<div style=""display: flex; justify-content: center; align-items: center;"">
                     <img src=""images/other/blank.png"" style=""width: 300px; height: 300px;"" />
                   </div>","null","0","0","blank","",""
"","","","","","survey-text","205","1370600","0.0-165.0","7707F203186E4B6993828EA8615086B2","0199d602-b798-740e-b206-b092193b9909","0199d5ef-c7d4-7cab-a194-b2c3afbaf8e8","","23309","","{""Q0"":""One is more random then the other""}","","","","",""
"","","","","","html-button-response","206","1374845","0.0-166.0","7707F203186E4B6993828EA8615086B2","0199d602-b798-740e-b206-b092193b9909","0199d5ef-c7d4-7cab-a194-b2c3afbaf8e8","","4245","Which color deck do the following sentences continue the story from?","0","","","","",""
"","","","","","html-button-response","207","1376337","0.0-167.0","7707F203186E4B6993828EA8615086B2","0199d602-b798-740e-b206-b092193b9909","0199d5ef-c7d4-7cab-a194-b2c3afbaf8e8","","1491","Which color deck do the following sentences NOT follow the story from?","1","","","","",""
"","","","","","html-button-response","208","1380162","0.0-168.0","7707F203186E4B6993828EA8615086B2","0199d602-b798-740e-b206-b092193b9909","0199d5ef-c7d4-7cab-a194-b2c3afbaf8e8","","3825","Which type of deck did you prefer overall?","0","","","","",""
"","","","","","survey-text","209","1385845","0.0-169.0","7707F203186E4B6993828EA8615086B2","0199d602-b798-740e-b206-b092193b9909","0199d5ef-c7d4-7cab-a194-b2c3afbaf8e8","","5680","","{""Q0"":""MALE"",""Q1"":""26""}","","","","",""
"","","","","","instructions","210","1388199","0.0-170.0","7707F203186E4B6993828EA8615086B2","0199d602-b798-740e-b206-b092193b9909","0199d5ef-c7d4-7cab-a194-b2c3afbaf8e8","[{""page_index"":0,""viewing_time"":2353}]","2353","","","","","","",""
