"success","timeout","failed_images","failed_audio","failed_video","trial_type","trial_index","time_elapsed","internal_node_id","subject_id","study_id","session_id","view_history","rt","stimulus","response","choice","question_order"
"true","false","[]","[]","[]","preload","0","20074","0.0-0.0","CFE8659747BF4A9DB56F4A96ED0C7216","0199d04b-1173-7edb-9a88-9f8d8ca8218d","0199d03a-64b5-7588-a054-13255d1a32c0","","","","","",""
"","","","","","instructions","1","49411","0.0-1.0","CFE8659747BF4A9DB56F4A96ED0C7216","0199d04b-1173-7edb-9a88-9f8d8ca8218d","0199d03a-64b5-7588-a054-13255d1a32c0","[{""page_index"":0,""viewing_time"":29333}]","29334","","","",""
"","","","","","instructions","2","52279","0.0-2.0","CFE8659747BF4A9DB56F4A96ED0C7216","0199d04b-1173-7edb-9a88-9f8d8ca8218d","0199d03a-64b5-7588-a054-13255d1a32c0","[{""page_index"":0,""viewing_time"":2867}]","2868","","","",""
"true","","","","","fullscreen","3","54668","0.0-3.0","CFE8659747BF4A9DB56F4A96ED0C7216","0199d04b-1173-7edb-9a88-9f8d8ca8218d","0199d03a-64b5-7588-a054-13255d1a32c0","","1380","","","",""
"","","","","","instructions","4","104213","0.0-4.0","CFE8659747BF4A9DB56F4A96ED0C7216","0199d04b-1173-7edb-9a88-9f8d8ca8218d","0199d03a-64b5-7588-a054-13255d1a32c0","[{""page_index"":0,""viewing_time"":49533}]","49543","","","",""
"","","","","","html-keyboard-response","5","111222","0.0-5.0","CFE8659747BF4A9DB56F4A96ED0C7216","0199d04b-1173-7edb-9a88-9f8d8ca8218d","0199d03a-64b5-7588-a054-13255d1a32c0","","null","<div style=""display: flex; justify-content: center; align-items: center;"">
                     <img src=""images/causal/causal_series_6/causal_series_6_a.png"" style=""width: 300px; height: 300px;"" />
                   </div>","null","",""
"","","","","","html-keyboard-response","6","118225","0.0-6.0","CFE8659747BF4A9DB56F4A96ED0C7216","0199d04b-1173-7edb-9a88-9f8d8ca8218d","0199d03a-64b5-7588-a054-13255d1a32c0","","null","<div style=""display: flex; justify-content: center; align-items: center;"">
                     <img src=""images/causal/causal_series_6/causal_series_6_b.png"" style=""width: 300px; height: 300px;"" />
                   </div>","null","",""
"","","","","","html-keyboard-response","7","125228","0.0-7.0","CFE8659747BF4A9DB56F4A96ED0C7216","0199d04b-1173-7edb-9a88-9f8d8ca8218d","0199d03a-64b5-7588-a054-13255d1a32c0","","null","<div style=""display: flex; justify-content: center; align-items: center;"">
                     <img src=""images/causal/causal_series_6/causal_series_6_c.png"" style=""width: 300px; height: 300px;"" />
                   </div>","null","",""
"","","","","","html-button-response","8","128802","0.0-8.0","CFE8659747BF4A9DB56F4A96ED0C7216","0199d04b-1173-7edb-9a88-9f8d8ca8218d","0199d03a-64b5-7588-a054-13255d1a32c0","","3572","
        <div style=""display: flex; justify-content: center; align-items: center;"">
          <img src=""images/red_deck_2.png"" style=""width: 300px; height: 300px; margin-right: 10px;"" />
          <img src=""images/blue_deck_1.png"" style=""width: 300px; height: 300px;"" />
        </div>","1","1",""
"","","","","","html-keyboard-response","9","135805","0.0-9.0-1.0-0.0","CFE8659747BF4A9DB56F4A96ED0C7216","0199d04b-1173-7edb-9a88-9f8d8ca8218d","0199d03a-64b5-7588-a054-13255d1a32c0","","null","<div style=""display: flex; justify-content: center; align-items: center;"">
                     <img src=""images/semantic/semantic_series_6/semantic_series_6_d.png"" style=""width: 300px; height: 300px;"" />
                   </div>","null","",""
"","","","","","survey-likert","10","139937","0.0-10.0","CFE8659747BF4A9DB56F4A96ED0C7216","0199d04b-1173-7edb-9a88-9f8d8ca8218d","0199d03a-64b5-7588-a054-13255d1a32c0","","4117","","{""Q0"":3}","","[0]"
"","","","","","survey-likert","11","144703","0.0-11.0","CFE8659747BF4A9DB56F4A96ED0C7216","0199d04b-1173-7edb-9a88-9f8d8ca8218d","0199d03a-64b5-7588-a054-13255d1a32c0","","4764","","{""Q0"":2}","","[0]"
"","","","","","html-keyboard-response","12","151706","0.0-12.0","CFE8659747BF4A9DB56F4A96ED0C7216","0199d04b-1173-7edb-9a88-9f8d8ca8218d","0199d03a-64b5-7588-a054-13255d1a32c0","","null","<div style=""display: flex; justify-content: center; align-items: center;"">
                     <img src=""images/other/blank.png"" style=""width: 300px; height: 300px;"" />
                   </div>","null","",""
"","","","","","html-keyboard-response","13","158709","0.0-13.0","CFE8659747BF4A9DB56F4A96ED0C7216","0199d04b-1173-7edb-9a88-9f8d8ca8218d","0199d03a-64b5-7588-a054-13255d1a32c0","","null","<div style=""display: flex; justify-content: center; align-items: center;"">
                     <img src=""images/causal/causal_series_4/causal_series_4_a.png"" style=""width: 300px; height: 300px;"" />
                   </div>","null","",""
"","","","","","html-keyboard-response","14","165710","0.0-14.0","CFE8659747BF4A9DB56F4A96ED0C7216","0199d04b-1173-7edb-9a88-9f8d8ca8218d","0199d03a-64b5-7588-a054-13255d1a32c0","","null","<div style=""display: flex; justify-content: center; align-items: center;"">
                     <img src=""images/causal/causal_series_4/causal_series_4_b.png"" style=""width: 300px; height: 300px;"" />
                   </div>","null","",""
"","","","","","html-keyboard-response","15","172713","0.0-15.0","CFE8659747BF4A9DB56F4A96ED0C7216","0199d04b-1173-7edb-9a88-9f8d8ca8218d","0199d03a-64b5-7588-a054-13255d1a32c0","","null","<div style=""display: flex; justify-content: center; align-items: center;"">
                     <img src=""images/causal/causal_series_4/causal_series_4_c.png"" style=""width: 300px; height: 300px;"" />
                   </div>","null","",""
"","","","","","html-button-response","16","173909","0.0-16.0","CFE8659747BF4A9DB56F4A96ED0C7216","0199d04b-1173-7edb-9a88-9f8d8ca8218d","0199d03a-64b5-7588-a054-13255d1a32c0","","1195","
        <div style=""display: flex; justify-content: center; align-items: center;"">
          <img src=""images/red_deck_2.png"" style=""width: 300px; height: 300px; margin-right: 10px;"" />
          <img src=""images/blue_deck_1.png"" style=""width: 300px; height: 300px;"" />
        </div>","0","0",""
"","","","","","html-keyboard-response","17","180912","0.0-17.0-0.0-0.0","CFE8659747BF4A9DB56F4A96ED0C7216","0199d04b-1173-7edb-9a88-9f8d8ca8218d","0199d03a-64b5-7588-a054-13255d1a32c0","","null","<div style=""display: flex; justify-content: center; align-items: center;"">
                     <img src=""images/causal/causal_series_4/causal_series_4_d.png"" style=""width: 300px; height: 300px;"" />
                   </div>","null","",""
"","","","","","survey-likert","18","183741","0.0-18.0","CFE8659747BF4A9DB56F4A96ED0C7216","0199d04b-1173-7edb-9a88-9f8d8ca8218d","0199d03a-64b5-7588-a054-13255d1a32c0","","2828","","{""Q0"":1}","","[0]"
"","","","","","survey-likert","19","186391","0.0-19.0","CFE8659747BF4A9DB56F4A96ED0C7216","0199d04b-1173-7edb-9a88-9f8d8ca8218d","0199d03a-64b5-7588-a054-13255d1a32c0","","2649","","{""Q0"":2}","","[0]"
"","","","","","html-keyboard-response","20","193394","0.0-20.0","CFE8659747BF4A9DB56F4A96ED0C7216","0199d04b-1173-7edb-9a88-9f8d8ca8218d","0199d03a-64b5-7588-a054-13255d1a32c0","","null","<div style=""display: flex; justify-content: center; align-items: center;"">
                     <img src=""images/other/blank.png"" style=""width: 300px; height: 300px;"" />
                   </div>","null","",""
"","","","","","html-keyboard-response","21","200396","0.0-21.0","CFE8659747BF4A9DB56F4A96ED0C7216","0199d04b-1173-7edb-9a88-9f8d8ca8218d","0199d03a-64b5-7588-a054-13255d1a32c0","","null","<div style=""display: flex; justify-content: center; align-items: center;"">
                     <img src=""images/causal/causal_series_7/causal_series_7_a.png"" style=""width: 300px; height: 300px;"" />
                   </div>","null","",""
"","","","","","html-keyboard-response","22","207399","0.0-22.0","CFE8659747BF4A9DB56F4A96ED0C7216","0199d04b-1173-7edb-9a88-9f8d8ca8218d","0199d03a-64b5-7588-a054-13255d1a32c0","","null","<div style=""display: flex; justify-content: center; align-items: center;"">
                     <img src=""images/causal/causal_series_7/causal_series_7_b.png"" style=""width: 300px; height: 300px;"" />
                   </div>","null","",""
"","","","","","html-keyboard-response","23","214401","0.0-23.0","CFE8659747BF4A9DB56F4A96ED0C7216","0199d04b-1173-7edb-9a88-9f8d8ca8218d","0199d03a-64b5-7588-a054-13255d1a32c0","","null","<div style=""display: flex; justify-content: center; align-items: center;"">
                     <img src=""images/causal/causal_series_7/causal_series_7_c.png"" style=""width: 300px; height: 300px;"" />
                   </div>","null","",""
"","","","","","html-button-response","24","215662","0.0-24.0","CFE8659747BF4A9DB56F4A96ED0C7216","0199d04b-1173-7edb-9a88-9f8d8ca8218d","0199d03a-64b5-7588-a054-13255d1a32c0","","1260","
        <div style=""display: flex; justify-content: center; align-items: center;"">
          <img src=""images/red_deck_2.png"" style=""width: 300px; height: 300px; margin-right: 10px;"" />
          <img src=""images/blue_deck_1.png"" style=""width: 300px; height: 300px;"" />
        </div>","1","1",""
"","","","","","html-keyboard-response","25","222666","0.0-25.0-1.0-0.0","CFE8659747BF4A9DB56F4A96ED0C7216","0199d04b-1173-7edb-9a88-9f8d8ca8218d","0199d03a-64b5-7588-a054-13255d1a32c0","","null","<div style=""display: flex; justify-content: center; align-items: center;"">
                     <img src=""images/semantic/semantic_series_7/semantic_series_7_d.png"" style=""width: 300px; height: 300px;"" />
                   </div>","null","",""
"","","","","","survey-likert","26","224882","0.0-26.0","CFE8659747BF4A9DB56F4A96ED0C7216","0199d04b-1173-7edb-9a88-9f8d8ca8218d","0199d03a-64b5-7588-a054-13255d1a32c0","","2215","","{""Q0"":2}","","[0]"
"","","","","","survey-likert","27","228462","0.0-27.0","CFE8659747BF4A9DB56F4A96ED0C7216","0199d04b-1173-7edb-9a88-9f8d8ca8218d","0199d03a-64b5-7588-a054-13255d1a32c0","","3578","","{""Q0"":2}","","[0]"
"","","","","","html-keyboard-response","28","235463","0.0-28.0","CFE8659747BF4A9DB56F4A96ED0C7216","0199d04b-1173-7edb-9a88-9f8d8ca8218d","0199d03a-64b5-7588-a054-13255d1a32c0","","null","<div style=""display: flex; justify-content: center; align-items: center;"">
                     <img src=""images/other/blank.png"" style=""width: 300px; height: 300px;"" />
                   </div>","null","",""
"","","","","","html-keyboard-response","29","242466","0.0-29.0","CFE8659747BF4A9DB56F4A96ED0C7216","0199d04b-1173-7edb-9a88-9f8d8ca8218d","0199d03a-64b5-7588-a054-13255d1a32c0","","null","<div style=""display: flex; justify-content: center; align-items: center;"">
                     <img src=""images/causal/causal_series_3/causal_series_3_a.png"" style=""width: 300px; height: 300px;"" />
                   </div>","null","",""
"","","","","","html-keyboard-response","30","249468","0.0-30.0","CFE8659747BF4A9DB56F4A96ED0C7216","0199d04b-1173-7edb-9a88-9f8d8ca8218d","0199d03a-64b5-7588-a054-13255d1a32c0","","null","<div style=""display: flex; justify-content: center; align-items: center;"">
                     <img src=""images/causal/causal_series_3/causal_series_3_b.png"" style=""width: 300px; height: 300px;"" />
                   </div>","null","",""
"","","","","","html-keyboard-response","31","256470","0.0-31.0","CFE8659747BF4A9DB56F4A96ED0C7216","0199d04b-1173-7edb-9a88-9f8d8ca8218d","0199d03a-64b5-7588-a054-13255d1a32c0","","null","<div style=""display: flex; justify-content: center; align-items: center;"">
                     <img src=""images/causal/causal_series_3/causal_series_3_c.png"" style=""width: 300px; height: 300px;"" />
                   </div>","null","",""
"","","","","","html-button-response","32","257631","0.0-32.0","CFE8659747BF4A9DB56F4A96ED0C7216","0199d04b-1173-7edb-9a88-9f8d8ca8218d","0199d03a-64b5-7588-a054-13255d1a32c0","","1159","
        <div style=""display: flex; justify-content: center; align-items: center;"">
          <img src=""images/red_deck_2.png"" style=""width: 300px; height: 300px; margin-right: 10px;"" />
          <img src=""images/blue_deck_1.png"" style=""width: 300px; height: 300px;"" />
        </div>","1","1",""
"","","","","","html-keyboard-response","33","264634","0.0-33.0-1.0-0.0","CFE8659747BF4A9DB56F4A96ED0C7216","0199d04b-1173-7edb-9a88-9f8d8ca8218d","0199d03a-64b5-7588-a054-13255d1a32c0","","null","<div style=""display: flex; justify-content: center; align-items: center;"">
                     <img src=""images/semantic/semantic_series_3/semantic_series_3_d.png"" style=""width: 300px; height: 300px;"" />
                   </div>","null","",""
"","","","","","survey-likert","34","266686","0.0-34.0","CFE8659747BF4A9DB56F4A96ED0C7216","0199d04b-1173-7edb-9a88-9f8d8ca8218d","0199d03a-64b5-7588-a054-13255d1a32c0","","2051","","{""Q0"":1}","","[0]"
"","","","","","survey-likert","35","270739","0.0-35.0","CFE8659747BF4A9DB56F4A96ED0C7216","0199d04b-1173-7edb-9a88-9f8d8ca8218d","0199d03a-64b5-7588-a054-13255d1a32c0","","4052","","{""Q0"":1}","","[0]"
"","","","","","html-keyboard-response","36","277742","0.0-36.0","CFE8659747BF4A9DB56F4A96ED0C7216","0199d04b-1173-7edb-9a88-9f8d8ca8218d","0199d03a-64b5-7588-a054-13255d1a32c0","","null","<div style=""display: flex; justify-content: center; align-items: center;"">
                     <img src=""images/other/blank.png"" style=""width: 300px; height: 300px;"" />
                   </div>","null","",""
"","","","","","html-keyboard-response","37","284745","0.0-37.0","CFE8659747BF4A9DB56F4A96ED0C7216","0199d04b-1173-7edb-9a88-9f8d8ca8218d","0199d03a-64b5-7588-a054-13255d1a32c0","","null","<div style=""display: flex; justify-content: center; align-items: center;"">
                     <img src=""images/causal/causal_series_8/causal_series_8_a.png"" style=""width: 300px; height: 300px;"" />
                   </div>","null","",""
"","","","","","html-keyboard-response","38","291747","0.0-38.0","CFE8659747BF4A9DB56F4A96ED0C7216","0199d04b-1173-7edb-9a88-9f8d8ca8218d","0199d03a-64b5-7588-a054-13255d1a32c0","","null","<div style=""display: flex; justify-content: center; align-items: center;"">
                     <img src=""images/causal/causal_series_8/causal_series_8_b.png"" style=""width: 300px; height: 300px;"" />
                   </div>","null","",""
"","","","","","html-keyboard-response","39","298749","0.0-39.0","CFE8659747BF4A9DB56F4A96ED0C7216","0199d04b-1173-7edb-9a88-9f8d8ca8218d","0199d03a-64b5-7588-a054-13255d1a32c0","","null","<div style=""display: flex; justify-content: center; align-items: center;"">
                     <img src=""images/causal/causal_series_8/causal_series_8_c.png"" style=""width: 300px; height: 300px;"" />
                   </div>","null","",""
"","","","","","html-button-response","40","300552","0.0-40.0","CFE8659747BF4A9DB56F4A96ED0C7216","0199d04b-1173-7edb-9a88-9f8d8ca8218d","0199d03a-64b5-7588-a054-13255d1a32c0","","1801","
        <div style=""display: flex; justify-content: center; align-items: center;"">
          <img src=""images/red_deck_2.png"" style=""width: 300px; height: 300px; margin-right: 10px;"" />
          <img src=""images/blue_deck_1.png"" style=""width: 300px; height: 300px;"" />
        </div>","0","0",""
"","","","","","html-keyboard-response","41","307554","0.0-41.0-0.0-0.0","CFE8659747BF4A9DB56F4A96ED0C7216","0199d04b-1173-7edb-9a88-9f8d8ca8218d","0199d03a-64b5-7588-a054-13255d1a32c0","","null","<div style=""display: flex; justify-content: center; align-items: center;"">
                     <img src=""images/causal/causal_series_8/causal_series_8_d.png"" style=""width: 300px; height: 300px;"" />
                   </div>","null","",""
"","","","","","survey-likert","42","310070","0.0-42.0","CFE8659747BF4A9DB56F4A96ED0C7216","0199d04b-1173-7edb-9a88-9f8d8ca8218d","0199d03a-64b5-7588-a054-13255d1a32c0","","2515","","{""Q0"":4}","","[0]"
"","","","","","survey-likert","43","312220","0.0-43.0","CFE8659747BF4A9DB56F4A96ED0C7216","0199d04b-1173-7edb-9a88-9f8d8ca8218d","0199d03a-64b5-7588-a054-13255d1a32c0","","2149","","{""Q0"":1}","","[0]"
"","","","","","html-keyboard-response","44","319222","0.0-44.0","CFE8659747BF4A9DB56F4A96ED0C7216","0199d04b-1173-7edb-9a88-9f8d8ca8218d","0199d03a-64b5-7588-a054-13255d1a32c0","","null","<div style=""display: flex; justify-content: center; align-items: center;"">
                     <img src=""images/other/blank.png"" style=""width: 300px; height: 300px;"" />
                   </div>","null","",""
"","","","","","html-keyboard-response","45","326224","0.0-45.0","CFE8659747BF4A9DB56F4A96ED0C7216","0199d04b-1173-7edb-9a88-9f8d8ca8218d","0199d03a-64b5-7588-a054-13255d1a32c0","","null","<div style=""display: flex; justify-content: center; align-items: center;"">
                     <img src=""images/causal/causal_series_10/causal_series_10_a.png"" style=""width: 300px; height: 300px;"" />
                   </div>","null","",""
"","","","","","html-keyboard-response","46","333226","0.0-46.0","CFE8659747BF4A9DB56F4A96ED0C7216","0199d04b-1173-7edb-9a88-9f8d8ca8218d","0199d03a-64b5-7588-a054-13255d1a32c0","","null","<div style=""display: flex; justify-content: center; align-items: center;"">
                     <img src=""images/causal/causal_series_10/causal_series_10_b.png"" style=""width: 300px; height: 300px;"" />
                   </div>","null","",""
"","","","","","html-keyboard-response","47","340229","0.0-47.0","CFE8659747BF4A9DB56F4A96ED0C7216","0199d04b-1173-7edb-9a88-9f8d8ca8218d","0199d03a-64b5-7588-a054-13255d1a32c0","","null","<div style=""display: flex; justify-content: center; align-items: center;"">
                     <img src=""images/causal/causal_series_10/causal_series_10_c.png"" style=""width: 300px; height: 300px;"" />
                   </div>","null","",""
"","","","","","html-button-response","48","341275","0.0-48.0","CFE8659747BF4A9DB56F4A96ED0C7216","0199d04b-1173-7edb-9a88-9f8d8ca8218d","0199d03a-64b5-7588-a054-13255d1a32c0","","1045","
        <div style=""display: flex; justify-content: center; align-items: center;"">
          <img src=""images/red_deck_2.png"" style=""width: 300px; height: 300px; margin-right: 10px;"" />
          <img src=""images/blue_deck_1.png"" style=""width: 300px; height: 300px;"" />
        </div>","1","1",""
"","","","","","html-keyboard-response","49","348277","0.0-49.0-1.0-0.0","CFE8659747BF4A9DB56F4A96ED0C7216","0199d04b-1173-7edb-9a88-9f8d8ca8218d","0199d03a-64b5-7588-a054-13255d1a32c0","","null","<div style=""display: flex; justify-content: center; align-items: center;"">
                     <img src=""images/semantic/semantic_series_10/semantic_series_10_d.png"" style=""width: 300px; height: 300px;"" />
                   </div>","null","",""
"","","","","","survey-likert","50","350458","0.0-50.0","CFE8659747BF4A9DB56F4A96ED0C7216","0199d04b-1173-7edb-9a88-9f8d8ca8218d","0199d03a-64b5-7588-a054-13255d1a32c0","","2180","","{""Q0"":3}","","[0]"
"","","","","","survey-likert","51","353458","0.0-51.0","CFE8659747BF4A9DB56F4A96ED0C7216","0199d04b-1173-7edb-9a88-9f8d8ca8218d","0199d03a-64b5-7588-a054-13255d1a32c0","","2999","","{""Q0"":2}","","[0]"
"","","","","","html-keyboard-response","52","360460","0.0-52.0","CFE8659747BF4A9DB56F4A96ED0C7216","0199d04b-1173-7edb-9a88-9f8d8ca8218d","0199d03a-64b5-7588-a054-13255d1a32c0","","null","<div style=""display: flex; justify-content: center; align-items: center;"">
                     <img src=""images/other/blank.png"" style=""width: 300px; height: 300px;"" />
                   </div>","null","",""
"","","","","","html-keyboard-response","53","367462","0.0-53.0","CFE8659747BF4A9DB56F4A96ED0C7216","0199d04b-1173-7edb-9a88-9f8d8ca8218d","0199d03a-64b5-7588-a054-13255d1a32c0","","null","<div style=""display: flex; justify-content: center; align-items: center;"">
                     <img src=""images/causal/causal_series_1/causal_series_1_a.png"" style=""width: 300px; height: 300px;"" />
                   </div>","null","",""
"","","","","","html-keyboard-response","54","374463","0.0-54.0","CFE8659747BF4A9DB56F4A96ED0C7216","0199d04b-1173-7edb-9a88-9f8d8ca8218d","0199d03a-64b5-7588-a054-13255d1a32c0","","null","<div style=""display: flex; justify-content: center; align-items: center;"">
                     <img src=""images/causal/causal_series_1/causal_series_1_b.png"" style=""width: 300px; height: 300px;"" />
                   </div>","null","",""
"","","","","","html-keyboard-response","55","381469","0.0-55.0","CFE8659747BF4A9DB56F4A96ED0C7216","0199d04b-1173-7edb-9a88-9f8d8ca8218d","0199d03a-64b5-7588-a054-13255d1a32c0","","null","<div style=""display: flex; justify-content: center; align-items: center;"">
                     <img src=""images/causal/causal_series_1/causal_series_1_c.png"" style=""width: 300px; height: 300px;"" />
                   </div>","null","",""
"","","","","","html-button-response","56","384148","0.0-56.0","CFE8659747BF4A9DB56F4A96ED0C7216","0199d04b-1173-7edb-9a88-9f8d8ca8218d","0199d03a-64b5-7588-a054-13255d1a32c0","","2678","
        <div style=""display: flex; justify-content: center; align-items: center;"">
          <img src=""images/red_deck_2.png"" style=""width: 300px; height: 300px; margin-right: 10px;"" />
          <img src=""images/blue_deck_1.png"" style=""width: 300px; height: 300px;"" />
        </div>","0","0",""
"","","","","","html-keyboard-response","57","391150","0.0-57.0-0.0-0.0","CFE8659747BF4A9DB56F4A96ED0C7216","0199d04b-1173-7edb-9a88-9f8d8ca8218d","0199d03a-64b5-7588-a054-13255d1a32c0","","null","<div style=""display: flex; justify-content: center; align-items: center;"">
                     <img src=""images/causal/causal_series_1/causal_series_1_d.png"" style=""width: 300px; height: 300px;"" />
                   </div>","null","",""
"","","","","","survey-likert","58","393546","0.0-58.0","CFE8659747BF4A9DB56F4A96ED0C7216","0199d04b-1173-7edb-9a88-9f8d8ca8218d","0199d03a-64b5-7588-a054-13255d1a32c0","","2394","","{""Q0"":4}","","[0]"
"","","","","","survey-likert","59","396312","0.0-59.0","CFE8659747BF4A9DB56F4A96ED0C7216","0199d04b-1173-7edb-9a88-9f8d8ca8218d","0199d03a-64b5-7588-a054-13255d1a32c0","","2765","","{""Q0"":1}","","[0]"
"","","","","","html-keyboard-response","60","403315","0.0-60.0","CFE8659747BF4A9DB56F4A96ED0C7216","0199d04b-1173-7edb-9a88-9f8d8ca8218d","0199d03a-64b5-7588-a054-13255d1a32c0","","null","<div style=""display: flex; justify-content: center; align-items: center;"">
                     <img src=""images/other/blank.png"" style=""width: 300px; height: 300px;"" />
                   </div>","null","",""
"","","","","","html-keyboard-response","61","410316","0.0-61.0","CFE8659747BF4A9DB56F4A96ED0C7216","0199d04b-1173-7edb-9a88-9f8d8ca8218d","0199d03a-64b5-7588-a054-13255d1a32c0","","null","<div style=""display: flex; justify-content: center; align-items: center;"">
                     <img src=""images/causal/causal_series_2/causal_series_2_a.png"" style=""width: 300px; height: 300px;"" />
                   </div>","null","",""
"","","","","","html-keyboard-response","62","417321","0.0-62.0","CFE8659747BF4A9DB56F4A96ED0C7216","0199d04b-1173-7edb-9a88-9f8d8ca8218d","0199d03a-64b5-7588-a054-13255d1a32c0","","null","<div style=""display: flex; justify-content: center; align-items: center;"">
                     <img src=""images/causal/causal_series_2/causal_series_2_b.png"" style=""width: 300px; height: 300px;"" />
                   </div>","null","",""
"","","","","","html-keyboard-response","63","424323","0.0-63.0","CFE8659747BF4A9DB56F4A96ED0C7216","0199d04b-1173-7edb-9a88-9f8d8ca8218d","0199d03a-64b5-7588-a054-13255d1a32c0","","null","<div style=""display: flex; justify-content: center; align-items: center;"">
                     <img src=""images/causal/causal_series_2/causal_series_2_c.png"" style=""width: 300px; height: 300px;"" />
                   </div>","null","",""
"","","","","","html-button-response","64","426017","0.0-64.0","CFE8659747BF4A9DB56F4A96ED0C7216","0199d04b-1173-7edb-9a88-9f8d8ca8218d","0199d03a-64b5-7588-a054-13255d1a32c0","","1693","
        <div style=""display: flex; justify-content: center; align-items: center;"">
          <img src=""images/red_deck_2.png"" style=""width: 300px; height: 300px; margin-right: 10px;"" />
          <img src=""images/blue_deck_1.png"" style=""width: 300px; height: 300px;"" />
        </div>","0","0",""
"","","","","","html-keyboard-response","65","433022","0.0-65.0-0.0-0.0","CFE8659747BF4A9DB56F4A96ED0C7216","0199d04b-1173-7edb-9a88-9f8d8ca8218d","0199d03a-64b5-7588-a054-13255d1a32c0","","null","<div style=""display: flex; justify-content: center; align-items: center;"">
                     <img src=""images/causal/causal_series_2/causal_series_2_d.png"" style=""width: 300px; height: 300px;"" />
                   </div>","null","",""
"","","","","","survey-likert","66","437232","0.0-66.0","CFE8659747BF4A9DB56F4A96ED0C7216","0199d04b-1173-7edb-9a88-9f8d8ca8218d","0199d03a-64b5-7588-a054-13255d1a32c0","","4209","","{""Q0"":4}","","[0]"
"","","","","","survey-likert","67","440120","0.0-67.0","CFE8659747BF4A9DB56F4A96ED0C7216","0199d04b-1173-7edb-9a88-9f8d8ca8218d","0199d03a-64b5-7588-a054-13255d1a32c0","","2886","","{""Q0"":2}","","[0]"
"","","","","","html-keyboard-response","68","447122","0.0-68.0","CFE8659747BF4A9DB56F4A96ED0C7216","0199d04b-1173-7edb-9a88-9f8d8ca8218d","0199d03a-64b5-7588-a054-13255d1a32c0","","null","<div style=""display: flex; justify-content: center; align-items: center;"">
                     <img src=""images/other/blank.png"" style=""width: 300px; height: 300px;"" />
                   </div>","null","",""
"","","","","","html-keyboard-response","69","454125","0.0-69.0","CFE8659747BF4A9DB56F4A96ED0C7216","0199d04b-1173-7edb-9a88-9f8d8ca8218d","0199d03a-64b5-7588-a054-13255d1a32c0","","null","<div style=""display: flex; justify-content: center; align-items: center;"">
                     <img src=""images/causal/causal_series_5/causal_series_5_a.png"" style=""width: 300px; height: 300px;"" />
                   </div>","null","",""
"","","","","","html-keyboard-response","70","461127","0.0-70.0","CFE8659747BF4A9DB56F4A96ED0C7216","0199d04b-1173-7edb-9a88-9f8d8ca8218d","0199d03a-64b5-7588-a054-13255d1a32c0","","null","<div style=""display: flex; justify-content: center; align-items: center;"">
                     <img src=""images/causal/causal_series_5/causal_series_5_b.png"" style=""width: 300px; height: 300px;"" />
                   </div>","null","",""
"","","","","","html-keyboard-response","71","468129","0.0-71.0","CFE8659747BF4A9DB56F4A96ED0C7216","0199d04b-1173-7edb-9a88-9f8d8ca8218d","0199d03a-64b5-7588-a054-13255d1a32c0","","null","<div style=""display: flex; justify-content: center; align-items: center;"">
                     <img src=""images/causal/causal_series_5/causal_series_5_c.png"" style=""width: 300px; height: 300px;"" />
                   </div>","null","",""
"","","","","","html-button-response","72","469104","0.0-72.0","CFE8659747BF4A9DB56F4A96ED0C7216","0199d04b-1173-7edb-9a88-9f8d8ca8218d","0199d03a-64b5-7588-a054-13255d1a32c0","","974","
        <div style=""display: flex; justify-content: center; align-items: center;"">
          <img src=""images/red_deck_2.png"" style=""width: 300px; height: 300px; margin-right: 10px;"" />
          <img src=""images/blue_deck_1.png"" style=""width: 300px; height: 300px;"" />
        </div>","1","1",""
"","","","","","html-keyboard-response","73","476106","0.0-73.0-1.0-0.0","CFE8659747BF4A9DB56F4A96ED0C7216","0199d04b-1173-7edb-9a88-9f8d8ca8218d","0199d03a-64b5-7588-a054-13255d1a32c0","","null","<div style=""display: flex; justify-content: center; align-items: center;"">
                     <img src=""images/semantic/semantic_series_5/semantic_series_5_d.png"" style=""width: 300px; height: 300px;"" />
                   </div>","null","",""
"","","","","","survey-likert","74","479403","0.0-74.0","CFE8659747BF4A9DB56F4A96ED0C7216","0199d04b-1173-7edb-9a88-9f8d8ca8218d","0199d03a-64b5-7588-a054-13255d1a32c0","","3297","","{""Q0"":2}","","[0]"
"","","","","","survey-likert","75","481620","0.0-75.0","CFE8659747BF4A9DB56F4A96ED0C7216","0199d04b-1173-7edb-9a88-9f8d8ca8218d","0199d03a-64b5-7588-a054-13255d1a32c0","","2215","","{""Q0"":2}","","[0]"
"","","","","","html-keyboard-response","76","488623","0.0-76.0","CFE8659747BF4A9DB56F4A96ED0C7216","0199d04b-1173-7edb-9a88-9f8d8ca8218d","0199d03a-64b5-7588-a054-13255d1a32c0","","null","<div style=""display: flex; justify-content: center; align-items: center;"">
                     <img src=""images/other/blank.png"" style=""width: 300px; height: 300px;"" />
                   </div>","null","",""
"","","","","","html-keyboard-response","77","495625","0.0-77.0","CFE8659747BF4A9DB56F4A96ED0C7216","0199d04b-1173-7edb-9a88-9f8d8ca8218d","0199d03a-64b5-7588-a054-13255d1a32c0","","null","<div style=""display: flex; justify-content: center; align-items: center;"">
                     <img src=""images/causal/causal_series_9/causal_series_9_a.png"" style=""width: 300px; height: 300px;"" />
                   </div>","null","",""
"","","","","","html-keyboard-response","78","502628","0.0-78.0","CFE8659747BF4A9DB56F4A96ED0C7216","0199d04b-1173-7edb-9a88-9f8d8ca8218d","0199d03a-64b5-7588-a054-13255d1a32c0","","null","<div style=""display: flex; justify-content: center; align-items: center;"">
                     <img src=""images/causal/causal_series_9/causal_series_9_b.png"" style=""width: 300px; height: 300px;"" />
                   </div>","null","",""
"","","","","","html-keyboard-response","79","509630","0.0-79.0","CFE8659747BF4A9DB56F4A96ED0C7216","0199d04b-1173-7edb-9a88-9f8d8ca8218d","0199d03a-64b5-7588-a054-13255d1a32c0","","null","<div style=""display: flex; justify-content: center; align-items: center;"">
                     <img src=""images/causal/causal_series_9/causal_series_9_c.png"" style=""width: 300px; height: 300px;"" />
                   </div>","null","",""
"","","","","","html-button-response","80","510957","0.0-80.0","CFE8659747BF4A9DB56F4A96ED0C7216","0199d04b-1173-7edb-9a88-9f8d8ca8218d","0199d03a-64b5-7588-a054-13255d1a32c0","","1325","
        <div style=""display: flex; justify-content: center; align-items: center;"">
          <img src=""images/red_deck_2.png"" style=""width: 300px; height: 300px; margin-right: 10px;"" />
          <img src=""images/blue_deck_1.png"" style=""width: 300px; height: 300px;"" />
        </div>","0","0",""
"","","","","","html-keyboard-response","81","517962","0.0-81.0-0.0-0.0","CFE8659747BF4A9DB56F4A96ED0C7216","0199d04b-1173-7edb-9a88-9f8d8ca8218d","0199d03a-64b5-7588-a054-13255d1a32c0","","null","<div style=""display: flex; justify-content: center; align-items: center;"">
                     <img src=""images/causal/causal_series_9/causal_series_9_d.png"" style=""width: 300px; height: 300px;"" />
                   </div>","null","",""
"","","","","","survey-likert","82","520978","0.0-82.0","CFE8659747BF4A9DB56F4A96ED0C7216","0199d04b-1173-7edb-9a88-9f8d8ca8218d","0199d03a-64b5-7588-a054-13255d1a32c0","","3015","","{""Q0"":4}","","[0]"
"","","","","","survey-likert","83","523477","0.0-83.0","CFE8659747BF4A9DB56F4A96ED0C7216","0199d04b-1173-7edb-9a88-9f8d8ca8218d","0199d03a-64b5-7588-a054-13255d1a32c0","","2495","","{""Q0"":3}","","[0]"
"","","","","","html-keyboard-response","84","530480","0.0-84.0","CFE8659747BF4A9DB56F4A96ED0C7216","0199d04b-1173-7edb-9a88-9f8d8ca8218d","0199d03a-64b5-7588-a054-13255d1a32c0","","null","<div style=""display: flex; justify-content: center; align-items: center;"">
                     <img src=""images/other/blank.png"" style=""width: 300px; height: 300px;"" />
                   </div>","null","",""
"","","","","","survey-text","85","562453","0.0-85.0","CFE8659747BF4A9DB56F4A96ED0C7216","0199d04b-1173-7edb-9a88-9f8d8ca8218d","0199d03a-64b5-7588-a054-13255d1a32c0","","31830","","{""Q0"":""One seemed to have more negative scenarios ""}","",""
"","","","","","html-button-response","86","572534","0.0-86.0","CFE8659747BF4A9DB56F4A96ED0C7216","0199d04b-1173-7edb-9a88-9f8d8ca8218d","0199d03a-64b5-7588-a054-13255d1a32c0","","10080","Which color deck do the following images continue the story from?","0","",""
"","","","","","html-button-response","87","576419","0.0-87.0","CFE8659747BF4A9DB56F4A96ED0C7216","0199d04b-1173-7edb-9a88-9f8d8ca8218d","0199d03a-64b5-7588-a054-13255d1a32c0","","3884","Which color deck do the following images NOT follow the story from?","1","",""
"","","","","","html-button-response","88","584340","0.0-88.0","CFE8659747BF4A9DB56F4A96ED0C7216","0199d04b-1173-7edb-9a88-9f8d8ca8218d","0199d03a-64b5-7588-a054-13255d1a32c0","","7919","Which type of deck did you prefer overall?","0","",""
"","","","","","survey-text","89","589521","0.0-89.0","CFE8659747BF4A9DB56F4A96ED0C7216","0199d04b-1173-7edb-9a88-9f8d8ca8218d","0199d03a-64b5-7588-a054-13255d1a32c0","","5172","","{""Q0"":""female"",""Q1"":""32""}","",""
"","","","","","instructions","90","594854","0.0-90.0","CFE8659747BF4A9DB56F4A96ED0C7216","0199d04b-1173-7edb-9a88-9f8d8ca8218d","0199d03a-64b5-7588-a054-13255d1a32c0","[{""page_index"":0,""viewing_time"":5332}]","5332","","","",""
