"success","timeout","failed_images","failed_audio","failed_video","trial_type","trial_index","time_elapsed","internal_node_id","subject_id","study_id","session_id","view_history","rt","stimulus","response","series","repetition","phase","choice","question_order"
"true","false","[]","[]","[]","preload","0","508","0.0-0.0","669BECBF431D4E4D9DFDCCD88305D875","0199d5fd-cd9e-7906-bf95-3427b0c654f4","0199d5ef-c7d4-7cab-a194-b2c3afbaf8e8","","","","","","","","",""
"","","","","","instructions","1","2866","0.0-1.0","669BECBF431D4E4D9DFDCCD88305D875","0199d5fd-cd9e-7906-bf95-3427b0c654f4","0199d5ef-c7d4-7cab-a194-b2c3afbaf8e8","[{""page_index"":0,""viewing_time"":2358}]","2358","","","","","","",""
"","","","","","instructions","2","15297","0.0-2.0","669BECBF431D4E4D9DFDCCD88305D875","0199d5fd-cd9e-7906-bf95-3427b0c654f4","0199d5ef-c7d4-7cab-a194-b2c3afbaf8e8","[{""page_index"":0,""viewing_time"":12431}]","12431","","","","","","",""
"true","","","","","fullscreen","3","21128","0.0-3.0","669BECBF431D4E4D9DFDCCD88305D875","0199d5fd-cd9e-7906-bf95-3427b0c654f4","0199d5ef-c7d4-7cab-a194-b2c3afbaf8e8","","4815","","","","","","",""
"","","","","","instructions","4","35098","0.0-4.0","669BECBF431D4E4D9DFDCCD88305D875","0199d5fd-cd9e-7906-bf95-3427b0c654f4","0199d5ef-c7d4-7cab-a194-b2c3afbaf8e8","[{""page_index"":0,""viewing_time"":13969}]","13969","","","","","","",""
"","","","","","html-keyboard-response","5","41112","0.0-5.0","669BECBF431D4E4D9DFDCCD88305D875","0199d5fd-cd9e-7906-bf95-3427b0c654f4","0199d5ef-c7d4-7cab-a194-b2c3afbaf8e8","","null","<div style=""display: flex; justify-content: center; align-items: center;"">
                     <img src=""images/causal/causal_series_2/causal_series_2_a.png"" style=""width: 300px; height: 300px;"" />
                   </div>","null","2","1","A","",""
"","","","","","html-keyboard-response","6","47117","0.0-6.0","669BECBF431D4E4D9DFDCCD88305D875","0199d5fd-cd9e-7906-bf95-3427b0c654f4","0199d5ef-c7d4-7cab-a194-b2c3afbaf8e8","","null","<div style=""display: flex; justify-content: center; align-items: center;"">
                     <img src=""images/causal/causal_series_2/causal_series_2_b.png"" style=""width: 300px; height: 300px;"" />
                   </div>","null","2","1","B","",""
"","","","","","html-keyboard-response","7","53126","0.0-7.0","669BECBF431D4E4D9DFDCCD88305D875","0199d5fd-cd9e-7906-bf95-3427b0c654f4","0199d5ef-c7d4-7cab-a194-b2c3afbaf8e8","","null","<div style=""display: flex; justify-content: center; align-items: center;"">
                     <img src=""images/causal/causal_series_2/causal_series_2_c.png"" style=""width: 300px; height: 300px;"" />
                   </div>","null","2","1","C","",""
"","","","","","html-button-response","8","55834","0.0-8.0","669BECBF431D4E4D9DFDCCD88305D875","0199d5fd-cd9e-7906-bf95-3427b0c654f4","0199d5ef-c7d4-7cab-a194-b2c3afbaf8e8","","2706","
        <div style=""display: flex; justify-content: center; align-items: center;"">
          <img src=""images/red_deck_2.png"" style=""width: 300px; height: 300px; margin-right: 10px;"" />
          <img src=""images/blue_deck_1.png"" style=""width: 300px; height: 300px;"" />
        </div>","0","2","1","choice","0",""
"","","","","","html-keyboard-response","9","61840","0.0-9.0-0.0-0.0","669BECBF431D4E4D9DFDCCD88305D875","0199d5fd-cd9e-7906-bf95-3427b0c654f4","0199d5ef-c7d4-7cab-a194-b2c3afbaf8e8","","null","<div style=""display: flex; justify-content: center; align-items: center;"">
                     <img src=""images/causal/causal_series_2/causal_series_2_d.png"" style=""width: 300px; height: 300px;"" />
                   </div>","null","2","1","D","",""
"","","","","","html-keyboard-response","10","67847","0.0-9.0-0.0-1.0","669BECBF431D4E4D9DFDCCD88305D875","0199d5fd-cd9e-7906-bf95-3427b0c654f4","0199d5ef-c7d4-7cab-a194-b2c3afbaf8e8","","null","<div style=""display: flex; justify-content: center; align-items: center;"">
                     <img src=""images/causal/causal_series_2/causal_series_2_e.png"" style=""width: 300px; height: 300px;"" />
                   </div>","null","2","1","E","",""
"","","","","","html-keyboard-response","11","73851","0.0-9.0-0.0-2.0","669BECBF431D4E4D9DFDCCD88305D875","0199d5fd-cd9e-7906-bf95-3427b0c654f4","0199d5ef-c7d4-7cab-a194-b2c3afbaf8e8","","null","<div style=""display: flex; justify-content: center; align-items: center;"">
                     <img src=""images/causal/causal_series_2/causal_series_2_f.png"" style=""width: 300px; height: 300px;"" />
                   </div>","null","2","1","F","",""
"","","","","","survey-likert","12","76889","0.0-10.0","669BECBF431D4E4D9DFDCCD88305D875","0199d5fd-cd9e-7906-bf95-3427b0c654f4","0199d5ef-c7d4-7cab-a194-b2c3afbaf8e8","","3036","","{""Q0"":4}","2","1","surprise_rating","","[0]"
"","","","","","survey-likert","13","80322","0.0-11.0","669BECBF431D4E4D9DFDCCD88305D875","0199d5fd-cd9e-7906-bf95-3427b0c654f4","0199d5ef-c7d4-7cab-a194-b2c3afbaf8e8","","3432","","{""Q0"":1}","2","1","enjoyment_rating","","[0]"
"","","","","","html-keyboard-response","14","86332","0.0-12.0","669BECBF431D4E4D9DFDCCD88305D875","0199d5fd-cd9e-7906-bf95-3427b0c654f4","0199d5ef-c7d4-7cab-a194-b2c3afbaf8e8","","null","<div style=""display: flex; justify-content: center; align-items: center;"">
                     <img src=""images/other/blank.png"" style=""width: 300px; height: 300px;"" />
                   </div>","null","0","0","blank","",""
"","","","","","html-keyboard-response","15","92336","0.0-13.0","669BECBF431D4E4D9DFDCCD88305D875","0199d5fd-cd9e-7906-bf95-3427b0c654f4","0199d5ef-c7d4-7cab-a194-b2c3afbaf8e8","","null","<div style=""display: flex; justify-content: center; align-items: center;"">
                     <img src=""images/causal/causal_series_6/causal_series_6_a.png"" style=""width: 300px; height: 300px;"" />
                   </div>","null","6","2","A","",""
"","","","","","html-keyboard-response","16","98353","0.0-14.0","669BECBF431D4E4D9DFDCCD88305D875","0199d5fd-cd9e-7906-bf95-3427b0c654f4","0199d5ef-c7d4-7cab-a194-b2c3afbaf8e8","","null","<div style=""display: flex; justify-content: center; align-items: center;"">
                     <img src=""images/causal/causal_series_6/causal_series_6_b.png"" style=""width: 300px; height: 300px;"" />
                   </div>","null","6","2","B","",""
"","","","","","html-keyboard-response","17","104360","0.0-15.0","669BECBF431D4E4D9DFDCCD88305D875","0199d5fd-cd9e-7906-bf95-3427b0c654f4","0199d5ef-c7d4-7cab-a194-b2c3afbaf8e8","","null","<div style=""display: flex; justify-content: center; align-items: center;"">
                     <img src=""images/causal/causal_series_6/causal_series_6_c.png"" style=""width: 300px; height: 300px;"" />
                   </div>","null","6","2","C","",""
"","","","","","html-button-response","18","105409","0.0-16.0","669BECBF431D4E4D9DFDCCD88305D875","0199d5fd-cd9e-7906-bf95-3427b0c654f4","0199d5ef-c7d4-7cab-a194-b2c3afbaf8e8","","1048","
        <div style=""display: flex; justify-content: center; align-items: center;"">
          <img src=""images/red_deck_2.png"" style=""width: 300px; height: 300px; margin-right: 10px;"" />
          <img src=""images/blue_deck_1.png"" style=""width: 300px; height: 300px;"" />
        </div>","0","6","2","choice","0",""
"","","","","","html-keyboard-response","19","111417","0.0-17.0-0.0-0.0","669BECBF431D4E4D9DFDCCD88305D875","0199d5fd-cd9e-7906-bf95-3427b0c654f4","0199d5ef-c7d4-7cab-a194-b2c3afbaf8e8","","null","<div style=""display: flex; justify-content: center; align-items: center;"">
                     <img src=""images/causal/causal_series_6/causal_series_6_d.png"" style=""width: 300px; height: 300px;"" />
                   </div>","null","6","2","D","",""
"","","","","","html-keyboard-response","20","117432","0.0-17.0-0.0-1.0","669BECBF431D4E4D9DFDCCD88305D875","0199d5fd-cd9e-7906-bf95-3427b0c654f4","0199d5ef-c7d4-7cab-a194-b2c3afbaf8e8","","null","<div style=""display: flex; justify-content: center; align-items: center;"">
                     <img src=""images/causal/causal_series_6/causal_series_6_e.png"" style=""width: 300px; height: 300px;"" />
                   </div>","null","6","2","E","",""
"","","","","","html-keyboard-response","21","123435","0.0-17.0-0.0-2.0","669BECBF431D4E4D9DFDCCD88305D875","0199d5fd-cd9e-7906-bf95-3427b0c654f4","0199d5ef-c7d4-7cab-a194-b2c3afbaf8e8","","null","<div style=""display: flex; justify-content: center; align-items: center;"">
                     <img src=""images/causal/causal_series_6/causal_series_6_f.png"" style=""width: 300px; height: 300px;"" />
                   </div>","null","6","2","F","",""
"","","","","","survey-likert","22","125258","0.0-18.0","669BECBF431D4E4D9DFDCCD88305D875","0199d5fd-cd9e-7906-bf95-3427b0c654f4","0199d5ef-c7d4-7cab-a194-b2c3afbaf8e8","","1822","","{""Q0"":2}","6","2","surprise_rating","","[0]"
"","","","","","survey-likert","23","127313","0.0-19.0","669BECBF431D4E4D9DFDCCD88305D875","0199d5fd-cd9e-7906-bf95-3427b0c654f4","0199d5ef-c7d4-7cab-a194-b2c3afbaf8e8","","2055","","{""Q0"":2}","6","2","enjoyment_rating","","[0]"
"","","","","","html-keyboard-response","24","133324","0.0-20.0","669BECBF431D4E4D9DFDCCD88305D875","0199d5fd-cd9e-7906-bf95-3427b0c654f4","0199d5ef-c7d4-7cab-a194-b2c3afbaf8e8","","null","<div style=""display: flex; justify-content: center; align-items: center;"">
                     <img src=""images/other/blank.png"" style=""width: 300px; height: 300px;"" />
                   </div>","null","0","0","blank","",""
"","","","","","html-keyboard-response","25","139343","0.0-21.0","669BECBF431D4E4D9DFDCCD88305D875","0199d5fd-cd9e-7906-bf95-3427b0c654f4","0199d5ef-c7d4-7cab-a194-b2c3afbaf8e8","","null","<div style=""display: flex; justify-content: center; align-items: center;"">
                     <img src=""images/causal/causal_series_2/causal_series_2_a.png"" style=""width: 300px; height: 300px;"" />
                   </div>","null","2","2","A","",""
"","","","","","html-keyboard-response","26","145345","0.0-22.0","669BECBF431D4E4D9DFDCCD88305D875","0199d5fd-cd9e-7906-bf95-3427b0c654f4","0199d5ef-c7d4-7cab-a194-b2c3afbaf8e8","","null","<div style=""display: flex; justify-content: center; align-items: center;"">
                     <img src=""images/causal/causal_series_2/causal_series_2_b.png"" style=""width: 300px; height: 300px;"" />
                   </div>","null","2","2","B","",""
"","","","","","html-keyboard-response","27","151346","0.0-23.0","669BECBF431D4E4D9DFDCCD88305D875","0199d5fd-cd9e-7906-bf95-3427b0c654f4","0199d5ef-c7d4-7cab-a194-b2c3afbaf8e8","","null","<div style=""display: flex; justify-content: center; align-items: center;"">
                     <img src=""images/causal/causal_series_2/causal_series_2_c.png"" style=""width: 300px; height: 300px;"" />
                   </div>","null","2","2","C","",""
"","","","","","html-button-response","28","152290","0.0-24.0","669BECBF431D4E4D9DFDCCD88305D875","0199d5fd-cd9e-7906-bf95-3427b0c654f4","0199d5ef-c7d4-7cab-a194-b2c3afbaf8e8","","943","
        <div style=""display: flex; justify-content: center; align-items: center;"">
          <img src=""images/red_deck_2.png"" style=""width: 300px; height: 300px; margin-right: 10px;"" />
          <img src=""images/blue_deck_1.png"" style=""width: 300px; height: 300px;"" />
        </div>","1","2","2","choice","1",""
"","","","","","html-keyboard-response","29","158305","0.0-25.0-1.0-0.0","669BECBF431D4E4D9DFDCCD88305D875","0199d5fd-cd9e-7906-bf95-3427b0c654f4","0199d5ef-c7d4-7cab-a194-b2c3afbaf8e8","","null","<div style=""display: flex; justify-content: center; align-items: center;"">
                     <img src=""images/semantic/semantic_series_2/semantic_series_2_d.png"" style=""width: 300px; height: 300px;"" />
                   </div>","null","2","2","D","",""
"","","","","","html-keyboard-response","30","164315","0.0-25.0-1.0-1.0","669BECBF431D4E4D9DFDCCD88305D875","0199d5fd-cd9e-7906-bf95-3427b0c654f4","0199d5ef-c7d4-7cab-a194-b2c3afbaf8e8","","null","<div style=""display: flex; justify-content: center; align-items: center;"">
                     <img src=""images/semantic/semantic_series_2/semantic_series_2_e.png"" style=""width: 300px; height: 300px;"" />
                   </div>","null","2","2","E","",""
"","","","","","html-keyboard-response","31","170318","0.0-25.0-1.0-2.0","669BECBF431D4E4D9DFDCCD88305D875","0199d5fd-cd9e-7906-bf95-3427b0c654f4","0199d5ef-c7d4-7cab-a194-b2c3afbaf8e8","","null","<div style=""display: flex; justify-content: center; align-items: center;"">
                     <img src=""images/semantic/semantic_series_2/semantic_series_2_f.png"" style=""width: 300px; height: 300px;"" />
                   </div>","null","2","2","F","",""
"","","","","","survey-likert","32","179146","0.0-26.0","669BECBF431D4E4D9DFDCCD88305D875","0199d5fd-cd9e-7906-bf95-3427b0c654f4","0199d5ef-c7d4-7cab-a194-b2c3afbaf8e8","","8827","","{""Q0"":1}","2","2","surprise_rating","","[0]"
"","","","","","survey-likert","33","180074","0.0-27.0","669BECBF431D4E4D9DFDCCD88305D875","0199d5fd-cd9e-7906-bf95-3427b0c654f4","0199d5ef-c7d4-7cab-a194-b2c3afbaf8e8","","927","","{""Q0"":3}","2","2","enjoyment_rating","","[0]"
"","","","","","html-keyboard-response","34","186080","0.0-28.0","669BECBF431D4E4D9DFDCCD88305D875","0199d5fd-cd9e-7906-bf95-3427b0c654f4","0199d5ef-c7d4-7cab-a194-b2c3afbaf8e8","","null","<div style=""display: flex; justify-content: center; align-items: center;"">
                     <img src=""images/other/blank.png"" style=""width: 300px; height: 300px;"" />
                   </div>","null","0","0","blank","",""
"","","","","","html-keyboard-response","35","192083","0.0-29.0","669BECBF431D4E4D9DFDCCD88305D875","0199d5fd-cd9e-7906-bf95-3427b0c654f4","0199d5ef-c7d4-7cab-a194-b2c3afbaf8e8","","null","<div style=""display: flex; justify-content: center; align-items: center;"">
                     <img src=""images/causal/causal_series_8/causal_series_8_a.png"" style=""width: 300px; height: 300px;"" />
                   </div>","null","8","2","A","",""
"","","","","","html-keyboard-response","36","198091","0.0-30.0","669BECBF431D4E4D9DFDCCD88305D875","0199d5fd-cd9e-7906-bf95-3427b0c654f4","0199d5ef-c7d4-7cab-a194-b2c3afbaf8e8","","null","<div style=""display: flex; justify-content: center; align-items: center;"">
                     <img src=""images/causal/causal_series_8/causal_series_8_b.png"" style=""width: 300px; height: 300px;"" />
                   </div>","null","8","2","B","",""
"","","","","","html-keyboard-response","37","204098","0.0-31.0","669BECBF431D4E4D9DFDCCD88305D875","0199d5fd-cd9e-7906-bf95-3427b0c654f4","0199d5ef-c7d4-7cab-a194-b2c3afbaf8e8","","null","<div style=""display: flex; justify-content: center; align-items: center;"">
                     <img src=""images/causal/causal_series_8/causal_series_8_c.png"" style=""width: 300px; height: 300px;"" />
                   </div>","null","8","2","C","",""
"","","","","","html-button-response","38","204857","0.0-32.0","669BECBF431D4E4D9DFDCCD88305D875","0199d5fd-cd9e-7906-bf95-3427b0c654f4","0199d5ef-c7d4-7cab-a194-b2c3afbaf8e8","","759","
        <div style=""display: flex; justify-content: center; align-items: center;"">
          <img src=""images/red_deck_2.png"" style=""width: 300px; height: 300px; margin-right: 10px;"" />
          <img src=""images/blue_deck_1.png"" style=""width: 300px; height: 300px;"" />
        </div>","0","8","2","choice","0",""
"","","","","","html-keyboard-response","39","210859","0.0-33.0-0.0-0.0","669BECBF431D4E4D9DFDCCD88305D875","0199d5fd-cd9e-7906-bf95-3427b0c654f4","0199d5ef-c7d4-7cab-a194-b2c3afbaf8e8","","null","<div style=""display: flex; justify-content: center; align-items: center;"">
                     <img src=""images/causal/causal_series_8/causal_series_8_d.png"" style=""width: 300px; height: 300px;"" />
                   </div>","null","8","2","D","",""
"","","","","","html-keyboard-response","40","216866","0.0-33.0-0.0-1.0","669BECBF431D4E4D9DFDCCD88305D875","0199d5fd-cd9e-7906-bf95-3427b0c654f4","0199d5ef-c7d4-7cab-a194-b2c3afbaf8e8","","null","<div style=""display: flex; justify-content: center; align-items: center;"">
                     <img src=""images/causal/causal_series_8/causal_series_8_e.png"" style=""width: 300px; height: 300px;"" />
                   </div>","null","8","2","E","",""
"","","","","","html-keyboard-response","41","222873","0.0-33.0-0.0-2.0","669BECBF431D4E4D9DFDCCD88305D875","0199d5fd-cd9e-7906-bf95-3427b0c654f4","0199d5ef-c7d4-7cab-a194-b2c3afbaf8e8","","null","<div style=""display: flex; justify-content: center; align-items: center;"">
                     <img src=""images/causal/causal_series_8/causal_series_8_f.png"" style=""width: 300px; height: 300px;"" />
                   </div>","null","8","2","F","",""
"","","","","","survey-likert","42","224737","0.0-34.0","669BECBF431D4E4D9DFDCCD88305D875","0199d5fd-cd9e-7906-bf95-3427b0c654f4","0199d5ef-c7d4-7cab-a194-b2c3afbaf8e8","","1864","","{""Q0"":4}","8","2","surprise_rating","","[0]"
"","","","","","survey-likert","43","226042","0.0-35.0","669BECBF431D4E4D9DFDCCD88305D875","0199d5fd-cd9e-7906-bf95-3427b0c654f4","0199d5ef-c7d4-7cab-a194-b2c3afbaf8e8","","1304","","{""Q0"":0}","8","2","enjoyment_rating","","[0]"
"","","","","","html-keyboard-response","44","232056","0.0-36.0","669BECBF431D4E4D9DFDCCD88305D875","0199d5fd-cd9e-7906-bf95-3427b0c654f4","0199d5ef-c7d4-7cab-a194-b2c3afbaf8e8","","null","<div style=""display: flex; justify-content: center; align-items: center;"">
                     <img src=""images/other/blank.png"" style=""width: 300px; height: 300px;"" />
                   </div>","null","0","0","blank","",""
"","","","","","html-keyboard-response","45","238070","0.0-37.0","669BECBF431D4E4D9DFDCCD88305D875","0199d5fd-cd9e-7906-bf95-3427b0c654f4","0199d5ef-c7d4-7cab-a194-b2c3afbaf8e8","","null","<div style=""display: flex; justify-content: center; align-items: center;"">
                     <img src=""images/causal/causal_series_7/causal_series_7_a.png"" style=""width: 300px; height: 300px;"" />
                   </div>","null","7","2","A","",""
"","","","","","html-keyboard-response","46","244079","0.0-38.0","669BECBF431D4E4D9DFDCCD88305D875","0199d5fd-cd9e-7906-bf95-3427b0c654f4","0199d5ef-c7d4-7cab-a194-b2c3afbaf8e8","","null","<div style=""display: flex; justify-content: center; align-items: center;"">
                     <img src=""images/causal/causal_series_7/causal_series_7_b.png"" style=""width: 300px; height: 300px;"" />
                   </div>","null","7","2","B","",""
"","","","","","html-keyboard-response","47","250088","0.0-39.0","669BECBF431D4E4D9DFDCCD88305D875","0199d5fd-cd9e-7906-bf95-3427b0c654f4","0199d5ef-c7d4-7cab-a194-b2c3afbaf8e8","","null","<div style=""display: flex; justify-content: center; align-items: center;"">
                     <img src=""images/causal/causal_series_7/causal_series_7_c.png"" style=""width: 300px; height: 300px;"" />
                   </div>","null","7","2","C","",""
"","","","","","html-button-response","48","251954","0.0-40.0","669BECBF431D4E4D9DFDCCD88305D875","0199d5fd-cd9e-7906-bf95-3427b0c654f4","0199d5ef-c7d4-7cab-a194-b2c3afbaf8e8","","1865","
        <div style=""display: flex; justify-content: center; align-items: center;"">
          <img src=""images/red_deck_2.png"" style=""width: 300px; height: 300px; margin-right: 10px;"" />
          <img src=""images/blue_deck_1.png"" style=""width: 300px; height: 300px;"" />
        </div>","0","7","2","choice","0",""
"","","","","","html-keyboard-response","49","257961","0.0-41.0-0.0-0.0","669BECBF431D4E4D9DFDCCD88305D875","0199d5fd-cd9e-7906-bf95-3427b0c654f4","0199d5ef-c7d4-7cab-a194-b2c3afbaf8e8","","null","<div style=""display: flex; justify-content: center; align-items: center;"">
                     <img src=""images/causal/causal_series_7/causal_series_7_d.png"" style=""width: 300px; height: 300px;"" />
                   </div>","null","7","2","D","",""
"","","","","","html-keyboard-response","50","263969","0.0-41.0-0.0-1.0","669BECBF431D4E4D9DFDCCD88305D875","0199d5fd-cd9e-7906-bf95-3427b0c654f4","0199d5ef-c7d4-7cab-a194-b2c3afbaf8e8","","null","<div style=""display: flex; justify-content: center; align-items: center;"">
                     <img src=""images/causal/causal_series_7/causal_series_7_e.png"" style=""width: 300px; height: 300px;"" />
                   </div>","null","7","2","E","",""
"","","","","","html-keyboard-response","51","269979","0.0-41.0-0.0-2.0","669BECBF431D4E4D9DFDCCD88305D875","0199d5fd-cd9e-7906-bf95-3427b0c654f4","0199d5ef-c7d4-7cab-a194-b2c3afbaf8e8","","null","<div style=""display: flex; justify-content: center; align-items: center;"">
                     <img src=""images/causal/causal_series_7/causal_series_7_f.png"" style=""width: 300px; height: 300px;"" />
                   </div>","null","7","2","F","",""
"","","","","","survey-likert","52","272074","0.0-42.0","669BECBF431D4E4D9DFDCCD88305D875","0199d5fd-cd9e-7906-bf95-3427b0c654f4","0199d5ef-c7d4-7cab-a194-b2c3afbaf8e8","","2093","","{""Q0"":4}","7","2","surprise_rating","","[0]"
"","","","","","survey-likert","53","274418","0.0-43.0","669BECBF431D4E4D9DFDCCD88305D875","0199d5fd-cd9e-7906-bf95-3427b0c654f4","0199d5ef-c7d4-7cab-a194-b2c3afbaf8e8","","2344","","{""Q0"":1}","7","2","enjoyment_rating","","[0]"
"","","","","","html-keyboard-response","54","280435","0.0-44.0","669BECBF431D4E4D9DFDCCD88305D875","0199d5fd-cd9e-7906-bf95-3427b0c654f4","0199d5ef-c7d4-7cab-a194-b2c3afbaf8e8","","null","<div style=""display: flex; justify-content: center; align-items: center;"">
                     <img src=""images/other/blank.png"" style=""width: 300px; height: 300px;"" />
                   </div>","null","0","0","blank","",""
"","","","","","html-keyboard-response","55","286451","0.0-45.0","669BECBF431D4E4D9DFDCCD88305D875","0199d5fd-cd9e-7906-bf95-3427b0c654f4","0199d5ef-c7d4-7cab-a194-b2c3afbaf8e8","","null","<div style=""display: flex; justify-content: center; align-items: center;"">
                     <img src=""images/causal/causal_series_3/causal_series_3_a.png"" style=""width: 300px; height: 300px;"" />
                   </div>","null","3","2","A","",""
"","","","","","html-keyboard-response","56","292453","0.0-46.0","669BECBF431D4E4D9DFDCCD88305D875","0199d5fd-cd9e-7906-bf95-3427b0c654f4","0199d5ef-c7d4-7cab-a194-b2c3afbaf8e8","","null","<div style=""display: flex; justify-content: center; align-items: center;"">
                     <img src=""images/causal/causal_series_3/causal_series_3_b.png"" style=""width: 300px; height: 300px;"" />
                   </div>","null","3","2","B","",""
"","","","","","html-keyboard-response","57","298461","0.0-47.0","669BECBF431D4E4D9DFDCCD88305D875","0199d5fd-cd9e-7906-bf95-3427b0c654f4","0199d5ef-c7d4-7cab-a194-b2c3afbaf8e8","","null","<div style=""display: flex; justify-content: center; align-items: center;"">
                     <img src=""images/causal/causal_series_3/causal_series_3_c.png"" style=""width: 300px; height: 300px;"" />
                   </div>","null","3","2","C","",""
"","","","","","html-button-response","58","300586","0.0-48.0","669BECBF431D4E4D9DFDCCD88305D875","0199d5fd-cd9e-7906-bf95-3427b0c654f4","0199d5ef-c7d4-7cab-a194-b2c3afbaf8e8","","2125","
        <div style=""display: flex; justify-content: center; align-items: center;"">
          <img src=""images/red_deck_2.png"" style=""width: 300px; height: 300px; margin-right: 10px;"" />
          <img src=""images/blue_deck_1.png"" style=""width: 300px; height: 300px;"" />
        </div>","1","3","2","choice","1",""
"","","","","","html-keyboard-response","59","306587","0.0-49.0-1.0-0.0","669BECBF431D4E4D9DFDCCD88305D875","0199d5fd-cd9e-7906-bf95-3427b0c654f4","0199d5ef-c7d4-7cab-a194-b2c3afbaf8e8","","null","<div style=""display: flex; justify-content: center; align-items: center;"">
                     <img src=""images/semantic/semantic_series_3/semantic_series_3_d.png"" style=""width: 300px; height: 300px;"" />
                   </div>","null","3","2","D","",""
"","","","","","html-keyboard-response","60","312591","0.0-49.0-1.0-1.0","669BECBF431D4E4D9DFDCCD88305D875","0199d5fd-cd9e-7906-bf95-3427b0c654f4","0199d5ef-c7d4-7cab-a194-b2c3afbaf8e8","","null","<div style=""display: flex; justify-content: center; align-items: center;"">
                     <img src=""images/semantic/semantic_series_3/semantic_series_3_e.png"" style=""width: 300px; height: 300px;"" />
                   </div>","null","3","2","E","",""
"","","","","","html-keyboard-response","61","318605","0.0-49.0-1.0-2.0","669BECBF431D4E4D9DFDCCD88305D875","0199d5fd-cd9e-7906-bf95-3427b0c654f4","0199d5ef-c7d4-7cab-a194-b2c3afbaf8e8","","null","<div style=""display: flex; justify-content: center; align-items: center;"">
                     <img src=""images/semantic/semantic_series_3/semantic_series_3_f.png"" style=""width: 300px; height: 300px;"" />
                   </div>","null","3","2","F","",""
"","","","","","survey-likert","62","321082","0.0-50.0","669BECBF431D4E4D9DFDCCD88305D875","0199d5fd-cd9e-7906-bf95-3427b0c654f4","0199d5ef-c7d4-7cab-a194-b2c3afbaf8e8","","2477","","{""Q0"":4}","3","2","surprise_rating","","[0]"
"","","","","","survey-likert","63","323443","0.0-51.0","669BECBF431D4E4D9DFDCCD88305D875","0199d5fd-cd9e-7906-bf95-3427b0c654f4","0199d5ef-c7d4-7cab-a194-b2c3afbaf8e8","","2360","","{""Q0"":1}","3","2","enjoyment_rating","","[0]"
"","","","","","html-keyboard-response","64","329459","0.0-52.0","669BECBF431D4E4D9DFDCCD88305D875","0199d5fd-cd9e-7906-bf95-3427b0c654f4","0199d5ef-c7d4-7cab-a194-b2c3afbaf8e8","","null","<div style=""display: flex; justify-content: center; align-items: center;"">
                     <img src=""images/other/blank.png"" style=""width: 300px; height: 300px;"" />
                   </div>","null","0","0","blank","",""
"","","","","","html-keyboard-response","65","335465","0.0-53.0","669BECBF431D4E4D9DFDCCD88305D875","0199d5fd-cd9e-7906-bf95-3427b0c654f4","0199d5ef-c7d4-7cab-a194-b2c3afbaf8e8","","null","<div style=""display: flex; justify-content: center; align-items: center;"">
                     <img src=""images/causal/causal_series_1/causal_series_1_a.png"" style=""width: 300px; height: 300px;"" />
                   </div>","null","1","2","A","",""
"","","","","","html-keyboard-response","66","341473","0.0-54.0","669BECBF431D4E4D9DFDCCD88305D875","0199d5fd-cd9e-7906-bf95-3427b0c654f4","0199d5ef-c7d4-7cab-a194-b2c3afbaf8e8","","null","<div style=""display: flex; justify-content: center; align-items: center;"">
                     <img src=""images/causal/causal_series_1/causal_series_1_b.png"" style=""width: 300px; height: 300px;"" />
                   </div>","null","1","2","B","",""
"","","","","","html-keyboard-response","67","347479","0.0-55.0","669BECBF431D4E4D9DFDCCD88305D875","0199d5fd-cd9e-7906-bf95-3427b0c654f4","0199d5ef-c7d4-7cab-a194-b2c3afbaf8e8","","null","<div style=""display: flex; justify-content: center; align-items: center;"">
                     <img src=""images/causal/causal_series_1/causal_series_1_c.png"" style=""width: 300px; height: 300px;"" />
                   </div>","null","1","2","C","",""
"","","","","","html-button-response","68","412579","0.0-56.0","669BECBF431D4E4D9DFDCCD88305D875","0199d5fd-cd9e-7906-bf95-3427b0c654f4","0199d5ef-c7d4-7cab-a194-b2c3afbaf8e8","","65098","
        <div style=""display: flex; justify-content: center; align-items: center;"">
          <img src=""images/red_deck_2.png"" style=""width: 300px; height: 300px; margin-right: 10px;"" />
          <img src=""images/blue_deck_1.png"" style=""width: 300px; height: 300px;"" />
        </div>","1","1","2","choice","1",""
"","","","","","html-keyboard-response","69","418585","0.0-57.0-1.0-0.0","669BECBF431D4E4D9DFDCCD88305D875","0199d5fd-cd9e-7906-bf95-3427b0c654f4","0199d5ef-c7d4-7cab-a194-b2c3afbaf8e8","","null","<div style=""display: flex; justify-content: center; align-items: center;"">
                     <img src=""images/semantic/semantic_series_1/semantic_series_1_d.png"" style=""width: 300px; height: 300px;"" />
                   </div>","null","1","2","D","",""
"","","","","","html-keyboard-response","70","424592","0.0-57.0-1.0-1.0","669BECBF431D4E4D9DFDCCD88305D875","0199d5fd-cd9e-7906-bf95-3427b0c654f4","0199d5ef-c7d4-7cab-a194-b2c3afbaf8e8","","null","<div style=""display: flex; justify-content: center; align-items: center;"">
                     <img src=""images/semantic/semantic_series_1/semantic_series_1_e.png"" style=""width: 300px; height: 300px;"" />
                   </div>","null","1","2","E","",""
"","","","","","html-keyboard-response","71","430603","0.0-57.0-1.0-2.0","669BECBF431D4E4D9DFDCCD88305D875","0199d5fd-cd9e-7906-bf95-3427b0c654f4","0199d5ef-c7d4-7cab-a194-b2c3afbaf8e8","","null","<div style=""display: flex; justify-content: center; align-items: center;"">
                     <img src=""images/semantic/semantic_series_1/semantic_series_1_f.png"" style=""width: 300px; height: 300px;"" />
                   </div>","null","1","2","F","",""
"","","","","","survey-likert","72","434602","0.0-58.0","669BECBF431D4E4D9DFDCCD88305D875","0199d5fd-cd9e-7906-bf95-3427b0c654f4","0199d5ef-c7d4-7cab-a194-b2c3afbaf8e8","","3998","","{""Q0"":3}","1","2","surprise_rating","","[0]"
"","","","","","survey-likert","73","435819","0.0-59.0","669BECBF431D4E4D9DFDCCD88305D875","0199d5fd-cd9e-7906-bf95-3427b0c654f4","0199d5ef-c7d4-7cab-a194-b2c3afbaf8e8","","1216","","{""Q0"":1}","1","2","enjoyment_rating","","[0]"
"","","","","","html-keyboard-response","74","441826","0.0-60.0","669BECBF431D4E4D9DFDCCD88305D875","0199d5fd-cd9e-7906-bf95-3427b0c654f4","0199d5ef-c7d4-7cab-a194-b2c3afbaf8e8","","null","<div style=""display: flex; justify-content: center; align-items: center;"">
                     <img src=""images/other/blank.png"" style=""width: 300px; height: 300px;"" />
                   </div>","null","0","0","blank","",""
"","","","","","html-keyboard-response","75","447841","0.0-61.0","669BECBF431D4E4D9DFDCCD88305D875","0199d5fd-cd9e-7906-bf95-3427b0c654f4","0199d5ef-c7d4-7cab-a194-b2c3afbaf8e8","","null","<div style=""display: flex; justify-content: center; align-items: center;"">
                     <img src=""images/causal/causal_series_1/causal_series_1_a.png"" style=""width: 300px; height: 300px;"" />
                   </div>","null","1","1","A","",""
"","","","","","html-keyboard-response","76","453846","0.0-62.0","669BECBF431D4E4D9DFDCCD88305D875","0199d5fd-cd9e-7906-bf95-3427b0c654f4","0199d5ef-c7d4-7cab-a194-b2c3afbaf8e8","","null","<div style=""display: flex; justify-content: center; align-items: center;"">
                     <img src=""images/causal/causal_series_1/causal_series_1_b.png"" style=""width: 300px; height: 300px;"" />
                   </div>","null","1","1","B","",""
"","","","","","html-keyboard-response","77","459847","0.0-63.0","669BECBF431D4E4D9DFDCCD88305D875","0199d5fd-cd9e-7906-bf95-3427b0c654f4","0199d5ef-c7d4-7cab-a194-b2c3afbaf8e8","","null","<div style=""display: flex; justify-content: center; align-items: center;"">
                     <img src=""images/causal/causal_series_1/causal_series_1_c.png"" style=""width: 300px; height: 300px;"" />
                   </div>","null","1","1","C","",""
"","","","","","html-button-response","78","460683","0.0-64.0","669BECBF431D4E4D9DFDCCD88305D875","0199d5fd-cd9e-7906-bf95-3427b0c654f4","0199d5ef-c7d4-7cab-a194-b2c3afbaf8e8","","835","
        <div style=""display: flex; justify-content: center; align-items: center;"">
          <img src=""images/red_deck_2.png"" style=""width: 300px; height: 300px; margin-right: 10px;"" />
          <img src=""images/blue_deck_1.png"" style=""width: 300px; height: 300px;"" />
        </div>","0","1","1","choice","0",""
"","","","","","html-keyboard-response","79","466686","0.0-65.0-0.0-0.0","669BECBF431D4E4D9DFDCCD88305D875","0199d5fd-cd9e-7906-bf95-3427b0c654f4","0199d5ef-c7d4-7cab-a194-b2c3afbaf8e8","","null","<div style=""display: flex; justify-content: center; align-items: center;"">
                     <img src=""images/causal/causal_series_1/causal_series_1_d.png"" style=""width: 300px; height: 300px;"" />
                   </div>","null","1","1","D","",""
"","","","","","html-keyboard-response","80","472696","0.0-65.0-0.0-1.0","669BECBF431D4E4D9DFDCCD88305D875","0199d5fd-cd9e-7906-bf95-3427b0c654f4","0199d5ef-c7d4-7cab-a194-b2c3afbaf8e8","","null","<div style=""display: flex; justify-content: center; align-items: center;"">
                     <img src=""images/causal/causal_series_1/causal_series_1_e.png"" style=""width: 300px; height: 300px;"" />
                   </div>","null","1","1","E","",""
"","","","","","html-keyboard-response","81","478710","0.0-65.0-0.0-2.0","669BECBF431D4E4D9DFDCCD88305D875","0199d5fd-cd9e-7906-bf95-3427b0c654f4","0199d5ef-c7d4-7cab-a194-b2c3afbaf8e8","","null","<div style=""display: flex; justify-content: center; align-items: center;"">
                     <img src=""images/causal/causal_series_1/causal_series_1_f.png"" style=""width: 300px; height: 300px;"" />
                   </div>","null","1","1","F","",""
"","","","","","survey-likert","82","480226","0.0-66.0","669BECBF431D4E4D9DFDCCD88305D875","0199d5fd-cd9e-7906-bf95-3427b0c654f4","0199d5ef-c7d4-7cab-a194-b2c3afbaf8e8","","1516","","{""Q0"":2}","1","1","surprise_rating","","[0]"
"","","","","","survey-likert","83","481451","0.0-67.0","669BECBF431D4E4D9DFDCCD88305D875","0199d5fd-cd9e-7906-bf95-3427b0c654f4","0199d5ef-c7d4-7cab-a194-b2c3afbaf8e8","","1224","","{""Q0"":0}","1","1","enjoyment_rating","","[0]"
"","","","","","html-keyboard-response","84","487464","0.0-68.0","669BECBF431D4E4D9DFDCCD88305D875","0199d5fd-cd9e-7906-bf95-3427b0c654f4","0199d5ef-c7d4-7cab-a194-b2c3afbaf8e8","","null","<div style=""display: flex; justify-content: center; align-items: center;"">
                     <img src=""images/other/blank.png"" style=""width: 300px; height: 300px;"" />
                   </div>","null","0","0","blank","",""
"","","","","","html-keyboard-response","85","493473","0.0-69.0","669BECBF431D4E4D9DFDCCD88305D875","0199d5fd-cd9e-7906-bf95-3427b0c654f4","0199d5ef-c7d4-7cab-a194-b2c3afbaf8e8","","null","<div style=""display: flex; justify-content: center; align-items: center;"">
                     <img src=""images/causal/causal_series_10/causal_series_10_a.png"" style=""width: 300px; height: 300px;"" />
                   </div>","null","10","1","A","",""
"","","","","","html-keyboard-response","86","499478","0.0-70.0","669BECBF431D4E4D9DFDCCD88305D875","0199d5fd-cd9e-7906-bf95-3427b0c654f4","0199d5ef-c7d4-7cab-a194-b2c3afbaf8e8","","null","<div style=""display: flex; justify-content: center; align-items: center;"">
                     <img src=""images/causal/causal_series_10/causal_series_10_b.png"" style=""width: 300px; height: 300px;"" />
                   </div>","null","10","1","B","",""
"","","","","","html-keyboard-response","87","505486","0.0-71.0","669BECBF431D4E4D9DFDCCD88305D875","0199d5fd-cd9e-7906-bf95-3427b0c654f4","0199d5ef-c7d4-7cab-a194-b2c3afbaf8e8","","null","<div style=""display: flex; justify-content: center; align-items: center;"">
                     <img src=""images/causal/causal_series_10/causal_series_10_c.png"" style=""width: 300px; height: 300px;"" />
                   </div>","null","10","1","C","",""
"","","","","","html-button-response","88","513507","0.0-72.0","669BECBF431D4E4D9DFDCCD88305D875","0199d5fd-cd9e-7906-bf95-3427b0c654f4","0199d5ef-c7d4-7cab-a194-b2c3afbaf8e8","","8020","
        <div style=""display: flex; justify-content: center; align-items: center;"">
          <img src=""images/red_deck_2.png"" style=""width: 300px; height: 300px; margin-right: 10px;"" />
          <img src=""images/blue_deck_1.png"" style=""width: 300px; height: 300px;"" />
        </div>","0","10","1","choice","0",""
"","","","","","html-keyboard-response","89","519521","0.0-73.0-0.0-0.0","669BECBF431D4E4D9DFDCCD88305D875","0199d5fd-cd9e-7906-bf95-3427b0c654f4","0199d5ef-c7d4-7cab-a194-b2c3afbaf8e8","","null","<div style=""display: flex; justify-content: center; align-items: center;"">
                     <img src=""images/causal/causal_series_10/causal_series_10_d.png"" style=""width: 300px; height: 300px;"" />
                   </div>","null","10","1","D","",""
"","","","","","html-keyboard-response","90","525536","0.0-73.0-0.0-1.0","669BECBF431D4E4D9DFDCCD88305D875","0199d5fd-cd9e-7906-bf95-3427b0c654f4","0199d5ef-c7d4-7cab-a194-b2c3afbaf8e8","","null","<div style=""display: flex; justify-content: center; align-items: center;"">
                     <img src=""images/causal/causal_series_10/causal_series_10_e.png"" style=""width: 300px; height: 300px;"" />
                   </div>","null","10","1","E","",""
"","","","","","html-keyboard-response","91","531539","0.0-73.0-0.0-2.0","669BECBF431D4E4D9DFDCCD88305D875","0199d5fd-cd9e-7906-bf95-3427b0c654f4","0199d5ef-c7d4-7cab-a194-b2c3afbaf8e8","","null","<div style=""display: flex; justify-content: center; align-items: center;"">
                     <img src=""images/causal/causal_series_10/causal_series_10_f.png"" style=""width: 300px; height: 300px;"" />
                   </div>","null","10","1","F","",""
"","","","","","survey-likert","92","537515","0.0-74.0","669BECBF431D4E4D9DFDCCD88305D875","0199d5fd-cd9e-7906-bf95-3427b0c654f4","0199d5ef-c7d4-7cab-a194-b2c3afbaf8e8","","5975","","{""Q0"":3}","10","1","surprise_rating","","[0]"
"","","","","","survey-likert","93","538635","0.0-75.0","669BECBF431D4E4D9DFDCCD88305D875","0199d5fd-cd9e-7906-bf95-3427b0c654f4","0199d5ef-c7d4-7cab-a194-b2c3afbaf8e8","","1120","","{""Q0"":2}","10","1","enjoyment_rating","","[0]"
"","","","","","html-keyboard-response","94","544640","0.0-76.0","669BECBF431D4E4D9DFDCCD88305D875","0199d5fd-cd9e-7906-bf95-3427b0c654f4","0199d5ef-c7d4-7cab-a194-b2c3afbaf8e8","","null","<div style=""display: flex; justify-content: center; align-items: center;"">
                     <img src=""images/other/blank.png"" style=""width: 300px; height: 300px;"" />
                   </div>","null","0","0","blank","",""
"","","","","","html-keyboard-response","95","550653","0.0-77.0","669BECBF431D4E4D9DFDCCD88305D875","0199d5fd-cd9e-7906-bf95-3427b0c654f4","0199d5ef-c7d4-7cab-a194-b2c3afbaf8e8","","null","<div style=""display: flex; justify-content: center; align-items: center;"">
                     <img src=""images/causal/causal_series_6/causal_series_6_a.png"" style=""width: 300px; height: 300px;"" />
                   </div>","null","6","1","A","",""
"","","","","","html-keyboard-response","96","556666","0.0-78.0","669BECBF431D4E4D9DFDCCD88305D875","0199d5fd-cd9e-7906-bf95-3427b0c654f4","0199d5ef-c7d4-7cab-a194-b2c3afbaf8e8","","null","<div style=""display: flex; justify-content: center; align-items: center;"">
                     <img src=""images/causal/causal_series_6/causal_series_6_b.png"" style=""width: 300px; height: 300px;"" />
                   </div>","null","6","1","B","",""
"","","","","","html-keyboard-response","97","562669","0.0-79.0","669BECBF431D4E4D9DFDCCD88305D875","0199d5fd-cd9e-7906-bf95-3427b0c654f4","0199d5ef-c7d4-7cab-a194-b2c3afbaf8e8","","null","<div style=""display: flex; justify-content: center; align-items: center;"">
                     <img src=""images/causal/causal_series_6/causal_series_6_c.png"" style=""width: 300px; height: 300px;"" />
                   </div>","null","6","1","C","",""
"","","","","","html-button-response","98","564019","0.0-80.0","669BECBF431D4E4D9DFDCCD88305D875","0199d5fd-cd9e-7906-bf95-3427b0c654f4","0199d5ef-c7d4-7cab-a194-b2c3afbaf8e8","","1349","
        <div style=""display: flex; justify-content: center; align-items: center;"">
          <img src=""images/red_deck_2.png"" style=""width: 300px; height: 300px; margin-right: 10px;"" />
          <img src=""images/blue_deck_1.png"" style=""width: 300px; height: 300px;"" />
        </div>","0","6","1","choice","0",""
"","","","","","html-keyboard-response","99","570029","0.0-81.0-0.0-0.0","669BECBF431D4E4D9DFDCCD88305D875","0199d5fd-cd9e-7906-bf95-3427b0c654f4","0199d5ef-c7d4-7cab-a194-b2c3afbaf8e8","","null","<div style=""display: flex; justify-content: center; align-items: center;"">
                     <img src=""images/causal/causal_series_6/causal_series_6_d.png"" style=""width: 300px; height: 300px;"" />
                   </div>","null","6","1","D","",""
"","","","","","html-keyboard-response","100","576037","0.0-81.0-0.0-1.0","669BECBF431D4E4D9DFDCCD88305D875","0199d5fd-cd9e-7906-bf95-3427b0c654f4","0199d5ef-c7d4-7cab-a194-b2c3afbaf8e8","","null","<div style=""display: flex; justify-content: center; align-items: center;"">
                     <img src=""images/causal/causal_series_6/causal_series_6_e.png"" style=""width: 300px; height: 300px;"" />
                   </div>","null","6","1","E","",""
"","","","","","html-keyboard-response","101","582046","0.0-81.0-0.0-2.0","669BECBF431D4E4D9DFDCCD88305D875","0199d5fd-cd9e-7906-bf95-3427b0c654f4","0199d5ef-c7d4-7cab-a194-b2c3afbaf8e8","","null","<div style=""display: flex; justify-content: center; align-items: center;"">
                     <img src=""images/causal/causal_series_6/causal_series_6_f.png"" style=""width: 300px; height: 300px;"" />
                   </div>","null","6","1","F","",""
"","","","","","survey-likert","102","583851","0.0-82.0","669BECBF431D4E4D9DFDCCD88305D875","0199d5fd-cd9e-7906-bf95-3427b0c654f4","0199d5ef-c7d4-7cab-a194-b2c3afbaf8e8","","1805","","{""Q0"":1}","6","1","surprise_rating","","[0]"
"","","","","","survey-likert","103","585507","0.0-83.0","669BECBF431D4E4D9DFDCCD88305D875","0199d5fd-cd9e-7906-bf95-3427b0c654f4","0199d5ef-c7d4-7cab-a194-b2c3afbaf8e8","","1656","","{""Q0"":1}","6","1","enjoyment_rating","","[0]"
"","","","","","html-keyboard-response","104","591520","0.0-84.0","669BECBF431D4E4D9DFDCCD88305D875","0199d5fd-cd9e-7906-bf95-3427b0c654f4","0199d5ef-c7d4-7cab-a194-b2c3afbaf8e8","","null","<div style=""display: flex; justify-content: center; align-items: center;"">
                     <img src=""images/other/blank.png"" style=""width: 300px; height: 300px;"" />
                   </div>","null","0","0","blank","",""
"","","","","","html-keyboard-response","105","597526","0.0-85.0","669BECBF431D4E4D9DFDCCD88305D875","0199d5fd-cd9e-7906-bf95-3427b0c654f4","0199d5ef-c7d4-7cab-a194-b2c3afbaf8e8","","null","<div style=""display: flex; justify-content: center; align-items: center;"">
                     <img src=""images/causal/causal_series_10/causal_series_10_a.png"" style=""width: 300px; height: 300px;"" />
                   </div>","null","10","2","A","",""
"","","","","","html-keyboard-response","106","603528","0.0-86.0","669BECBF431D4E4D9DFDCCD88305D875","0199d5fd-cd9e-7906-bf95-3427b0c654f4","0199d5ef-c7d4-7cab-a194-b2c3afbaf8e8","","null","<div style=""display: flex; justify-content: center; align-items: center;"">
                     <img src=""images/causal/causal_series_10/causal_series_10_b.png"" style=""width: 300px; height: 300px;"" />
                   </div>","null","10","2","B","",""
"","","","","","html-keyboard-response","107","609545","0.0-87.0","669BECBF431D4E4D9DFDCCD88305D875","0199d5fd-cd9e-7906-bf95-3427b0c654f4","0199d5ef-c7d4-7cab-a194-b2c3afbaf8e8","","null","<div style=""display: flex; justify-content: center; align-items: center;"">
                     <img src=""images/causal/causal_series_10/causal_series_10_c.png"" style=""width: 300px; height: 300px;"" />
                   </div>","null","10","2","C","",""
"","","","","","html-button-response","108","610170","0.0-88.0","669BECBF431D4E4D9DFDCCD88305D875","0199d5fd-cd9e-7906-bf95-3427b0c654f4","0199d5ef-c7d4-7cab-a194-b2c3afbaf8e8","","624","
        <div style=""display: flex; justify-content: center; align-items: center;"">
          <img src=""images/red_deck_2.png"" style=""width: 300px; height: 300px; margin-right: 10px;"" />
          <img src=""images/blue_deck_1.png"" style=""width: 300px; height: 300px;"" />
        </div>","0","10","2","choice","0",""
"","","","","","html-keyboard-response","109","616184","0.0-89.0-0.0-0.0","669BECBF431D4E4D9DFDCCD88305D875","0199d5fd-cd9e-7906-bf95-3427b0c654f4","0199d5ef-c7d4-7cab-a194-b2c3afbaf8e8","","null","<div style=""display: flex; justify-content: center; align-items: center;"">
                     <img src=""images/causal/causal_series_10/causal_series_10_d.png"" style=""width: 300px; height: 300px;"" />
                   </div>","null","10","2","D","",""
"","","","","","html-keyboard-response","110","622197","0.0-89.0-0.0-1.0","669BECBF431D4E4D9DFDCCD88305D875","0199d5fd-cd9e-7906-bf95-3427b0c654f4","0199d5ef-c7d4-7cab-a194-b2c3afbaf8e8","","null","<div style=""display: flex; justify-content: center; align-items: center;"">
                     <img src=""images/causal/causal_series_10/causal_series_10_e.png"" style=""width: 300px; height: 300px;"" />
                   </div>","null","10","2","E","",""
"","","","","","html-keyboard-response","111","628204","0.0-89.0-0.0-2.0","669BECBF431D4E4D9DFDCCD88305D875","0199d5fd-cd9e-7906-bf95-3427b0c654f4","0199d5ef-c7d4-7cab-a194-b2c3afbaf8e8","","null","<div style=""display: flex; justify-content: center; align-items: center;"">
                     <img src=""images/causal/causal_series_10/causal_series_10_f.png"" style=""width: 300px; height: 300px;"" />
                   </div>","null","10","2","F","",""
"","","","","","survey-likert","112","629403","0.0-90.0","669BECBF431D4E4D9DFDCCD88305D875","0199d5fd-cd9e-7906-bf95-3427b0c654f4","0199d5ef-c7d4-7cab-a194-b2c3afbaf8e8","","1198","","{""Q0"":2}","10","2","surprise_rating","","[0]"
"","","","","","survey-likert","113","630803","0.0-91.0","669BECBF431D4E4D9DFDCCD88305D875","0199d5fd-cd9e-7906-bf95-3427b0c654f4","0199d5ef-c7d4-7cab-a194-b2c3afbaf8e8","","1400","","{""Q0"":0}","10","2","enjoyment_rating","","[0]"
"","","","","","html-keyboard-response","114","636808","0.0-92.0","669BECBF431D4E4D9DFDCCD88305D875","0199d5fd-cd9e-7906-bf95-3427b0c654f4","0199d5ef-c7d4-7cab-a194-b2c3afbaf8e8","","null","<div style=""display: flex; justify-content: center; align-items: center;"">
                     <img src=""images/other/blank.png"" style=""width: 300px; height: 300px;"" />
                   </div>","null","0","0","blank","",""
"","","","","","html-keyboard-response","115","642812","0.0-93.0","669BECBF431D4E4D9DFDCCD88305D875","0199d5fd-cd9e-7906-bf95-3427b0c654f4","0199d5ef-c7d4-7cab-a194-b2c3afbaf8e8","","null","<div style=""display: flex; justify-content: center; align-items: center;"">
                     <img src=""images/causal/causal_series_3/causal_series_3_a.png"" style=""width: 300px; height: 300px;"" />
                   </div>","null","3","1","A","",""
"","","","","","html-keyboard-response","116","648819","0.0-94.0","669BECBF431D4E4D9DFDCCD88305D875","0199d5fd-cd9e-7906-bf95-3427b0c654f4","0199d5ef-c7d4-7cab-a194-b2c3afbaf8e8","","null","<div style=""display: flex; justify-content: center; align-items: center;"">
                     <img src=""images/causal/causal_series_3/causal_series_3_b.png"" style=""width: 300px; height: 300px;"" />
                   </div>","null","3","1","B","",""
"","","","","","html-keyboard-response","117","654835","0.0-95.0","669BECBF431D4E4D9DFDCCD88305D875","0199d5fd-cd9e-7906-bf95-3427b0c654f4","0199d5ef-c7d4-7cab-a194-b2c3afbaf8e8","","null","<div style=""display: flex; justify-content: center; align-items: center;"">
                     <img src=""images/causal/causal_series_3/causal_series_3_c.png"" style=""width: 300px; height: 300px;"" />
                   </div>","null","3","1","C","",""
"","","","","","html-button-response","118","655710","0.0-96.0","669BECBF431D4E4D9DFDCCD88305D875","0199d5fd-cd9e-7906-bf95-3427b0c654f4","0199d5ef-c7d4-7cab-a194-b2c3afbaf8e8","","875","
        <div style=""display: flex; justify-content: center; align-items: center;"">
          <img src=""images/red_deck_2.png"" style=""width: 300px; height: 300px; margin-right: 10px;"" />
          <img src=""images/blue_deck_1.png"" style=""width: 300px; height: 300px;"" />
        </div>","1","3","1","choice","1",""
"","","","","","html-keyboard-response","119","661720","0.0-97.0-1.0-0.0","669BECBF431D4E4D9DFDCCD88305D875","0199d5fd-cd9e-7906-bf95-3427b0c654f4","0199d5ef-c7d4-7cab-a194-b2c3afbaf8e8","","null","<div style=""display: flex; justify-content: center; align-items: center;"">
                     <img src=""images/semantic/semantic_series_3/semantic_series_3_d.png"" style=""width: 300px; height: 300px;"" />
                   </div>","null","3","1","D","",""
"","","","","","html-keyboard-response","120","667735","0.0-97.0-1.0-1.0","669BECBF431D4E4D9DFDCCD88305D875","0199d5fd-cd9e-7906-bf95-3427b0c654f4","0199d5ef-c7d4-7cab-a194-b2c3afbaf8e8","","null","<div style=""display: flex; justify-content: center; align-items: center;"">
                     <img src=""images/semantic/semantic_series_3/semantic_series_3_e.png"" style=""width: 300px; height: 300px;"" />
                   </div>","null","3","1","E","",""
"","","","","","html-keyboard-response","121","673737","0.0-97.0-1.0-2.0","669BECBF431D4E4D9DFDCCD88305D875","0199d5fd-cd9e-7906-bf95-3427b0c654f4","0199d5ef-c7d4-7cab-a194-b2c3afbaf8e8","","null","<div style=""display: flex; justify-content: center; align-items: center;"">
                     <img src=""images/semantic/semantic_series_3/semantic_series_3_f.png"" style=""width: 300px; height: 300px;"" />
                   </div>","null","3","1","F","",""
"","","","","","survey-likert","122","674915","0.0-98.0","669BECBF431D4E4D9DFDCCD88305D875","0199d5fd-cd9e-7906-bf95-3427b0c654f4","0199d5ef-c7d4-7cab-a194-b2c3afbaf8e8","","1177","","{""Q0"":4}","3","1","surprise_rating","","[0]"
"","","","","","survey-likert","123","676147","0.0-99.0","669BECBF431D4E4D9DFDCCD88305D875","0199d5fd-cd9e-7906-bf95-3427b0c654f4","0199d5ef-c7d4-7cab-a194-b2c3afbaf8e8","","1232","","{""Q0"":0}","3","1","enjoyment_rating","","[0]"
"","","","","","html-keyboard-response","124","682158","0.0-100.0","669BECBF431D4E4D9DFDCCD88305D875","0199d5fd-cd9e-7906-bf95-3427b0c654f4","0199d5ef-c7d4-7cab-a194-b2c3afbaf8e8","","null","<div style=""display: flex; justify-content: center; align-items: center;"">
                     <img src=""images/other/blank.png"" style=""width: 300px; height: 300px;"" />
                   </div>","null","0","0","blank","",""
"","","","","","html-keyboard-response","125","688171","0.0-101.0","669BECBF431D4E4D9DFDCCD88305D875","0199d5fd-cd9e-7906-bf95-3427b0c654f4","0199d5ef-c7d4-7cab-a194-b2c3afbaf8e8","","null","<div style=""display: flex; justify-content: center; align-items: center;"">
                     <img src=""images/causal/causal_series_5/causal_series_5_a.png"" style=""width: 300px; height: 300px;"" />
                   </div>","null","5","2","A","",""
"","","","","","html-keyboard-response","126","694177","0.0-102.0","669BECBF431D4E4D9DFDCCD88305D875","0199d5fd-cd9e-7906-bf95-3427b0c654f4","0199d5ef-c7d4-7cab-a194-b2c3afbaf8e8","","null","<div style=""display: flex; justify-content: center; align-items: center;"">
                     <img src=""images/causal/causal_series_5/causal_series_5_b.png"" style=""width: 300px; height: 300px;"" />
                   </div>","null","5","2","B","",""
"","","","","","html-keyboard-response","127","700186","0.0-103.0","669BECBF431D4E4D9DFDCCD88305D875","0199d5fd-cd9e-7906-bf95-3427b0c654f4","0199d5ef-c7d4-7cab-a194-b2c3afbaf8e8","","null","<div style=""display: flex; justify-content: center; align-items: center;"">
                     <img src=""images/causal/causal_series_5/causal_series_5_c.png"" style=""width: 300px; height: 300px;"" />
                   </div>","null","5","2","C","",""
"","","","","","html-button-response","128","701243","0.0-104.0","669BECBF431D4E4D9DFDCCD88305D875","0199d5fd-cd9e-7906-bf95-3427b0c654f4","0199d5ef-c7d4-7cab-a194-b2c3afbaf8e8","","1056","
        <div style=""display: flex; justify-content: center; align-items: center;"">
          <img src=""images/red_deck_2.png"" style=""width: 300px; height: 300px; margin-right: 10px;"" />
          <img src=""images/blue_deck_1.png"" style=""width: 300px; height: 300px;"" />
        </div>","0","5","2","choice","0",""
"","","","","","html-keyboard-response","129","707247","0.0-105.0-0.0-0.0","669BECBF431D4E4D9DFDCCD88305D875","0199d5fd-cd9e-7906-bf95-3427b0c654f4","0199d5ef-c7d4-7cab-a194-b2c3afbaf8e8","","null","<div style=""display: flex; justify-content: center; align-items: center;"">
                     <img src=""images/causal/causal_series_5/causal_series_5_d.png"" style=""width: 300px; height: 300px;"" />
                   </div>","null","5","2","D","",""
"","","","","","html-keyboard-response","130","713271","0.0-105.0-0.0-1.0","669BECBF431D4E4D9DFDCCD88305D875","0199d5fd-cd9e-7906-bf95-3427b0c654f4","0199d5ef-c7d4-7cab-a194-b2c3afbaf8e8","","null","<div style=""display: flex; justify-content: center; align-items: center;"">
                     <img src=""images/causal/causal_series_5/causal_series_5_e.png"" style=""width: 300px; height: 300px;"" />
                   </div>","null","5","2","E","",""
"","","","","","html-keyboard-response","131","719278","0.0-105.0-0.0-2.0","669BECBF431D4E4D9DFDCCD88305D875","0199d5fd-cd9e-7906-bf95-3427b0c654f4","0199d5ef-c7d4-7cab-a194-b2c3afbaf8e8","","null","<div style=""display: flex; justify-content: center; align-items: center;"">
                     <img src=""images/causal/causal_series_5/causal_series_5_f.png"" style=""width: 300px; height: 300px;"" />
                   </div>","null","5","2","F","",""
"","","","","","survey-likert","132","722659","0.0-106.0","669BECBF431D4E4D9DFDCCD88305D875","0199d5fd-cd9e-7906-bf95-3427b0c654f4","0199d5ef-c7d4-7cab-a194-b2c3afbaf8e8","","3381","","{""Q0"":3}","5","2","surprise_rating","","[0]"
"","","","","","survey-likert","133","724387","0.0-107.0","669BECBF431D4E4D9DFDCCD88305D875","0199d5fd-cd9e-7906-bf95-3427b0c654f4","0199d5ef-c7d4-7cab-a194-b2c3afbaf8e8","","1728","","{""Q0"":0}","5","2","enjoyment_rating","","[0]"
"","","","","","html-keyboard-response","134","730403","0.0-108.0","669BECBF431D4E4D9DFDCCD88305D875","0199d5fd-cd9e-7906-bf95-3427b0c654f4","0199d5ef-c7d4-7cab-a194-b2c3afbaf8e8","","null","<div style=""display: flex; justify-content: center; align-items: center;"">
                     <img src=""images/other/blank.png"" style=""width: 300px; height: 300px;"" />
                   </div>","null","0","0","blank","",""
"","","","","","html-keyboard-response","135","736411","0.0-109.0","669BECBF431D4E4D9DFDCCD88305D875","0199d5fd-cd9e-7906-bf95-3427b0c654f4","0199d5ef-c7d4-7cab-a194-b2c3afbaf8e8","","null","<div style=""display: flex; justify-content: center; align-items: center;"">
                     <img src=""images/causal/causal_series_9/causal_series_9_a.png"" style=""width: 300px; height: 300px;"" />
                   </div>","null","9","2","A","",""
"","","","","","html-keyboard-response","136","742421","0.0-110.0","669BECBF431D4E4D9DFDCCD88305D875","0199d5fd-cd9e-7906-bf95-3427b0c654f4","0199d5ef-c7d4-7cab-a194-b2c3afbaf8e8","","null","<div style=""display: flex; justify-content: center; align-items: center;"">
                     <img src=""images/causal/causal_series_9/causal_series_9_b.png"" style=""width: 300px; height: 300px;"" />
                   </div>","null","9","2","B","",""
"","","","","","html-keyboard-response","137","748433","0.0-111.0","669BECBF431D4E4D9DFDCCD88305D875","0199d5fd-cd9e-7906-bf95-3427b0c654f4","0199d5ef-c7d4-7cab-a194-b2c3afbaf8e8","","null","<div style=""display: flex; justify-content: center; align-items: center;"">
                     <img src=""images/causal/causal_series_9/causal_series_9_c.png"" style=""width: 300px; height: 300px;"" />
                   </div>","null","9","2","C","",""
"","","","","","html-button-response","138","859196","0.0-112.0","669BECBF431D4E4D9DFDCCD88305D875","0199d5fd-cd9e-7906-bf95-3427b0c654f4","0199d5ef-c7d4-7cab-a194-b2c3afbaf8e8","","110762","
        <div style=""display: flex; justify-content: center; align-items: center;"">
          <img src=""images/red_deck_2.png"" style=""width: 300px; height: 300px; margin-right: 10px;"" />
          <img src=""images/blue_deck_1.png"" style=""width: 300px; height: 300px;"" />
        </div>","0","9","2","choice","0",""
"","","","","","html-keyboard-response","139","865204","0.0-113.0-0.0-0.0","669BECBF431D4E4D9DFDCCD88305D875","0199d5fd-cd9e-7906-bf95-3427b0c654f4","0199d5ef-c7d4-7cab-a194-b2c3afbaf8e8","","null","<div style=""display: flex; justify-content: center; align-items: center;"">
                     <img src=""images/causal/causal_series_9/causal_series_9_d.png"" style=""width: 300px; height: 300px;"" />
                   </div>","null","9","2","D","",""
"","","","","","html-keyboard-response","140","871218","0.0-113.0-0.0-1.0","669BECBF431D4E4D9DFDCCD88305D875","0199d5fd-cd9e-7906-bf95-3427b0c654f4","0199d5ef-c7d4-7cab-a194-b2c3afbaf8e8","","null","<div style=""display: flex; justify-content: center; align-items: center;"">
                     <img src=""images/causal/causal_series_9/causal_series_9_e.png"" style=""width: 300px; height: 300px;"" />
                   </div>","null","9","2","E","",""
"","","","","","html-keyboard-response","141","877220","0.0-113.0-0.0-2.0","669BECBF431D4E4D9DFDCCD88305D875","0199d5fd-cd9e-7906-bf95-3427b0c654f4","0199d5ef-c7d4-7cab-a194-b2c3afbaf8e8","","null","<div style=""display: flex; justify-content: center; align-items: center;"">
                     <img src=""images/causal/causal_series_9/causal_series_9_f.png"" style=""width: 300px; height: 300px;"" />
                   </div>","null","9","2","F","",""
"","","","","","survey-likert","142","921308","0.0-114.0","669BECBF431D4E4D9DFDCCD88305D875","0199d5fd-cd9e-7906-bf95-3427b0c654f4","0199d5ef-c7d4-7cab-a194-b2c3afbaf8e8","","44088","","{""Q0"":2}","9","2","surprise_rating","","[0]"
"","","","","","survey-likert","143","925603","0.0-115.0","669BECBF431D4E4D9DFDCCD88305D875","0199d5fd-cd9e-7906-bf95-3427b0c654f4","0199d5ef-c7d4-7cab-a194-b2c3afbaf8e8","","4295","","{""Q0"":0}","9","2","enjoyment_rating","","[0]"
"","","","","","html-keyboard-response","144","931604","0.0-116.0","669BECBF431D4E4D9DFDCCD88305D875","0199d5fd-cd9e-7906-bf95-3427b0c654f4","0199d5ef-c7d4-7cab-a194-b2c3afbaf8e8","","null","<div style=""display: flex; justify-content: center; align-items: center;"">
                     <img src=""images/other/blank.png"" style=""width: 300px; height: 300px;"" />
                   </div>","null","0","0","blank","",""
"","","","","","html-keyboard-response","145","937611","0.0-117.0","669BECBF431D4E4D9DFDCCD88305D875","0199d5fd-cd9e-7906-bf95-3427b0c654f4","0199d5ef-c7d4-7cab-a194-b2c3afbaf8e8","","null","<div style=""display: flex; justify-content: center; align-items: center;"">
                     <img src=""images/causal/causal_series_7/causal_series_7_a.png"" style=""width: 300px; height: 300px;"" />
                   </div>","null","7","1","A","",""
"","","","","","html-keyboard-response","146","943615","0.0-118.0","669BECBF431D4E4D9DFDCCD88305D875","0199d5fd-cd9e-7906-bf95-3427b0c654f4","0199d5ef-c7d4-7cab-a194-b2c3afbaf8e8","","null","<div style=""display: flex; justify-content: center; align-items: center;"">
                     <img src=""images/causal/causal_series_7/causal_series_7_b.png"" style=""width: 300px; height: 300px;"" />
                   </div>","null","7","1","B","",""
"","","","","","html-keyboard-response","147","949626","0.0-119.0","669BECBF431D4E4D9DFDCCD88305D875","0199d5fd-cd9e-7906-bf95-3427b0c654f4","0199d5ef-c7d4-7cab-a194-b2c3afbaf8e8","","null","<div style=""display: flex; justify-content: center; align-items: center;"">
                     <img src=""images/causal/causal_series_7/causal_series_7_c.png"" style=""width: 300px; height: 300px;"" />
                   </div>","null","7","1","C","",""
"","","","","","html-button-response","148","951292","0.0-120.0","669BECBF431D4E4D9DFDCCD88305D875","0199d5fd-cd9e-7906-bf95-3427b0c654f4","0199d5ef-c7d4-7cab-a194-b2c3afbaf8e8","","1665","
        <div style=""display: flex; justify-content: center; align-items: center;"">
          <img src=""images/red_deck_2.png"" style=""width: 300px; height: 300px; margin-right: 10px;"" />
          <img src=""images/blue_deck_1.png"" style=""width: 300px; height: 300px;"" />
        </div>","0","7","1","choice","0",""
"","","","","","html-keyboard-response","149","957305","0.0-121.0-0.0-0.0","669BECBF431D4E4D9DFDCCD88305D875","0199d5fd-cd9e-7906-bf95-3427b0c654f4","0199d5ef-c7d4-7cab-a194-b2c3afbaf8e8","","null","<div style=""display: flex; justify-content: center; align-items: center;"">
                     <img src=""images/causal/causal_series_7/causal_series_7_d.png"" style=""width: 300px; height: 300px;"" />
                   </div>","null","7","1","D","",""
"","","","","","html-keyboard-response","150","963308","0.0-121.0-0.0-1.0","669BECBF431D4E4D9DFDCCD88305D875","0199d5fd-cd9e-7906-bf95-3427b0c654f4","0199d5ef-c7d4-7cab-a194-b2c3afbaf8e8","","null","<div style=""display: flex; justify-content: center; align-items: center;"">
                     <img src=""images/causal/causal_series_7/causal_series_7_e.png"" style=""width: 300px; height: 300px;"" />
                   </div>","null","7","1","E","",""
"","","","","","html-keyboard-response","151","969312","0.0-121.0-0.0-2.0","669BECBF431D4E4D9DFDCCD88305D875","0199d5fd-cd9e-7906-bf95-3427b0c654f4","0199d5ef-c7d4-7cab-a194-b2c3afbaf8e8","","null","<div style=""display: flex; justify-content: center; align-items: center;"">
                     <img src=""images/causal/causal_series_7/causal_series_7_f.png"" style=""width: 300px; height: 300px;"" />
                   </div>","null","7","1","F","",""
"","","","","","survey-likert","152","972580","0.0-122.0","669BECBF431D4E4D9DFDCCD88305D875","0199d5fd-cd9e-7906-bf95-3427b0c654f4","0199d5ef-c7d4-7cab-a194-b2c3afbaf8e8","","3267","","{""Q0"":3}","7","1","surprise_rating","","[0]"
"","","","","","survey-likert","153","974923","0.0-123.0","669BECBF431D4E4D9DFDCCD88305D875","0199d5fd-cd9e-7906-bf95-3427b0c654f4","0199d5ef-c7d4-7cab-a194-b2c3afbaf8e8","","2343","","{""Q0"":1}","7","1","enjoyment_rating","","[0]"
"","","","","","html-keyboard-response","154","980929","0.0-124.0","669BECBF431D4E4D9DFDCCD88305D875","0199d5fd-cd9e-7906-bf95-3427b0c654f4","0199d5ef-c7d4-7cab-a194-b2c3afbaf8e8","","null","<div style=""display: flex; justify-content: center; align-items: center;"">
                     <img src=""images/other/blank.png"" style=""width: 300px; height: 300px;"" />
                   </div>","null","0","0","blank","",""
"","","","","","html-keyboard-response","155","986933","0.0-125.0","669BECBF431D4E4D9DFDCCD88305D875","0199d5fd-cd9e-7906-bf95-3427b0c654f4","0199d5ef-c7d4-7cab-a194-b2c3afbaf8e8","","null","<div style=""display: flex; justify-content: center; align-items: center;"">
                     <img src=""images/causal/causal_series_5/causal_series_5_a.png"" style=""width: 300px; height: 300px;"" />
                   </div>","null","5","1","A","",""
"","","","","","html-keyboard-response","156","992936","0.0-126.0","669BECBF431D4E4D9DFDCCD88305D875","0199d5fd-cd9e-7906-bf95-3427b0c654f4","0199d5ef-c7d4-7cab-a194-b2c3afbaf8e8","","null","<div style=""display: flex; justify-content: center; align-items: center;"">
                     <img src=""images/causal/causal_series_5/causal_series_5_b.png"" style=""width: 300px; height: 300px;"" />
                   </div>","null","5","1","B","",""
"","","","","","html-keyboard-response","157","998938","0.0-127.0","669BECBF431D4E4D9DFDCCD88305D875","0199d5fd-cd9e-7906-bf95-3427b0c654f4","0199d5ef-c7d4-7cab-a194-b2c3afbaf8e8","","null","<div style=""display: flex; justify-content: center; align-items: center;"">
                     <img src=""images/causal/causal_series_5/causal_series_5_c.png"" style=""width: 300px; height: 300px;"" />
                   </div>","null","5","1","C","",""
"","","","","","html-button-response","158","1004916","0.0-128.0","669BECBF431D4E4D9DFDCCD88305D875","0199d5fd-cd9e-7906-bf95-3427b0c654f4","0199d5ef-c7d4-7cab-a194-b2c3afbaf8e8","","5977","
        <div style=""display: flex; justify-content: center; align-items: center;"">
          <img src=""images/red_deck_2.png"" style=""width: 300px; height: 300px; margin-right: 10px;"" />
          <img src=""images/blue_deck_1.png"" style=""width: 300px; height: 300px;"" />
        </div>","0","5","1","choice","0",""
"","","","","","html-keyboard-response","159","1010925","0.0-129.0-0.0-0.0","669BECBF431D4E4D9DFDCCD88305D875","0199d5fd-cd9e-7906-bf95-3427b0c654f4","0199d5ef-c7d4-7cab-a194-b2c3afbaf8e8","","null","<div style=""display: flex; justify-content: center; align-items: center;"">
                     <img src=""images/causal/causal_series_5/causal_series_5_d.png"" style=""width: 300px; height: 300px;"" />
                   </div>","null","5","1","D","",""
"","","","","","html-keyboard-response","160","1016938","0.0-129.0-0.0-1.0","669BECBF431D4E4D9DFDCCD88305D875","0199d5fd-cd9e-7906-bf95-3427b0c654f4","0199d5ef-c7d4-7cab-a194-b2c3afbaf8e8","","null","<div style=""display: flex; justify-content: center; align-items: center;"">
                     <img src=""images/causal/causal_series_5/causal_series_5_e.png"" style=""width: 300px; height: 300px;"" />
                   </div>","null","5","1","E","",""
"","","","","","html-keyboard-response","161","1022950","0.0-129.0-0.0-2.0","669BECBF431D4E4D9DFDCCD88305D875","0199d5fd-cd9e-7906-bf95-3427b0c654f4","0199d5ef-c7d4-7cab-a194-b2c3afbaf8e8","","null","<div style=""display: flex; justify-content: center; align-items: center;"">
                     <img src=""images/causal/causal_series_5/causal_series_5_f.png"" style=""width: 300px; height: 300px;"" />
                   </div>","null","5","1","F","",""
"","","","","","survey-likert","162","1031132","0.0-130.0","669BECBF431D4E4D9DFDCCD88305D875","0199d5fd-cd9e-7906-bf95-3427b0c654f4","0199d5ef-c7d4-7cab-a194-b2c3afbaf8e8","","8181","","{""Q0"":3}","5","1","surprise_rating","","[0]"
"","","","","","survey-likert","163","1033692","0.0-131.0","669BECBF431D4E4D9DFDCCD88305D875","0199d5fd-cd9e-7906-bf95-3427b0c654f4","0199d5ef-c7d4-7cab-a194-b2c3afbaf8e8","","2559","","{""Q0"":1}","5","1","enjoyment_rating","","[0]"
"","","","","","html-keyboard-response","164","1039695","0.0-132.0","669BECBF431D4E4D9DFDCCD88305D875","0199d5fd-cd9e-7906-bf95-3427b0c654f4","0199d5ef-c7d4-7cab-a194-b2c3afbaf8e8","","null","<div style=""display: flex; justify-content: center; align-items: center;"">
                     <img src=""images/other/blank.png"" style=""width: 300px; height: 300px;"" />
                   </div>","null","0","0","blank","",""
"","","","","","html-keyboard-response","165","1045699","0.0-133.0","669BECBF431D4E4D9DFDCCD88305D875","0199d5fd-cd9e-7906-bf95-3427b0c654f4","0199d5ef-c7d4-7cab-a194-b2c3afbaf8e8","","null","<div style=""display: flex; justify-content: center; align-items: center;"">
                     <img src=""images/causal/causal_series_9/causal_series_9_a.png"" style=""width: 300px; height: 300px;"" />
                   </div>","null","9","1","A","",""
"","","","","","html-keyboard-response","166","1051715","0.0-134.0","669BECBF431D4E4D9DFDCCD88305D875","0199d5fd-cd9e-7906-bf95-3427b0c654f4","0199d5ef-c7d4-7cab-a194-b2c3afbaf8e8","","null","<div style=""display: flex; justify-content: center; align-items: center;"">
                     <img src=""images/causal/causal_series_9/causal_series_9_b.png"" style=""width: 300px; height: 300px;"" />
                   </div>","null","9","1","B","",""
"","","","","","html-keyboard-response","167","1057720","0.0-135.0","669BECBF431D4E4D9DFDCCD88305D875","0199d5fd-cd9e-7906-bf95-3427b0c654f4","0199d5ef-c7d4-7cab-a194-b2c3afbaf8e8","","null","<div style=""display: flex; justify-content: center; align-items: center;"">
                     <img src=""images/causal/causal_series_9/causal_series_9_c.png"" style=""width: 300px; height: 300px;"" />
                   </div>","null","9","1","C","",""
"","","","","","html-button-response","168","1063676","0.0-136.0","669BECBF431D4E4D9DFDCCD88305D875","0199d5fd-cd9e-7906-bf95-3427b0c654f4","0199d5ef-c7d4-7cab-a194-b2c3afbaf8e8","","5956","
        <div style=""display: flex; justify-content: center; align-items: center;"">
          <img src=""images/red_deck_2.png"" style=""width: 300px; height: 300px; margin-right: 10px;"" />
          <img src=""images/blue_deck_1.png"" style=""width: 300px; height: 300px;"" />
        </div>","0","9","1","choice","0",""
"","","","","","html-keyboard-response","169","1069678","0.0-137.0-0.0-0.0","669BECBF431D4E4D9DFDCCD88305D875","0199d5fd-cd9e-7906-bf95-3427b0c654f4","0199d5ef-c7d4-7cab-a194-b2c3afbaf8e8","","null","<div style=""display: flex; justify-content: center; align-items: center;"">
                     <img src=""images/causal/causal_series_9/causal_series_9_d.png"" style=""width: 300px; height: 300px;"" />
                   </div>","null","9","1","D","",""
"","","","","","html-keyboard-response","170","1075688","0.0-137.0-0.0-1.0","669BECBF431D4E4D9DFDCCD88305D875","0199d5fd-cd9e-7906-bf95-3427b0c654f4","0199d5ef-c7d4-7cab-a194-b2c3afbaf8e8","","null","<div style=""display: flex; justify-content: center; align-items: center;"">
                     <img src=""images/causal/causal_series_9/causal_series_9_e.png"" style=""width: 300px; height: 300px;"" />
                   </div>","null","9","1","E","",""
"","","","","","html-keyboard-response","171","1081701","0.0-137.0-0.0-2.0","669BECBF431D4E4D9DFDCCD88305D875","0199d5fd-cd9e-7906-bf95-3427b0c654f4","0199d5ef-c7d4-7cab-a194-b2c3afbaf8e8","","null","<div style=""display: flex; justify-content: center; align-items: center;"">
                     <img src=""images/causal/causal_series_9/causal_series_9_f.png"" style=""width: 300px; height: 300px;"" />
                   </div>","null","9","1","F","",""
"","","","","","survey-likert","172","1094652","0.0-138.0","669BECBF431D4E4D9DFDCCD88305D875","0199d5fd-cd9e-7906-bf95-3427b0c654f4","0199d5ef-c7d4-7cab-a194-b2c3afbaf8e8","","12950","","{""Q0"":3}","9","1","surprise_rating","","[0]"
"","","","","","survey-likert","173","1096436","0.0-139.0","669BECBF431D4E4D9DFDCCD88305D875","0199d5fd-cd9e-7906-bf95-3427b0c654f4","0199d5ef-c7d4-7cab-a194-b2c3afbaf8e8","","1783","","{""Q0"":1}","9","1","enjoyment_rating","","[0]"
"","","","","","html-keyboard-response","174","1102437","0.0-140.0","669BECBF431D4E4D9DFDCCD88305D875","0199d5fd-cd9e-7906-bf95-3427b0c654f4","0199d5ef-c7d4-7cab-a194-b2c3afbaf8e8","","null","<div style=""display: flex; justify-content: center; align-items: center;"">
                     <img src=""images/other/blank.png"" style=""width: 300px; height: 300px;"" />
                   </div>","null","0","0","blank","",""
"","","","","","html-keyboard-response","175","1108454","0.0-141.0","669BECBF431D4E4D9DFDCCD88305D875","0199d5fd-cd9e-7906-bf95-3427b0c654f4","0199d5ef-c7d4-7cab-a194-b2c3afbaf8e8","","null","<div style=""display: flex; justify-content: center; align-items: center;"">
                     <img src=""images/causal/causal_series_8/causal_series_8_a.png"" style=""width: 300px; height: 300px;"" />
                   </div>","null","8","1","A","",""
"","","","","","html-keyboard-response","176","1114463","0.0-142.0","669BECBF431D4E4D9DFDCCD88305D875","0199d5fd-cd9e-7906-bf95-3427b0c654f4","0199d5ef-c7d4-7cab-a194-b2c3afbaf8e8","","null","<div style=""display: flex; justify-content: center; align-items: center;"">
                     <img src=""images/causal/causal_series_8/causal_series_8_b.png"" style=""width: 300px; height: 300px;"" />
                   </div>","null","8","1","B","",""
"","","","","","html-keyboard-response","177","1120470","0.0-143.0","669BECBF431D4E4D9DFDCCD88305D875","0199d5fd-cd9e-7906-bf95-3427b0c654f4","0199d5ef-c7d4-7cab-a194-b2c3afbaf8e8","","null","<div style=""display: flex; justify-content: center; align-items: center;"">
                     <img src=""images/causal/causal_series_8/causal_series_8_c.png"" style=""width: 300px; height: 300px;"" />
                   </div>","null","8","1","C","",""
"","","","","","html-button-response","178","1121917","0.0-144.0","669BECBF431D4E4D9DFDCCD88305D875","0199d5fd-cd9e-7906-bf95-3427b0c654f4","0199d5ef-c7d4-7cab-a194-b2c3afbaf8e8","","1446","
        <div style=""display: flex; justify-content: center; align-items: center;"">
          <img src=""images/red_deck_2.png"" style=""width: 300px; height: 300px; margin-right: 10px;"" />
          <img src=""images/blue_deck_1.png"" style=""width: 300px; height: 300px;"" />
        </div>","0","8","1","choice","0",""
"","","","","","html-keyboard-response","179","1127930","0.0-145.0-0.0-0.0","669BECBF431D4E4D9DFDCCD88305D875","0199d5fd-cd9e-7906-bf95-3427b0c654f4","0199d5ef-c7d4-7cab-a194-b2c3afbaf8e8","","null","<div style=""display: flex; justify-content: center; align-items: center;"">
                     <img src=""images/causal/causal_series_8/causal_series_8_d.png"" style=""width: 300px; height: 300px;"" />
                   </div>","null","8","1","D","",""
"","","","","","html-keyboard-response","180","1133945","0.0-145.0-0.0-1.0","669BECBF431D4E4D9DFDCCD88305D875","0199d5fd-cd9e-7906-bf95-3427b0c654f4","0199d5ef-c7d4-7cab-a194-b2c3afbaf8e8","","null","<div style=""display: flex; justify-content: center; align-items: center;"">
                     <img src=""images/causal/causal_series_8/causal_series_8_e.png"" style=""width: 300px; height: 300px;"" />
                   </div>","null","8","1","E","",""
"","","","","","html-keyboard-response","181","1139955","0.0-145.0-0.0-2.0","669BECBF431D4E4D9DFDCCD88305D875","0199d5fd-cd9e-7906-bf95-3427b0c654f4","0199d5ef-c7d4-7cab-a194-b2c3afbaf8e8","","null","<div style=""display: flex; justify-content: center; align-items: center;"">
                     <img src=""images/causal/causal_series_8/causal_series_8_f.png"" style=""width: 300px; height: 300px;"" />
                   </div>","null","8","1","F","",""
"","","","","","survey-likert","182","1145052","0.0-146.0","669BECBF431D4E4D9DFDCCD88305D875","0199d5fd-cd9e-7906-bf95-3427b0c654f4","0199d5ef-c7d4-7cab-a194-b2c3afbaf8e8","","5096","","{""Q0"":3}","8","1","surprise_rating","","[0]"
"","","","","","survey-likert","183","1146100","0.0-147.0","669BECBF431D4E4D9DFDCCD88305D875","0199d5fd-cd9e-7906-bf95-3427b0c654f4","0199d5ef-c7d4-7cab-a194-b2c3afbaf8e8","","1048","","{""Q0"":0}","8","1","enjoyment_rating","","[0]"
"","","","","","html-keyboard-response","184","1152110","0.0-148.0","669BECBF431D4E4D9DFDCCD88305D875","0199d5fd-cd9e-7906-bf95-3427b0c654f4","0199d5ef-c7d4-7cab-a194-b2c3afbaf8e8","","null","<div style=""display: flex; justify-content: center; align-items: center;"">
                     <img src=""images/other/blank.png"" style=""width: 300px; height: 300px;"" />
                   </div>","null","0","0","blank","",""
"","","","","","html-keyboard-response","185","1158120","0.0-149.0","669BECBF431D4E4D9DFDCCD88305D875","0199d5fd-cd9e-7906-bf95-3427b0c654f4","0199d5ef-c7d4-7cab-a194-b2c3afbaf8e8","","null","<div style=""display: flex; justify-content: center; align-items: center;"">
                     <img src=""images/causal/causal_series_4/causal_series_4_a.png"" style=""width: 300px; height: 300px;"" />
                   </div>","null","4","1","A","",""
"","","","","","html-keyboard-response","186","1164122","0.0-150.0","669BECBF431D4E4D9DFDCCD88305D875","0199d5fd-cd9e-7906-bf95-3427b0c654f4","0199d5ef-c7d4-7cab-a194-b2c3afbaf8e8","","null","<div style=""display: flex; justify-content: center; align-items: center;"">
                     <img src=""images/causal/causal_series_4/causal_series_4_b.png"" style=""width: 300px; height: 300px;"" />
                   </div>","null","4","1","B","",""
"","","","","","html-keyboard-response","187","1170136","0.0-151.0","669BECBF431D4E4D9DFDCCD88305D875","0199d5fd-cd9e-7906-bf95-3427b0c654f4","0199d5ef-c7d4-7cab-a194-b2c3afbaf8e8","","null","<div style=""display: flex; justify-content: center; align-items: center;"">
                     <img src=""images/causal/causal_series_4/causal_series_4_c.png"" style=""width: 300px; height: 300px;"" />
                   </div>","null","4","1","C","",""
"","","","","","html-button-response","188","1171381","0.0-152.0","669BECBF431D4E4D9DFDCCD88305D875","0199d5fd-cd9e-7906-bf95-3427b0c654f4","0199d5ef-c7d4-7cab-a194-b2c3afbaf8e8","","1245","
        <div style=""display: flex; justify-content: center; align-items: center;"">
          <img src=""images/red_deck_2.png"" style=""width: 300px; height: 300px; margin-right: 10px;"" />
          <img src=""images/blue_deck_1.png"" style=""width: 300px; height: 300px;"" />
        </div>","0","4","1","choice","0",""
"","","","","","html-keyboard-response","189","1177382","0.0-153.0-0.0-0.0","669BECBF431D4E4D9DFDCCD88305D875","0199d5fd-cd9e-7906-bf95-3427b0c654f4","0199d5ef-c7d4-7cab-a194-b2c3afbaf8e8","","null","<div style=""display: flex; justify-content: center; align-items: center;"">
                     <img src=""images/causal/causal_series_4/causal_series_4_d.png"" style=""width: 300px; height: 300px;"" />
                   </div>","null","4","1","D","",""
"","","","","","html-keyboard-response","190","1183393","0.0-153.0-0.0-1.0","669BECBF431D4E4D9DFDCCD88305D875","0199d5fd-cd9e-7906-bf95-3427b0c654f4","0199d5ef-c7d4-7cab-a194-b2c3afbaf8e8","","null","<div style=""display: flex; justify-content: center; align-items: center;"">
                     <img src=""images/causal/causal_series_4/causal_series_4_e.png"" style=""width: 300px; height: 300px;"" />
                   </div>","null","4","1","E","",""
"","","","","","html-keyboard-response","191","1189407","0.0-153.0-0.0-2.0","669BECBF431D4E4D9DFDCCD88305D875","0199d5fd-cd9e-7906-bf95-3427b0c654f4","0199d5ef-c7d4-7cab-a194-b2c3afbaf8e8","","null","<div style=""display: flex; justify-content: center; align-items: center;"">
                     <img src=""images/causal/causal_series_4/causal_series_4_f.png"" style=""width: 300px; height: 300px;"" />
                   </div>","null","4","1","F","",""
"","","","","","survey-likert","192","1190813","0.0-154.0","669BECBF431D4E4D9DFDCCD88305D875","0199d5fd-cd9e-7906-bf95-3427b0c654f4","0199d5ef-c7d4-7cab-a194-b2c3afbaf8e8","","1405","","{""Q0"":4}","4","1","surprise_rating","","[0]"
"","","","","","survey-likert","193","1192645","0.0-155.0","669BECBF431D4E4D9DFDCCD88305D875","0199d5fd-cd9e-7906-bf95-3427b0c654f4","0199d5ef-c7d4-7cab-a194-b2c3afbaf8e8","","1832","","{""Q0"":0}","4","1","enjoyment_rating","","[0]"
"","","","","","html-keyboard-response","194","1198656","0.0-156.0","669BECBF431D4E4D9DFDCCD88305D875","0199d5fd-cd9e-7906-bf95-3427b0c654f4","0199d5ef-c7d4-7cab-a194-b2c3afbaf8e8","","null","<div style=""display: flex; justify-content: center; align-items: center;"">
                     <img src=""images/other/blank.png"" style=""width: 300px; height: 300px;"" />
                   </div>","null","0","0","blank","",""
"","","","","","html-keyboard-response","195","1204666","0.0-157.0","669BECBF431D4E4D9DFDCCD88305D875","0199d5fd-cd9e-7906-bf95-3427b0c654f4","0199d5ef-c7d4-7cab-a194-b2c3afbaf8e8","","null","<div style=""display: flex; justify-content: center; align-items: center;"">
                     <img src=""images/causal/causal_series_4/causal_series_4_a.png"" style=""width: 300px; height: 300px;"" />
                   </div>","null","4","2","A","",""
"","","","","","html-keyboard-response","196","1211610","0.0-158.0","669BECBF431D4E4D9DFDCCD88305D875","0199d5fd-cd9e-7906-bf95-3427b0c654f4","0199d5ef-c7d4-7cab-a194-b2c3afbaf8e8","","null","<div style=""display: flex; justify-content: center; align-items: center;"">
                     <img src=""images/causal/causal_series_4/causal_series_4_b.png"" style=""width: 300px; height: 300px;"" />
                   </div>","null","4","2","B","",""
"","","","","","html-keyboard-response","197","1217621","0.0-159.0","669BECBF431D4E4D9DFDCCD88305D875","0199d5fd-cd9e-7906-bf95-3427b0c654f4","0199d5ef-c7d4-7cab-a194-b2c3afbaf8e8","","null","<div style=""display: flex; justify-content: center; align-items: center;"">
                     <img src=""images/causal/causal_series_4/causal_series_4_c.png"" style=""width: 300px; height: 300px;"" />
                   </div>","null","4","2","C","",""
"","","","","","html-button-response","198","1218389","0.0-160.0","669BECBF431D4E4D9DFDCCD88305D875","0199d5fd-cd9e-7906-bf95-3427b0c654f4","0199d5ef-c7d4-7cab-a194-b2c3afbaf8e8","","768","
        <div style=""display: flex; justify-content: center; align-items: center;"">
          <img src=""images/red_deck_2.png"" style=""width: 300px; height: 300px; margin-right: 10px;"" />
          <img src=""images/blue_deck_1.png"" style=""width: 300px; height: 300px;"" />
        </div>","0","4","2","choice","0",""
"","","","","","html-keyboard-response","199","1224397","0.0-161.0-0.0-0.0","669BECBF431D4E4D9DFDCCD88305D875","0199d5fd-cd9e-7906-bf95-3427b0c654f4","0199d5ef-c7d4-7cab-a194-b2c3afbaf8e8","","null","<div style=""display: flex; justify-content: center; align-items: center;"">
                     <img src=""images/causal/causal_series_4/causal_series_4_d.png"" style=""width: 300px; height: 300px;"" />
                   </div>","null","4","2","D","",""
"","","","","","html-keyboard-response","200","1230411","0.0-161.0-0.0-1.0","669BECBF431D4E4D9DFDCCD88305D875","0199d5fd-cd9e-7906-bf95-3427b0c654f4","0199d5ef-c7d4-7cab-a194-b2c3afbaf8e8","","null","<div style=""display: flex; justify-content: center; align-items: center;"">
                     <img src=""images/causal/causal_series_4/causal_series_4_e.png"" style=""width: 300px; height: 300px;"" />
                   </div>","null","4","2","E","",""
"","","","","","html-keyboard-response","201","1236422","0.0-161.0-0.0-2.0","669BECBF431D4E4D9DFDCCD88305D875","0199d5fd-cd9e-7906-bf95-3427b0c654f4","0199d5ef-c7d4-7cab-a194-b2c3afbaf8e8","","null","<div style=""display: flex; justify-content: center; align-items: center;"">
                     <img src=""images/causal/causal_series_4/causal_series_4_f.png"" style=""width: 300px; height: 300px;"" />
                   </div>","null","4","2","F","",""
"","","","","","survey-likert","202","1239869","0.0-162.0","669BECBF431D4E4D9DFDCCD88305D875","0199d5fd-cd9e-7906-bf95-3427b0c654f4","0199d5ef-c7d4-7cab-a194-b2c3afbaf8e8","","3447","","{""Q0"":4}","4","2","surprise_rating","","[0]"
"","","","","","survey-likert","203","1241102","0.0-163.0","669BECBF431D4E4D9DFDCCD88305D875","0199d5fd-cd9e-7906-bf95-3427b0c654f4","0199d5ef-c7d4-7cab-a194-b2c3afbaf8e8","","1232","","{""Q0"":0}","4","2","enjoyment_rating","","[0]"
"","","","","","html-keyboard-response","204","1247103","0.0-164.0","669BECBF431D4E4D9DFDCCD88305D875","0199d5fd-cd9e-7906-bf95-3427b0c654f4","0199d5ef-c7d4-7cab-a194-b2c3afbaf8e8","","null","<div style=""display: flex; justify-content: center; align-items: center;"">
                     <img src=""images/other/blank.png"" style=""width: 300px; height: 300px;"" />
                   </div>","null","0","0","blank","",""
"","","","","","survey-text","205","1280094","0.0-165.0","669BECBF431D4E4D9DFDCCD88305D875","0199d5fd-cd9e-7906-bf95-3427b0c654f4","0199d5ef-c7d4-7cab-a194-b2c3afbaf8e8","","32987","","{""Q0"":""I truthfully did not notice a difference in the two decks of cards. I continually got the same answers regardless of which card I clicked. Only difference is that one is blue and one is red. ""}","","","","",""
"","","","","","html-button-response","206","1287494","0.0-166.0","669BECBF431D4E4D9DFDCCD88305D875","0199d5fd-cd9e-7906-bf95-3427b0c654f4","0199d5ef-c7d4-7cab-a194-b2c3afbaf8e8","","7399","Which color deck do the following sentences continue the story from?","0","","","","",""
"","","","","","html-button-response","207","1289174","0.0-167.0","669BECBF431D4E4D9DFDCCD88305D875","0199d5fd-cd9e-7906-bf95-3427b0c654f4","0199d5ef-c7d4-7cab-a194-b2c3afbaf8e8","","1680","Which color deck do the following sentences NOT follow the story from?","0","","","","",""
"","","","","","html-button-response","208","1293631","0.0-168.0","669BECBF431D4E4D9DFDCCD88305D875","0199d5fd-cd9e-7906-bf95-3427b0c654f4","0199d5ef-c7d4-7cab-a194-b2c3afbaf8e8","","4456","Which type of deck did you prefer overall?","0","","","","",""
"","","","","","survey-text","209","1299006","0.0-169.0","669BECBF431D4E4D9DFDCCD88305D875","0199d5fd-cd9e-7906-bf95-3427b0c654f4","0199d5ef-c7d4-7cab-a194-b2c3afbaf8e8","","5374","","{""Q0"":""Female"",""Q1"":""31""}","","","","",""
"","","","","","instructions","210","1305895","0.0-170.0","669BECBF431D4E4D9DFDCCD88305D875","0199d5fd-cd9e-7906-bf95-3427b0c654f4","0199d5ef-c7d4-7cab-a194-b2c3afbaf8e8","[{""page_index"":0,""viewing_time"":6888}]","6888","","","","","","",""
