"success","timeout","failed_images","failed_audio","failed_video","trial_type","trial_index","time_elapsed","internal_node_id","subject_id","study_id","session_id","view_history","rt","stimulus","response","series","repetition","phase","choice","question_order"
"true","false","[]","[]","[]","preload","0","253","0.0-0.0","090BA72D8DFF4584952324D744C3AE6E","0199d603-ac1d-7112-8882-bcffc779822f","0199d5ef-c7d4-7cab-a194-b2c3afbaf8e8","","","","","","","","",""
"","","","","","instructions","1","217966","0.0-1.0","090BA72D8DFF4584952324D744C3AE6E","0199d603-ac1d-7112-8882-bcffc779822f","0199d5ef-c7d4-7cab-a194-b2c3afbaf8e8","[{""page_index"":0,""viewing_time"":217712}]","217712","","","","","","",""
"","","","","","instructions","2","221186","0.0-2.0","090BA72D8DFF4584952324D744C3AE6E","0199d603-ac1d-7112-8882-bcffc779822f","0199d5ef-c7d4-7cab-a194-b2c3afbaf8e8","[{""page_index"":0,""viewing_time"":3220}]","3220","","","","","","",""
"true","","","","","fullscreen","3","223738","0.0-3.0","090BA72D8DFF4584952324D744C3AE6E","0199d603-ac1d-7112-8882-bcffc779822f","0199d5ef-c7d4-7cab-a194-b2c3afbaf8e8","","1542","","","","","","",""
"","","","","","instructions","4","243516","0.0-4.0","090BA72D8DFF4584952324D744C3AE6E","0199d603-ac1d-7112-8882-bcffc779822f","0199d5ef-c7d4-7cab-a194-b2c3afbaf8e8","[{""page_index"":0,""viewing_time"":19778}]","19779","","","","","","",""
"","","","","","html-keyboard-response","5","249518","0.0-5.0","090BA72D8DFF4584952324D744C3AE6E","0199d603-ac1d-7112-8882-bcffc779822f","0199d5ef-c7d4-7cab-a194-b2c3afbaf8e8","","null","<div style=""display: flex; justify-content: center; align-items: center;"">
                     <img src=""images/causal/causal_series_1/causal_series_1_a.png"" style=""width: 300px; height: 300px;"" />
                   </div>","null","1","1","A","",""
"","","","","","html-keyboard-response","6","255523","0.0-6.0","090BA72D8DFF4584952324D744C3AE6E","0199d603-ac1d-7112-8882-bcffc779822f","0199d5ef-c7d4-7cab-a194-b2c3afbaf8e8","","null","<div style=""display: flex; justify-content: center; align-items: center;"">
                     <img src=""images/causal/causal_series_1/causal_series_1_b.png"" style=""width: 300px; height: 300px;"" />
                   </div>","null","1","1","B","",""
"","","","","","html-keyboard-response","7","261534","0.0-7.0","090BA72D8DFF4584952324D744C3AE6E","0199d603-ac1d-7112-8882-bcffc779822f","0199d5ef-c7d4-7cab-a194-b2c3afbaf8e8","","null","<div style=""display: flex; justify-content: center; align-items: center;"">
                     <img src=""images/causal/causal_series_1/causal_series_1_c.png"" style=""width: 300px; height: 300px;"" />
                   </div>","null","1","1","C","",""
"","","","","","html-button-response","8","264803","0.0-8.0","090BA72D8DFF4584952324D744C3AE6E","0199d603-ac1d-7112-8882-bcffc779822f","0199d5ef-c7d4-7cab-a194-b2c3afbaf8e8","","3268","
        <div style=""display: flex; justify-content: center; align-items: center;"">
          <img src=""images/red_deck_2.png"" style=""width: 300px; height: 300px; margin-right: 10px;"" />
          <img src=""images/blue_deck_1.png"" style=""width: 300px; height: 300px;"" />
        </div>","1","1","1","choice","1",""
"","","","","","html-keyboard-response","9","270812","0.0-9.0-1.0-0.0","090BA72D8DFF4584952324D744C3AE6E","0199d603-ac1d-7112-8882-bcffc779822f","0199d5ef-c7d4-7cab-a194-b2c3afbaf8e8","","null","<div style=""display: flex; justify-content: center; align-items: center;"">
                     <img src=""images/semantic/semantic_series_1/semantic_series_1_d.png"" style=""width: 300px; height: 300px;"" />
                   </div>","null","1","1","D","",""
"","","","","","html-keyboard-response","10","276826","0.0-9.0-1.0-1.0","090BA72D8DFF4584952324D744C3AE6E","0199d603-ac1d-7112-8882-bcffc779822f","0199d5ef-c7d4-7cab-a194-b2c3afbaf8e8","","null","<div style=""display: flex; justify-content: center; align-items: center;"">
                     <img src=""images/semantic/semantic_series_1/semantic_series_1_e.png"" style=""width: 300px; height: 300px;"" />
                   </div>","null","1","1","E","",""
"","","","","","html-keyboard-response","11","282837","0.0-9.0-1.0-2.0","090BA72D8DFF4584952324D744C3AE6E","0199d603-ac1d-7112-8882-bcffc779822f","0199d5ef-c7d4-7cab-a194-b2c3afbaf8e8","","null","<div style=""display: flex; justify-content: center; align-items: center;"">
                     <img src=""images/semantic/semantic_series_1/semantic_series_1_f.png"" style=""width: 300px; height: 300px;"" />
                   </div>","null","1","1","F","",""
"","","","","","survey-likert","12","288825","0.0-10.0","090BA72D8DFF4584952324D744C3AE6E","0199d603-ac1d-7112-8882-bcffc779822f","0199d5ef-c7d4-7cab-a194-b2c3afbaf8e8","","5986","","{""Q0"":4}","1","1","surprise_rating","","[0]"
"","","","","","survey-likert","13","292330","0.0-11.0","090BA72D8DFF4584952324D744C3AE6E","0199d603-ac1d-7112-8882-bcffc779822f","0199d5ef-c7d4-7cab-a194-b2c3afbaf8e8","","3505","","{""Q0"":4}","1","1","enjoyment_rating","","[0]"
"","","","","","html-keyboard-response","14","298336","0.0-12.0","090BA72D8DFF4584952324D744C3AE6E","0199d603-ac1d-7112-8882-bcffc779822f","0199d5ef-c7d4-7cab-a194-b2c3afbaf8e8","","null","<div style=""display: flex; justify-content: center; align-items: center;"">
                     <img src=""images/other/blank.png"" style=""width: 300px; height: 300px;"" />
                   </div>","null","0","0","blank","",""
"","","","","","html-keyboard-response","15","304343","0.0-13.0","090BA72D8DFF4584952324D744C3AE6E","0199d603-ac1d-7112-8882-bcffc779822f","0199d5ef-c7d4-7cab-a194-b2c3afbaf8e8","","null","<div style=""display: flex; justify-content: center; align-items: center;"">
                     <img src=""images/causal/causal_series_5/causal_series_5_a.png"" style=""width: 300px; height: 300px;"" />
                   </div>","null","5","1","A","",""
"","","","","","html-keyboard-response","16","310350","0.0-14.0","090BA72D8DFF4584952324D744C3AE6E","0199d603-ac1d-7112-8882-bcffc779822f","0199d5ef-c7d4-7cab-a194-b2c3afbaf8e8","","null","<div style=""display: flex; justify-content: center; align-items: center;"">
                     <img src=""images/causal/causal_series_5/causal_series_5_b.png"" style=""width: 300px; height: 300px;"" />
                   </div>","null","5","1","B","",""
"","","","","","html-keyboard-response","17","316360","0.0-15.0","090BA72D8DFF4584952324D744C3AE6E","0199d603-ac1d-7112-8882-bcffc779822f","0199d5ef-c7d4-7cab-a194-b2c3afbaf8e8","","null","<div style=""display: flex; justify-content: center; align-items: center;"">
                     <img src=""images/causal/causal_series_5/causal_series_5_c.png"" style=""width: 300px; height: 300px;"" />
                   </div>","null","5","1","C","",""
"","","","","","html-button-response","18","318554","0.0-16.0","090BA72D8DFF4584952324D744C3AE6E","0199d603-ac1d-7112-8882-bcffc779822f","0199d5ef-c7d4-7cab-a194-b2c3afbaf8e8","","2193","
        <div style=""display: flex; justify-content: center; align-items: center;"">
          <img src=""images/red_deck_2.png"" style=""width: 300px; height: 300px; margin-right: 10px;"" />
          <img src=""images/blue_deck_1.png"" style=""width: 300px; height: 300px;"" />
        </div>","0","5","1","choice","0",""
"","","","","","html-keyboard-response","19","324563","0.0-17.0-0.0-0.0","090BA72D8DFF4584952324D744C3AE6E","0199d603-ac1d-7112-8882-bcffc779822f","0199d5ef-c7d4-7cab-a194-b2c3afbaf8e8","","null","<div style=""display: flex; justify-content: center; align-items: center;"">
                     <img src=""images/causal/causal_series_5/causal_series_5_d.png"" style=""width: 300px; height: 300px;"" />
                   </div>","null","5","1","D","",""
"","","","","","html-keyboard-response","20","330577","0.0-17.0-0.0-1.0","090BA72D8DFF4584952324D744C3AE6E","0199d603-ac1d-7112-8882-bcffc779822f","0199d5ef-c7d4-7cab-a194-b2c3afbaf8e8","","null","<div style=""display: flex; justify-content: center; align-items: center;"">
                     <img src=""images/causal/causal_series_5/causal_series_5_e.png"" style=""width: 300px; height: 300px;"" />
                   </div>","null","5","1","E","",""
"","","","","","html-keyboard-response","21","336590","0.0-17.0-0.0-2.0","090BA72D8DFF4584952324D744C3AE6E","0199d603-ac1d-7112-8882-bcffc779822f","0199d5ef-c7d4-7cab-a194-b2c3afbaf8e8","","null","<div style=""display: flex; justify-content: center; align-items: center;"">
                     <img src=""images/causal/causal_series_5/causal_series_5_f.png"" style=""width: 300px; height: 300px;"" />
                   </div>","null","5","1","F","",""
"","","","","","survey-likert","22","340301","0.0-18.0","090BA72D8DFF4584952324D744C3AE6E","0199d603-ac1d-7112-8882-bcffc779822f","0199d5ef-c7d4-7cab-a194-b2c3afbaf8e8","","3710","","{""Q0"":4}","5","1","surprise_rating","","[0]"
"","","","","","survey-likert","23","342738","0.0-19.0","090BA72D8DFF4584952324D744C3AE6E","0199d603-ac1d-7112-8882-bcffc779822f","0199d5ef-c7d4-7cab-a194-b2c3afbaf8e8","","2437","","{""Q0"":4}","5","1","enjoyment_rating","","[0]"
"","","","","","html-keyboard-response","24","348748","0.0-20.0","090BA72D8DFF4584952324D744C3AE6E","0199d603-ac1d-7112-8882-bcffc779822f","0199d5ef-c7d4-7cab-a194-b2c3afbaf8e8","","null","<div style=""display: flex; justify-content: center; align-items: center;"">
                     <img src=""images/other/blank.png"" style=""width: 300px; height: 300px;"" />
                   </div>","null","0","0","blank","",""
"","","","","","html-keyboard-response","25","354759","0.0-21.0","090BA72D8DFF4584952324D744C3AE6E","0199d603-ac1d-7112-8882-bcffc779822f","0199d5ef-c7d4-7cab-a194-b2c3afbaf8e8","","null","<div style=""display: flex; justify-content: center; align-items: center;"">
                     <img src=""images/causal/causal_series_6/causal_series_6_a.png"" style=""width: 300px; height: 300px;"" />
                   </div>","null","6","1","A","",""
"","","","","","html-keyboard-response","26","360762","0.0-22.0","090BA72D8DFF4584952324D744C3AE6E","0199d603-ac1d-7112-8882-bcffc779822f","0199d5ef-c7d4-7cab-a194-b2c3afbaf8e8","","null","<div style=""display: flex; justify-content: center; align-items: center;"">
                     <img src=""images/causal/causal_series_6/causal_series_6_b.png"" style=""width: 300px; height: 300px;"" />
                   </div>","null","6","1","B","",""
"","","","","","html-keyboard-response","27","366772","0.0-23.0","090BA72D8DFF4584952324D744C3AE6E","0199d603-ac1d-7112-8882-bcffc779822f","0199d5ef-c7d4-7cab-a194-b2c3afbaf8e8","","null","<div style=""display: flex; justify-content: center; align-items: center;"">
                     <img src=""images/causal/causal_series_6/causal_series_6_c.png"" style=""width: 300px; height: 300px;"" />
                   </div>","null","6","1","C","",""
"","","","","","html-button-response","28","368755","0.0-24.0","090BA72D8DFF4584952324D744C3AE6E","0199d603-ac1d-7112-8882-bcffc779822f","0199d5ef-c7d4-7cab-a194-b2c3afbaf8e8","","1982","
        <div style=""display: flex; justify-content: center; align-items: center;"">
          <img src=""images/red_deck_2.png"" style=""width: 300px; height: 300px; margin-right: 10px;"" />
          <img src=""images/blue_deck_1.png"" style=""width: 300px; height: 300px;"" />
        </div>","1","6","1","choice","1",""
"","","","","","html-keyboard-response","29","374763","0.0-25.0-1.0-0.0","090BA72D8DFF4584952324D744C3AE6E","0199d603-ac1d-7112-8882-bcffc779822f","0199d5ef-c7d4-7cab-a194-b2c3afbaf8e8","","null","<div style=""display: flex; justify-content: center; align-items: center;"">
                     <img src=""images/semantic/semantic_series_6/semantic_series_6_d.png"" style=""width: 300px; height: 300px;"" />
                   </div>","null","6","1","D","",""
"","","","","","html-keyboard-response","30","380776","0.0-25.0-1.0-1.0","090BA72D8DFF4584952324D744C3AE6E","0199d603-ac1d-7112-8882-bcffc779822f","0199d5ef-c7d4-7cab-a194-b2c3afbaf8e8","","null","<div style=""display: flex; justify-content: center; align-items: center;"">
                     <img src=""images/semantic/semantic_series_6/semantic_series_6_e.png"" style=""width: 300px; height: 300px;"" />
                   </div>","null","6","1","E","",""
"","","","","","html-keyboard-response","31","386779","0.0-25.0-1.0-2.0","090BA72D8DFF4584952324D744C3AE6E","0199d603-ac1d-7112-8882-bcffc779822f","0199d5ef-c7d4-7cab-a194-b2c3afbaf8e8","","null","<div style=""display: flex; justify-content: center; align-items: center;"">
                     <img src=""images/semantic/semantic_series_6/semantic_series_6_f.png"" style=""width: 300px; height: 300px;"" />
                   </div>","null","6","1","F","",""
"","","","","","survey-likert","32","390111","0.0-26.0","090BA72D8DFF4584952324D744C3AE6E","0199d603-ac1d-7112-8882-bcffc779822f","0199d5ef-c7d4-7cab-a194-b2c3afbaf8e8","","3331","","{""Q0"":3}","6","1","surprise_rating","","[0]"
"","","","","","survey-likert","33","392924","0.0-27.0","090BA72D8DFF4584952324D744C3AE6E","0199d603-ac1d-7112-8882-bcffc779822f","0199d5ef-c7d4-7cab-a194-b2c3afbaf8e8","","2813","","{""Q0"":3}","6","1","enjoyment_rating","","[0]"
"","","","","","html-keyboard-response","34","398933","0.0-28.0","090BA72D8DFF4584952324D744C3AE6E","0199d603-ac1d-7112-8882-bcffc779822f","0199d5ef-c7d4-7cab-a194-b2c3afbaf8e8","","null","<div style=""display: flex; justify-content: center; align-items: center;"">
                     <img src=""images/other/blank.png"" style=""width: 300px; height: 300px;"" />
                   </div>","null","0","0","blank","",""
"","","","","","html-keyboard-response","35","404944","0.0-29.0","090BA72D8DFF4584952324D744C3AE6E","0199d603-ac1d-7112-8882-bcffc779822f","0199d5ef-c7d4-7cab-a194-b2c3afbaf8e8","","null","<div style=""display: flex; justify-content: center; align-items: center;"">
                     <img src=""images/causal/causal_series_4/causal_series_4_a.png"" style=""width: 300px; height: 300px;"" />
                   </div>","null","4","1","A","",""
"","","","","","html-keyboard-response","36","410958","0.0-30.0","090BA72D8DFF4584952324D744C3AE6E","0199d603-ac1d-7112-8882-bcffc779822f","0199d5ef-c7d4-7cab-a194-b2c3afbaf8e8","","null","<div style=""display: flex; justify-content: center; align-items: center;"">
                     <img src=""images/causal/causal_series_4/causal_series_4_b.png"" style=""width: 300px; height: 300px;"" />
                   </div>","null","4","1","B","",""
"","","","","","html-keyboard-response","37","416971","0.0-31.0","090BA72D8DFF4584952324D744C3AE6E","0199d603-ac1d-7112-8882-bcffc779822f","0199d5ef-c7d4-7cab-a194-b2c3afbaf8e8","","null","<div style=""display: flex; justify-content: center; align-items: center;"">
                     <img src=""images/causal/causal_series_4/causal_series_4_c.png"" style=""width: 300px; height: 300px;"" />
                   </div>","null","4","1","C","",""
"","","","","","html-button-response","38","419256","0.0-32.0","090BA72D8DFF4584952324D744C3AE6E","0199d603-ac1d-7112-8882-bcffc779822f","0199d5ef-c7d4-7cab-a194-b2c3afbaf8e8","","2284","
        <div style=""display: flex; justify-content: center; align-items: center;"">
          <img src=""images/red_deck_2.png"" style=""width: 300px; height: 300px; margin-right: 10px;"" />
          <img src=""images/blue_deck_1.png"" style=""width: 300px; height: 300px;"" />
        </div>","0","4","1","choice","0",""
"","","","","","html-keyboard-response","39","425266","0.0-33.0-0.0-0.0","090BA72D8DFF4584952324D744C3AE6E","0199d603-ac1d-7112-8882-bcffc779822f","0199d5ef-c7d4-7cab-a194-b2c3afbaf8e8","","null","<div style=""display: flex; justify-content: center; align-items: center;"">
                     <img src=""images/causal/causal_series_4/causal_series_4_d.png"" style=""width: 300px; height: 300px;"" />
                   </div>","null","4","1","D","",""
"","","","","","html-keyboard-response","40","431278","0.0-33.0-0.0-1.0","090BA72D8DFF4584952324D744C3AE6E","0199d603-ac1d-7112-8882-bcffc779822f","0199d5ef-c7d4-7cab-a194-b2c3afbaf8e8","","null","<div style=""display: flex; justify-content: center; align-items: center;"">
                     <img src=""images/causal/causal_series_4/causal_series_4_e.png"" style=""width: 300px; height: 300px;"" />
                   </div>","null","4","1","E","",""
"","","","","","html-keyboard-response","41","437287","0.0-33.0-0.0-2.0","090BA72D8DFF4584952324D744C3AE6E","0199d603-ac1d-7112-8882-bcffc779822f","0199d5ef-c7d4-7cab-a194-b2c3afbaf8e8","","null","<div style=""display: flex; justify-content: center; align-items: center;"">
                     <img src=""images/causal/causal_series_4/causal_series_4_f.png"" style=""width: 300px; height: 300px;"" />
                   </div>","null","4","1","F","",""
"","","","","","survey-likert","42","439821","0.0-34.0","090BA72D8DFF4584952324D744C3AE6E","0199d603-ac1d-7112-8882-bcffc779822f","0199d5ef-c7d4-7cab-a194-b2c3afbaf8e8","","2533","","{""Q0"":4}","4","1","surprise_rating","","[0]"
"","","","","","survey-likert","43","442061","0.0-35.0","090BA72D8DFF4584952324D744C3AE6E","0199d603-ac1d-7112-8882-bcffc779822f","0199d5ef-c7d4-7cab-a194-b2c3afbaf8e8","","2240","","{""Q0"":4}","4","1","enjoyment_rating","","[0]"
"","","","","","html-keyboard-response","44","448063","0.0-36.0","090BA72D8DFF4584952324D744C3AE6E","0199d603-ac1d-7112-8882-bcffc779822f","0199d5ef-c7d4-7cab-a194-b2c3afbaf8e8","","null","<div style=""display: flex; justify-content: center; align-items: center;"">
                     <img src=""images/other/blank.png"" style=""width: 300px; height: 300px;"" />
                   </div>","null","0","0","blank","",""
"","","","","","html-keyboard-response","45","454077","0.0-37.0","090BA72D8DFF4584952324D744C3AE6E","0199d603-ac1d-7112-8882-bcffc779822f","0199d5ef-c7d4-7cab-a194-b2c3afbaf8e8","","null","<div style=""display: flex; justify-content: center; align-items: center;"">
                     <img src=""images/causal/causal_series_5/causal_series_5_a.png"" style=""width: 300px; height: 300px;"" />
                   </div>","null","5","2","A","",""
"","","","","","html-keyboard-response","46","460088","0.0-38.0","090BA72D8DFF4584952324D744C3AE6E","0199d603-ac1d-7112-8882-bcffc779822f","0199d5ef-c7d4-7cab-a194-b2c3afbaf8e8","","null","<div style=""display: flex; justify-content: center; align-items: center;"">
                     <img src=""images/causal/causal_series_5/causal_series_5_b.png"" style=""width: 300px; height: 300px;"" />
                   </div>","null","5","2","B","",""
"","","","","","html-keyboard-response","47","466093","0.0-39.0","090BA72D8DFF4584952324D744C3AE6E","0199d603-ac1d-7112-8882-bcffc779822f","0199d5ef-c7d4-7cab-a194-b2c3afbaf8e8","","null","<div style=""display: flex; justify-content: center; align-items: center;"">
                     <img src=""images/causal/causal_series_5/causal_series_5_c.png"" style=""width: 300px; height: 300px;"" />
                   </div>","null","5","2","C","",""
"","","","","","html-button-response","48","468180","0.0-40.0","090BA72D8DFF4584952324D744C3AE6E","0199d603-ac1d-7112-8882-bcffc779822f","0199d5ef-c7d4-7cab-a194-b2c3afbaf8e8","","2087","
        <div style=""display: flex; justify-content: center; align-items: center;"">
          <img src=""images/red_deck_2.png"" style=""width: 300px; height: 300px; margin-right: 10px;"" />
          <img src=""images/blue_deck_1.png"" style=""width: 300px; height: 300px;"" />
        </div>","1","5","2","choice","1",""
"","","","","","html-keyboard-response","49","474182","0.0-41.0-1.0-0.0","090BA72D8DFF4584952324D744C3AE6E","0199d603-ac1d-7112-8882-bcffc779822f","0199d5ef-c7d4-7cab-a194-b2c3afbaf8e8","","null","<div style=""display: flex; justify-content: center; align-items: center;"">
                     <img src=""images/semantic/semantic_series_5/semantic_series_5_d.png"" style=""width: 300px; height: 300px;"" />
                   </div>","null","5","2","D","",""
"","","","","","html-keyboard-response","50","480192","0.0-41.0-1.0-1.0","090BA72D8DFF4584952324D744C3AE6E","0199d603-ac1d-7112-8882-bcffc779822f","0199d5ef-c7d4-7cab-a194-b2c3afbaf8e8","","null","<div style=""display: flex; justify-content: center; align-items: center;"">
                     <img src=""images/semantic/semantic_series_5/semantic_series_5_e.png"" style=""width: 300px; height: 300px;"" />
                   </div>","null","5","2","E","",""
"","","","","","html-keyboard-response","51","486199","0.0-41.0-1.0-2.0","090BA72D8DFF4584952324D744C3AE6E","0199d603-ac1d-7112-8882-bcffc779822f","0199d5ef-c7d4-7cab-a194-b2c3afbaf8e8","","null","<div style=""display: flex; justify-content: center; align-items: center;"">
                     <img src=""images/semantic/semantic_series_5/semantic_series_5_f.png"" style=""width: 300px; height: 300px;"" />
                   </div>","null","5","2","F","",""
"","","","","","survey-likert","52","488546","0.0-42.0","090BA72D8DFF4584952324D744C3AE6E","0199d603-ac1d-7112-8882-bcffc779822f","0199d5ef-c7d4-7cab-a194-b2c3afbaf8e8","","2346","","{""Q0"":4}","5","2","surprise_rating","","[0]"
"","","","","","survey-likert","53","494861","0.0-43.0","090BA72D8DFF4584952324D744C3AE6E","0199d603-ac1d-7112-8882-bcffc779822f","0199d5ef-c7d4-7cab-a194-b2c3afbaf8e8","","6314","","{""Q0"":3}","5","2","enjoyment_rating","","[0]"
"","","","","","html-keyboard-response","54","500870","0.0-44.0","090BA72D8DFF4584952324D744C3AE6E","0199d603-ac1d-7112-8882-bcffc779822f","0199d5ef-c7d4-7cab-a194-b2c3afbaf8e8","","null","<div style=""display: flex; justify-content: center; align-items: center;"">
                     <img src=""images/other/blank.png"" style=""width: 300px; height: 300px;"" />
                   </div>","null","0","0","blank","",""
"","","","","","html-keyboard-response","55","506883","0.0-45.0","090BA72D8DFF4584952324D744C3AE6E","0199d603-ac1d-7112-8882-bcffc779822f","0199d5ef-c7d4-7cab-a194-b2c3afbaf8e8","","null","<div style=""display: flex; justify-content: center; align-items: center;"">
                     <img src=""images/causal/causal_series_9/causal_series_9_a.png"" style=""width: 300px; height: 300px;"" />
                   </div>","null","9","2","A","",""
"","","","","","html-keyboard-response","56","512894","0.0-46.0","090BA72D8DFF4584952324D744C3AE6E","0199d603-ac1d-7112-8882-bcffc779822f","0199d5ef-c7d4-7cab-a194-b2c3afbaf8e8","","null","<div style=""display: flex; justify-content: center; align-items: center;"">
                     <img src=""images/causal/causal_series_9/causal_series_9_b.png"" style=""width: 300px; height: 300px;"" />
                   </div>","null","9","2","B","",""
"","","","","","html-keyboard-response","57","518907","0.0-47.0","090BA72D8DFF4584952324D744C3AE6E","0199d603-ac1d-7112-8882-bcffc779822f","0199d5ef-c7d4-7cab-a194-b2c3afbaf8e8","","null","<div style=""display: flex; justify-content: center; align-items: center;"">
                     <img src=""images/causal/causal_series_9/causal_series_9_c.png"" style=""width: 300px; height: 300px;"" />
                   </div>","null","9","2","C","",""
"","","","","","html-button-response","58","520206","0.0-48.0","090BA72D8DFF4584952324D744C3AE6E","0199d603-ac1d-7112-8882-bcffc779822f","0199d5ef-c7d4-7cab-a194-b2c3afbaf8e8","","1298","
        <div style=""display: flex; justify-content: center; align-items: center;"">
          <img src=""images/red_deck_2.png"" style=""width: 300px; height: 300px; margin-right: 10px;"" />
          <img src=""images/blue_deck_1.png"" style=""width: 300px; height: 300px;"" />
        </div>","0","9","2","choice","0",""
"","","","","","html-keyboard-response","59","526215","0.0-49.0-0.0-0.0","090BA72D8DFF4584952324D744C3AE6E","0199d603-ac1d-7112-8882-bcffc779822f","0199d5ef-c7d4-7cab-a194-b2c3afbaf8e8","","null","<div style=""display: flex; justify-content: center; align-items: center;"">
                     <img src=""images/causal/causal_series_9/causal_series_9_d.png"" style=""width: 300px; height: 300px;"" />
                   </div>","null","9","2","D","",""
"","","","","","html-keyboard-response","60","532220","0.0-49.0-0.0-1.0","090BA72D8DFF4584952324D744C3AE6E","0199d603-ac1d-7112-8882-bcffc779822f","0199d5ef-c7d4-7cab-a194-b2c3afbaf8e8","","null","<div style=""display: flex; justify-content: center; align-items: center;"">
                     <img src=""images/causal/causal_series_9/causal_series_9_e.png"" style=""width: 300px; height: 300px;"" />
                   </div>","null","9","2","E","",""
"","","","","","html-keyboard-response","61","538227","0.0-49.0-0.0-2.0","090BA72D8DFF4584952324D744C3AE6E","0199d603-ac1d-7112-8882-bcffc779822f","0199d5ef-c7d4-7cab-a194-b2c3afbaf8e8","","null","<div style=""display: flex; justify-content: center; align-items: center;"">
                     <img src=""images/causal/causal_series_9/causal_series_9_f.png"" style=""width: 300px; height: 300px;"" />
                   </div>","null","9","2","F","",""
"","","","","","survey-likert","62","542529","0.0-50.0","090BA72D8DFF4584952324D744C3AE6E","0199d603-ac1d-7112-8882-bcffc779822f","0199d5ef-c7d4-7cab-a194-b2c3afbaf8e8","","4301","","{""Q0"":3}","9","2","surprise_rating","","[0]"
"","","","","","survey-likert","63","544989","0.0-51.0","090BA72D8DFF4584952324D744C3AE6E","0199d603-ac1d-7112-8882-bcffc779822f","0199d5ef-c7d4-7cab-a194-b2c3afbaf8e8","","2459","","{""Q0"":4}","9","2","enjoyment_rating","","[0]"
"","","","","","html-keyboard-response","64","551000","0.0-52.0","090BA72D8DFF4584952324D744C3AE6E","0199d603-ac1d-7112-8882-bcffc779822f","0199d5ef-c7d4-7cab-a194-b2c3afbaf8e8","","null","<div style=""display: flex; justify-content: center; align-items: center;"">
                     <img src=""images/other/blank.png"" style=""width: 300px; height: 300px;"" />
                   </div>","null","0","0","blank","",""
"","","","","","html-keyboard-response","65","557014","0.0-53.0","090BA72D8DFF4584952324D744C3AE6E","0199d603-ac1d-7112-8882-bcffc779822f","0199d5ef-c7d4-7cab-a194-b2c3afbaf8e8","","null","<div style=""display: flex; justify-content: center; align-items: center;"">
                     <img src=""images/causal/causal_series_7/causal_series_7_a.png"" style=""width: 300px; height: 300px;"" />
                   </div>","null","7","2","A","",""
"","","","","","html-keyboard-response","66","563030","0.0-54.0","090BA72D8DFF4584952324D744C3AE6E","0199d603-ac1d-7112-8882-bcffc779822f","0199d5ef-c7d4-7cab-a194-b2c3afbaf8e8","","null","<div style=""display: flex; justify-content: center; align-items: center;"">
                     <img src=""images/causal/causal_series_7/causal_series_7_b.png"" style=""width: 300px; height: 300px;"" />
                   </div>","null","7","2","B","",""
"","","","","","html-keyboard-response","67","569041","0.0-55.0","090BA72D8DFF4584952324D744C3AE6E","0199d603-ac1d-7112-8882-bcffc779822f","0199d5ef-c7d4-7cab-a194-b2c3afbaf8e8","","null","<div style=""display: flex; justify-content: center; align-items: center;"">
                     <img src=""images/causal/causal_series_7/causal_series_7_c.png"" style=""width: 300px; height: 300px;"" />
                   </div>","null","7","2","C","",""
"","","","","","html-button-response","68","571292","0.0-56.0","090BA72D8DFF4584952324D744C3AE6E","0199d603-ac1d-7112-8882-bcffc779822f","0199d5ef-c7d4-7cab-a194-b2c3afbaf8e8","","2250","
        <div style=""display: flex; justify-content: center; align-items: center;"">
          <img src=""images/red_deck_2.png"" style=""width: 300px; height: 300px; margin-right: 10px;"" />
          <img src=""images/blue_deck_1.png"" style=""width: 300px; height: 300px;"" />
        </div>","0","7","2","choice","0",""
"","","","","","html-keyboard-response","69","577295","0.0-57.0-0.0-0.0","090BA72D8DFF4584952324D744C3AE6E","0199d603-ac1d-7112-8882-bcffc779822f","0199d5ef-c7d4-7cab-a194-b2c3afbaf8e8","","null","<div style=""display: flex; justify-content: center; align-items: center;"">
                     <img src=""images/causal/causal_series_7/causal_series_7_d.png"" style=""width: 300px; height: 300px;"" />
                   </div>","null","7","2","D","",""
"","","","","","html-keyboard-response","70","583296","0.0-57.0-0.0-1.0","090BA72D8DFF4584952324D744C3AE6E","0199d603-ac1d-7112-8882-bcffc779822f","0199d5ef-c7d4-7cab-a194-b2c3afbaf8e8","","null","<div style=""display: flex; justify-content: center; align-items: center;"">
                     <img src=""images/causal/causal_series_7/causal_series_7_e.png"" style=""width: 300px; height: 300px;"" />
                   </div>","null","7","2","E","",""
"","","","","","html-keyboard-response","71","589306","0.0-57.0-0.0-2.0","090BA72D8DFF4584952324D744C3AE6E","0199d603-ac1d-7112-8882-bcffc779822f","0199d5ef-c7d4-7cab-a194-b2c3afbaf8e8","","null","<div style=""display: flex; justify-content: center; align-items: center;"">
                     <img src=""images/causal/causal_series_7/causal_series_7_f.png"" style=""width: 300px; height: 300px;"" />
                   </div>","null","7","2","F","",""
"","","","","","survey-likert","72","592747","0.0-58.0","090BA72D8DFF4584952324D744C3AE6E","0199d603-ac1d-7112-8882-bcffc779822f","0199d5ef-c7d4-7cab-a194-b2c3afbaf8e8","","3440","","{""Q0"":4}","7","2","surprise_rating","","[0]"
"","","","","","survey-likert","73","595210","0.0-59.0","090BA72D8DFF4584952324D744C3AE6E","0199d603-ac1d-7112-8882-bcffc779822f","0199d5ef-c7d4-7cab-a194-b2c3afbaf8e8","","2463","","{""Q0"":4}","7","2","enjoyment_rating","","[0]"
"","","","","","html-keyboard-response","74","601214","0.0-60.0","090BA72D8DFF4584952324D744C3AE6E","0199d603-ac1d-7112-8882-bcffc779822f","0199d5ef-c7d4-7cab-a194-b2c3afbaf8e8","","null","<div style=""display: flex; justify-content: center; align-items: center;"">
                     <img src=""images/other/blank.png"" style=""width: 300px; height: 300px;"" />
                   </div>","null","0","0","blank","",""
"","","","","","html-keyboard-response","75","607219","0.0-61.0","090BA72D8DFF4584952324D744C3AE6E","0199d603-ac1d-7112-8882-bcffc779822f","0199d5ef-c7d4-7cab-a194-b2c3afbaf8e8","","null","<div style=""display: flex; justify-content: center; align-items: center;"">
                     <img src=""images/causal/causal_series_6/causal_series_6_a.png"" style=""width: 300px; height: 300px;"" />
                   </div>","null","6","2","A","",""
"","","","","","html-keyboard-response","76","613230","0.0-62.0","090BA72D8DFF4584952324D744C3AE6E","0199d603-ac1d-7112-8882-bcffc779822f","0199d5ef-c7d4-7cab-a194-b2c3afbaf8e8","","null","<div style=""display: flex; justify-content: center; align-items: center;"">
                     <img src=""images/causal/causal_series_6/causal_series_6_b.png"" style=""width: 300px; height: 300px;"" />
                   </div>","null","6","2","B","",""
"","","","","","html-keyboard-response","77","619242","0.0-63.0","090BA72D8DFF4584952324D744C3AE6E","0199d603-ac1d-7112-8882-bcffc779822f","0199d5ef-c7d4-7cab-a194-b2c3afbaf8e8","","null","<div style=""display: flex; justify-content: center; align-items: center;"">
                     <img src=""images/causal/causal_series_6/causal_series_6_c.png"" style=""width: 300px; height: 300px;"" />
                   </div>","null","6","2","C","",""
"","","","","","html-button-response","78","620542","0.0-64.0","090BA72D8DFF4584952324D744C3AE6E","0199d603-ac1d-7112-8882-bcffc779822f","0199d5ef-c7d4-7cab-a194-b2c3afbaf8e8","","1299","
        <div style=""display: flex; justify-content: center; align-items: center;"">
          <img src=""images/red_deck_2.png"" style=""width: 300px; height: 300px; margin-right: 10px;"" />
          <img src=""images/blue_deck_1.png"" style=""width: 300px; height: 300px;"" />
        </div>","0","6","2","choice","0",""
"","","","","","html-keyboard-response","79","626554","0.0-65.0-0.0-0.0","090BA72D8DFF4584952324D744C3AE6E","0199d603-ac1d-7112-8882-bcffc779822f","0199d5ef-c7d4-7cab-a194-b2c3afbaf8e8","","null","<div style=""display: flex; justify-content: center; align-items: center;"">
                     <img src=""images/causal/causal_series_6/causal_series_6_d.png"" style=""width: 300px; height: 300px;"" />
                   </div>","null","6","2","D","",""
"","","","","","html-keyboard-response","80","632567","0.0-65.0-0.0-1.0","090BA72D8DFF4584952324D744C3AE6E","0199d603-ac1d-7112-8882-bcffc779822f","0199d5ef-c7d4-7cab-a194-b2c3afbaf8e8","","null","<div style=""display: flex; justify-content: center; align-items: center;"">
                     <img src=""images/causal/causal_series_6/causal_series_6_e.png"" style=""width: 300px; height: 300px;"" />
                   </div>","null","6","2","E","",""
"","","","","","html-keyboard-response","81","638575","0.0-65.0-0.0-2.0","090BA72D8DFF4584952324D744C3AE6E","0199d603-ac1d-7112-8882-bcffc779822f","0199d5ef-c7d4-7cab-a194-b2c3afbaf8e8","","null","<div style=""display: flex; justify-content: center; align-items: center;"">
                     <img src=""images/causal/causal_series_6/causal_series_6_f.png"" style=""width: 300px; height: 300px;"" />
                   </div>","null","6","2","F","",""
"","","","","","survey-likert","82","642025","0.0-66.0","090BA72D8DFF4584952324D744C3AE6E","0199d603-ac1d-7112-8882-bcffc779822f","0199d5ef-c7d4-7cab-a194-b2c3afbaf8e8","","3450","","{""Q0"":3}","6","2","surprise_rating","","[0]"
"","","","","","survey-likert","83","644058","0.0-67.0","090BA72D8DFF4584952324D744C3AE6E","0199d603-ac1d-7112-8882-bcffc779822f","0199d5ef-c7d4-7cab-a194-b2c3afbaf8e8","","2033","","{""Q0"":4}","6","2","enjoyment_rating","","[0]"
"","","","","","html-keyboard-response","84","650065","0.0-68.0","090BA72D8DFF4584952324D744C3AE6E","0199d603-ac1d-7112-8882-bcffc779822f","0199d5ef-c7d4-7cab-a194-b2c3afbaf8e8","","null","<div style=""display: flex; justify-content: center; align-items: center;"">
                     <img src=""images/other/blank.png"" style=""width: 300px; height: 300px;"" />
                   </div>","null","0","0","blank","",""
"","","","","","html-keyboard-response","85","656075","0.0-69.0","090BA72D8DFF4584952324D744C3AE6E","0199d603-ac1d-7112-8882-bcffc779822f","0199d5ef-c7d4-7cab-a194-b2c3afbaf8e8","","null","<div style=""display: flex; justify-content: center; align-items: center;"">
                     <img src=""images/causal/causal_series_10/causal_series_10_a.png"" style=""width: 300px; height: 300px;"" />
                   </div>","null","10","2","A","",""
"","","","","","html-keyboard-response","86","662090","0.0-70.0","090BA72D8DFF4584952324D744C3AE6E","0199d603-ac1d-7112-8882-bcffc779822f","0199d5ef-c7d4-7cab-a194-b2c3afbaf8e8","","null","<div style=""display: flex; justify-content: center; align-items: center;"">
                     <img src=""images/causal/causal_series_10/causal_series_10_b.png"" style=""width: 300px; height: 300px;"" />
                   </div>","null","10","2","B","",""
"","","","","","html-keyboard-response","87","668102","0.0-71.0","090BA72D8DFF4584952324D744C3AE6E","0199d603-ac1d-7112-8882-bcffc779822f","0199d5ef-c7d4-7cab-a194-b2c3afbaf8e8","","null","<div style=""display: flex; justify-content: center; align-items: center;"">
                     <img src=""images/causal/causal_series_10/causal_series_10_c.png"" style=""width: 300px; height: 300px;"" />
                   </div>","null","10","2","C","",""
"","","","","","html-button-response","88","671065","0.0-72.0","090BA72D8DFF4584952324D744C3AE6E","0199d603-ac1d-7112-8882-bcffc779822f","0199d5ef-c7d4-7cab-a194-b2c3afbaf8e8","","2963","
        <div style=""display: flex; justify-content: center; align-items: center;"">
          <img src=""images/red_deck_2.png"" style=""width: 300px; height: 300px; margin-right: 10px;"" />
          <img src=""images/blue_deck_1.png"" style=""width: 300px; height: 300px;"" />
        </div>","0","10","2","choice","0",""
"","","","","","html-keyboard-response","89","677075","0.0-73.0-0.0-0.0","090BA72D8DFF4584952324D744C3AE6E","0199d603-ac1d-7112-8882-bcffc779822f","0199d5ef-c7d4-7cab-a194-b2c3afbaf8e8","","null","<div style=""display: flex; justify-content: center; align-items: center;"">
                     <img src=""images/causal/causal_series_10/causal_series_10_d.png"" style=""width: 300px; height: 300px;"" />
                   </div>","null","10","2","D","",""
"","","","","","html-keyboard-response","90","683083","0.0-73.0-0.0-1.0","090BA72D8DFF4584952324D744C3AE6E","0199d603-ac1d-7112-8882-bcffc779822f","0199d5ef-c7d4-7cab-a194-b2c3afbaf8e8","","null","<div style=""display: flex; justify-content: center; align-items: center;"">
                     <img src=""images/causal/causal_series_10/causal_series_10_e.png"" style=""width: 300px; height: 300px;"" />
                   </div>","null","10","2","E","",""
"","","","","","html-keyboard-response","91","689098","0.0-73.0-0.0-2.0","090BA72D8DFF4584952324D744C3AE6E","0199d603-ac1d-7112-8882-bcffc779822f","0199d5ef-c7d4-7cab-a194-b2c3afbaf8e8","","null","<div style=""display: flex; justify-content: center; align-items: center;"">
                     <img src=""images/causal/causal_series_10/causal_series_10_f.png"" style=""width: 300px; height: 300px;"" />
                   </div>","null","10","2","F","",""
"","","","","","survey-likert","92","691293","0.0-74.0","090BA72D8DFF4584952324D744C3AE6E","0199d603-ac1d-7112-8882-bcffc779822f","0199d5ef-c7d4-7cab-a194-b2c3afbaf8e8","","2194","","{""Q0"":4}","10","2","surprise_rating","","[0]"
"","","","","","survey-likert","93","693419","0.0-75.0","090BA72D8DFF4584952324D744C3AE6E","0199d603-ac1d-7112-8882-bcffc779822f","0199d5ef-c7d4-7cab-a194-b2c3afbaf8e8","","2126","","{""Q0"":4}","10","2","enjoyment_rating","","[0]"
"","","","","","html-keyboard-response","94","699425","0.0-76.0","090BA72D8DFF4584952324D744C3AE6E","0199d603-ac1d-7112-8882-bcffc779822f","0199d5ef-c7d4-7cab-a194-b2c3afbaf8e8","","null","<div style=""display: flex; justify-content: center; align-items: center;"">
                     <img src=""images/other/blank.png"" style=""width: 300px; height: 300px;"" />
                   </div>","null","0","0","blank","",""
"","","","","","html-keyboard-response","95","705429","0.0-77.0","090BA72D8DFF4584952324D744C3AE6E","0199d603-ac1d-7112-8882-bcffc779822f","0199d5ef-c7d4-7cab-a194-b2c3afbaf8e8","","null","<div style=""display: flex; justify-content: center; align-items: center;"">
                     <img src=""images/causal/causal_series_1/causal_series_1_a.png"" style=""width: 300px; height: 300px;"" />
                   </div>","null","1","2","A","",""
"","","","","","html-keyboard-response","96","711430","0.0-78.0","090BA72D8DFF4584952324D744C3AE6E","0199d603-ac1d-7112-8882-bcffc779822f","0199d5ef-c7d4-7cab-a194-b2c3afbaf8e8","","null","<div style=""display: flex; justify-content: center; align-items: center;"">
                     <img src=""images/causal/causal_series_1/causal_series_1_b.png"" style=""width: 300px; height: 300px;"" />
                   </div>","null","1","2","B","",""
"","","","","","html-keyboard-response","97","717433","0.0-79.0","090BA72D8DFF4584952324D744C3AE6E","0199d603-ac1d-7112-8882-bcffc779822f","0199d5ef-c7d4-7cab-a194-b2c3afbaf8e8","","null","<div style=""display: flex; justify-content: center; align-items: center;"">
                     <img src=""images/causal/causal_series_1/causal_series_1_c.png"" style=""width: 300px; height: 300px;"" />
                   </div>","null","1","2","C","",""
"","","","","","html-button-response","98","718918","0.0-80.0","090BA72D8DFF4584952324D744C3AE6E","0199d603-ac1d-7112-8882-bcffc779822f","0199d5ef-c7d4-7cab-a194-b2c3afbaf8e8","","1484","
        <div style=""display: flex; justify-content: center; align-items: center;"">
          <img src=""images/red_deck_2.png"" style=""width: 300px; height: 300px; margin-right: 10px;"" />
          <img src=""images/blue_deck_1.png"" style=""width: 300px; height: 300px;"" />
        </div>","0","1","2","choice","0",""
"","","","","","html-keyboard-response","99","724925","0.0-81.0-0.0-0.0","090BA72D8DFF4584952324D744C3AE6E","0199d603-ac1d-7112-8882-bcffc779822f","0199d5ef-c7d4-7cab-a194-b2c3afbaf8e8","","null","<div style=""display: flex; justify-content: center; align-items: center;"">
                     <img src=""images/causal/causal_series_1/causal_series_1_d.png"" style=""width: 300px; height: 300px;"" />
                   </div>","null","1","2","D","",""
"","","","","","html-keyboard-response","100","730939","0.0-81.0-0.0-1.0","090BA72D8DFF4584952324D744C3AE6E","0199d603-ac1d-7112-8882-bcffc779822f","0199d5ef-c7d4-7cab-a194-b2c3afbaf8e8","","null","<div style=""display: flex; justify-content: center; align-items: center;"">
                     <img src=""images/causal/causal_series_1/causal_series_1_e.png"" style=""width: 300px; height: 300px;"" />
                   </div>","null","1","2","E","",""
"","","","","","html-keyboard-response","101","736947","0.0-81.0-0.0-2.0","090BA72D8DFF4584952324D744C3AE6E","0199d603-ac1d-7112-8882-bcffc779822f","0199d5ef-c7d4-7cab-a194-b2c3afbaf8e8","","null","<div style=""display: flex; justify-content: center; align-items: center;"">
                     <img src=""images/causal/causal_series_1/causal_series_1_f.png"" style=""width: 300px; height: 300px;"" />
                   </div>","null","1","2","F","",""
"","","","","","survey-likert","102","739840","0.0-82.0","090BA72D8DFF4584952324D744C3AE6E","0199d603-ac1d-7112-8882-bcffc779822f","0199d5ef-c7d4-7cab-a194-b2c3afbaf8e8","","2893","","{""Q0"":4}","1","2","surprise_rating","","[0]"
"","","","","","survey-likert","103","741886","0.0-83.0","090BA72D8DFF4584952324D744C3AE6E","0199d603-ac1d-7112-8882-bcffc779822f","0199d5ef-c7d4-7cab-a194-b2c3afbaf8e8","","2046","","{""Q0"":4}","1","2","enjoyment_rating","","[0]"
"","","","","","html-keyboard-response","104","747897","0.0-84.0","090BA72D8DFF4584952324D744C3AE6E","0199d603-ac1d-7112-8882-bcffc779822f","0199d5ef-c7d4-7cab-a194-b2c3afbaf8e8","","null","<div style=""display: flex; justify-content: center; align-items: center;"">
                     <img src=""images/other/blank.png"" style=""width: 300px; height: 300px;"" />
                   </div>","null","0","0","blank","",""
"","","","","","html-keyboard-response","105","753902","0.0-85.0","090BA72D8DFF4584952324D744C3AE6E","0199d603-ac1d-7112-8882-bcffc779822f","0199d5ef-c7d4-7cab-a194-b2c3afbaf8e8","","null","<div style=""display: flex; justify-content: center; align-items: center;"">
                     <img src=""images/causal/causal_series_10/causal_series_10_a.png"" style=""width: 300px; height: 300px;"" />
                   </div>","null","10","1","A","",""
"","","","","","html-keyboard-response","106","759917","0.0-86.0","090BA72D8DFF4584952324D744C3AE6E","0199d603-ac1d-7112-8882-bcffc779822f","0199d5ef-c7d4-7cab-a194-b2c3afbaf8e8","","null","<div style=""display: flex; justify-content: center; align-items: center;"">
                     <img src=""images/causal/causal_series_10/causal_series_10_b.png"" style=""width: 300px; height: 300px;"" />
                   </div>","null","10","1","B","",""
"","","","","","html-keyboard-response","107","765918","0.0-87.0","090BA72D8DFF4584952324D744C3AE6E","0199d603-ac1d-7112-8882-bcffc779822f","0199d5ef-c7d4-7cab-a194-b2c3afbaf8e8","","null","<div style=""display: flex; justify-content: center; align-items: center;"">
                     <img src=""images/causal/causal_series_10/causal_series_10_c.png"" style=""width: 300px; height: 300px;"" />
                   </div>","null","10","1","C","",""
"","","","","","html-button-response","108","767071","0.0-88.0","090BA72D8DFF4584952324D744C3AE6E","0199d603-ac1d-7112-8882-bcffc779822f","0199d5ef-c7d4-7cab-a194-b2c3afbaf8e8","","1152","
        <div style=""display: flex; justify-content: center; align-items: center;"">
          <img src=""images/red_deck_2.png"" style=""width: 300px; height: 300px; margin-right: 10px;"" />
          <img src=""images/blue_deck_1.png"" style=""width: 300px; height: 300px;"" />
        </div>","1","10","1","choice","1",""
"","","","","","html-keyboard-response","109","773073","0.0-89.0-1.0-0.0","090BA72D8DFF4584952324D744C3AE6E","0199d603-ac1d-7112-8882-bcffc779822f","0199d5ef-c7d4-7cab-a194-b2c3afbaf8e8","","null","<div style=""display: flex; justify-content: center; align-items: center;"">
                     <img src=""images/semantic/semantic_series_10/semantic_series_10_d.png"" style=""width: 300px; height: 300px;"" />
                   </div>","null","10","1","D","",""
"","","","","","html-keyboard-response","110","779080","0.0-89.0-1.0-1.0","090BA72D8DFF4584952324D744C3AE6E","0199d603-ac1d-7112-8882-bcffc779822f","0199d5ef-c7d4-7cab-a194-b2c3afbaf8e8","","null","<div style=""display: flex; justify-content: center; align-items: center;"">
                     <img src=""images/semantic/semantic_series_10/semantic_series_10_e.png"" style=""width: 300px; height: 300px;"" />
                   </div>","null","10","1","E","",""
"","","","","","html-keyboard-response","111","785089","0.0-89.0-1.0-2.0","090BA72D8DFF4584952324D744C3AE6E","0199d603-ac1d-7112-8882-bcffc779822f","0199d5ef-c7d4-7cab-a194-b2c3afbaf8e8","","null","<div style=""display: flex; justify-content: center; align-items: center;"">
                     <img src=""images/semantic/semantic_series_10/semantic_series_10_f.png"" style=""width: 300px; height: 300px;"" />
                   </div>","null","10","1","F","",""
"","","","","","survey-likert","112","788156","0.0-90.0","090BA72D8DFF4584952324D744C3AE6E","0199d603-ac1d-7112-8882-bcffc779822f","0199d5ef-c7d4-7cab-a194-b2c3afbaf8e8","","3067","","{""Q0"":4}","10","1","surprise_rating","","[0]"
"","","","","","survey-likert","113","791628","0.0-91.0","090BA72D8DFF4584952324D744C3AE6E","0199d603-ac1d-7112-8882-bcffc779822f","0199d5ef-c7d4-7cab-a194-b2c3afbaf8e8","","3471","","{""Q0"":2}","10","1","enjoyment_rating","","[0]"
"","","","","","html-keyboard-response","114","797639","0.0-92.0","090BA72D8DFF4584952324D744C3AE6E","0199d603-ac1d-7112-8882-bcffc779822f","0199d5ef-c7d4-7cab-a194-b2c3afbaf8e8","","null","<div style=""display: flex; justify-content: center; align-items: center;"">
                     <img src=""images/other/blank.png"" style=""width: 300px; height: 300px;"" />
                   </div>","null","0","0","blank","",""
"","","","","","html-keyboard-response","115","803650","0.0-93.0","090BA72D8DFF4584952324D744C3AE6E","0199d603-ac1d-7112-8882-bcffc779822f","0199d5ef-c7d4-7cab-a194-b2c3afbaf8e8","","null","<div style=""display: flex; justify-content: center; align-items: center;"">
                     <img src=""images/causal/causal_series_8/causal_series_8_a.png"" style=""width: 300px; height: 300px;"" />
                   </div>","null","8","2","A","",""
"","","","","","html-keyboard-response","116","809654","0.0-94.0","090BA72D8DFF4584952324D744C3AE6E","0199d603-ac1d-7112-8882-bcffc779822f","0199d5ef-c7d4-7cab-a194-b2c3afbaf8e8","","null","<div style=""display: flex; justify-content: center; align-items: center;"">
                     <img src=""images/causal/causal_series_8/causal_series_8_b.png"" style=""width: 300px; height: 300px;"" />
                   </div>","null","8","2","B","",""
"","","","","","html-keyboard-response","117","815660","0.0-95.0","090BA72D8DFF4584952324D744C3AE6E","0199d603-ac1d-7112-8882-bcffc779822f","0199d5ef-c7d4-7cab-a194-b2c3afbaf8e8","","null","<div style=""display: flex; justify-content: center; align-items: center;"">
                     <img src=""images/causal/causal_series_8/causal_series_8_c.png"" style=""width: 300px; height: 300px;"" />
                   </div>","null","8","2","C","",""
"","","","","","html-button-response","118","817346","0.0-96.0","090BA72D8DFF4584952324D744C3AE6E","0199d603-ac1d-7112-8882-bcffc779822f","0199d5ef-c7d4-7cab-a194-b2c3afbaf8e8","","1686","
        <div style=""display: flex; justify-content: center; align-items: center;"">
          <img src=""images/red_deck_2.png"" style=""width: 300px; height: 300px; margin-right: 10px;"" />
          <img src=""images/blue_deck_1.png"" style=""width: 300px; height: 300px;"" />
        </div>","0","8","2","choice","0",""
"","","","","","html-keyboard-response","119","823352","0.0-97.0-0.0-0.0","090BA72D8DFF4584952324D744C3AE6E","0199d603-ac1d-7112-8882-bcffc779822f","0199d5ef-c7d4-7cab-a194-b2c3afbaf8e8","","null","<div style=""display: flex; justify-content: center; align-items: center;"">
                     <img src=""images/causal/causal_series_8/causal_series_8_d.png"" style=""width: 300px; height: 300px;"" />
                   </div>","null","8","2","D","",""
"","","","","","html-keyboard-response","120","829365","0.0-97.0-0.0-1.0","090BA72D8DFF4584952324D744C3AE6E","0199d603-ac1d-7112-8882-bcffc779822f","0199d5ef-c7d4-7cab-a194-b2c3afbaf8e8","","null","<div style=""display: flex; justify-content: center; align-items: center;"">
                     <img src=""images/causal/causal_series_8/causal_series_8_e.png"" style=""width: 300px; height: 300px;"" />
                   </div>","null","8","2","E","",""
"","","","","","html-keyboard-response","121","835370","0.0-97.0-0.0-2.0","090BA72D8DFF4584952324D744C3AE6E","0199d603-ac1d-7112-8882-bcffc779822f","0199d5ef-c7d4-7cab-a194-b2c3afbaf8e8","","null","<div style=""display: flex; justify-content: center; align-items: center;"">
                     <img src=""images/causal/causal_series_8/causal_series_8_f.png"" style=""width: 300px; height: 300px;"" />
                   </div>","null","8","2","F","",""
"","","","","","survey-likert","122","838154","0.0-98.0","090BA72D8DFF4584952324D744C3AE6E","0199d603-ac1d-7112-8882-bcffc779822f","0199d5ef-c7d4-7cab-a194-b2c3afbaf8e8","","2783","","{""Q0"":4}","8","2","surprise_rating","","[0]"
"","","","","","survey-likert","123","841559","0.0-99.0","090BA72D8DFF4584952324D744C3AE6E","0199d603-ac1d-7112-8882-bcffc779822f","0199d5ef-c7d4-7cab-a194-b2c3afbaf8e8","","3404","","{""Q0"":4}","8","2","enjoyment_rating","","[0]"
"","","","","","html-keyboard-response","124","847561","0.0-100.0","090BA72D8DFF4584952324D744C3AE6E","0199d603-ac1d-7112-8882-bcffc779822f","0199d5ef-c7d4-7cab-a194-b2c3afbaf8e8","","null","<div style=""display: flex; justify-content: center; align-items: center;"">
                     <img src=""images/other/blank.png"" style=""width: 300px; height: 300px;"" />
                   </div>","null","0","0","blank","",""
"","","","","","html-keyboard-response","125","853565","0.0-101.0","090BA72D8DFF4584952324D744C3AE6E","0199d603-ac1d-7112-8882-bcffc779822f","0199d5ef-c7d4-7cab-a194-b2c3afbaf8e8","","null","<div style=""display: flex; justify-content: center; align-items: center;"">
                     <img src=""images/causal/causal_series_3/causal_series_3_a.png"" style=""width: 300px; height: 300px;"" />
                   </div>","null","3","1","A","",""
"","","","","","html-keyboard-response","126","859580","0.0-102.0","090BA72D8DFF4584952324D744C3AE6E","0199d603-ac1d-7112-8882-bcffc779822f","0199d5ef-c7d4-7cab-a194-b2c3afbaf8e8","","null","<div style=""display: flex; justify-content: center; align-items: center;"">
                     <img src=""images/causal/causal_series_3/causal_series_3_b.png"" style=""width: 300px; height: 300px;"" />
                   </div>","null","3","1","B","",""
"","","","","","html-keyboard-response","127","865581","0.0-103.0","090BA72D8DFF4584952324D744C3AE6E","0199d603-ac1d-7112-8882-bcffc779822f","0199d5ef-c7d4-7cab-a194-b2c3afbaf8e8","","null","<div style=""display: flex; justify-content: center; align-items: center;"">
                     <img src=""images/causal/causal_series_3/causal_series_3_c.png"" style=""width: 300px; height: 300px;"" />
                   </div>","null","3","1","C","",""
"","","","","","html-button-response","128","867084","0.0-104.0","090BA72D8DFF4584952324D744C3AE6E","0199d603-ac1d-7112-8882-bcffc779822f","0199d5ef-c7d4-7cab-a194-b2c3afbaf8e8","","1502","
        <div style=""display: flex; justify-content: center; align-items: center;"">
          <img src=""images/red_deck_2.png"" style=""width: 300px; height: 300px; margin-right: 10px;"" />
          <img src=""images/blue_deck_1.png"" style=""width: 300px; height: 300px;"" />
        </div>","1","3","1","choice","1",""
"","","","","","html-keyboard-response","129","873097","0.0-105.0-1.0-0.0","090BA72D8DFF4584952324D744C3AE6E","0199d603-ac1d-7112-8882-bcffc779822f","0199d5ef-c7d4-7cab-a194-b2c3afbaf8e8","","null","<div style=""display: flex; justify-content: center; align-items: center;"">
                     <img src=""images/semantic/semantic_series_3/semantic_series_3_d.png"" style=""width: 300px; height: 300px;"" />
                   </div>","null","3","1","D","",""
"","","","","","html-keyboard-response","130","879110","0.0-105.0-1.0-1.0","090BA72D8DFF4584952324D744C3AE6E","0199d603-ac1d-7112-8882-bcffc779822f","0199d5ef-c7d4-7cab-a194-b2c3afbaf8e8","","null","<div style=""display: flex; justify-content: center; align-items: center;"">
                     <img src=""images/semantic/semantic_series_3/semantic_series_3_e.png"" style=""width: 300px; height: 300px;"" />
                   </div>","null","3","1","E","",""
"","","","","","html-keyboard-response","131","885111","0.0-105.0-1.0-2.0","090BA72D8DFF4584952324D744C3AE6E","0199d603-ac1d-7112-8882-bcffc779822f","0199d5ef-c7d4-7cab-a194-b2c3afbaf8e8","","null","<div style=""display: flex; justify-content: center; align-items: center;"">
                     <img src=""images/semantic/semantic_series_3/semantic_series_3_f.png"" style=""width: 300px; height: 300px;"" />
                   </div>","null","3","1","F","",""
"","","","","","survey-likert","132","889720","0.0-106.0","090BA72D8DFF4584952324D744C3AE6E","0199d603-ac1d-7112-8882-bcffc779822f","0199d5ef-c7d4-7cab-a194-b2c3afbaf8e8","","4608","","{""Q0"":4}","3","1","surprise_rating","","[0]"
"","","","","","survey-likert","133","892102","0.0-107.0","090BA72D8DFF4584952324D744C3AE6E","0199d603-ac1d-7112-8882-bcffc779822f","0199d5ef-c7d4-7cab-a194-b2c3afbaf8e8","","2381","","{""Q0"":2}","3","1","enjoyment_rating","","[0]"
"","","","","","html-keyboard-response","134","898114","0.0-108.0","090BA72D8DFF4584952324D744C3AE6E","0199d603-ac1d-7112-8882-bcffc779822f","0199d5ef-c7d4-7cab-a194-b2c3afbaf8e8","","null","<div style=""display: flex; justify-content: center; align-items: center;"">
                     <img src=""images/other/blank.png"" style=""width: 300px; height: 300px;"" />
                   </div>","null","0","0","blank","",""
"","","","","","html-keyboard-response","135","904118","0.0-109.0","090BA72D8DFF4584952324D744C3AE6E","0199d603-ac1d-7112-8882-bcffc779822f","0199d5ef-c7d4-7cab-a194-b2c3afbaf8e8","","null","<div style=""display: flex; justify-content: center; align-items: center;"">
                     <img src=""images/causal/causal_series_3/causal_series_3_a.png"" style=""width: 300px; height: 300px;"" />
                   </div>","null","3","2","A","",""
"","","","","","html-keyboard-response","136","910127","0.0-110.0","090BA72D8DFF4584952324D744C3AE6E","0199d603-ac1d-7112-8882-bcffc779822f","0199d5ef-c7d4-7cab-a194-b2c3afbaf8e8","","null","<div style=""display: flex; justify-content: center; align-items: center;"">
                     <img src=""images/causal/causal_series_3/causal_series_3_b.png"" style=""width: 300px; height: 300px;"" />
                   </div>","null","3","2","B","",""
"","","","","","html-keyboard-response","137","916140","0.0-111.0","090BA72D8DFF4584952324D744C3AE6E","0199d603-ac1d-7112-8882-bcffc779822f","0199d5ef-c7d4-7cab-a194-b2c3afbaf8e8","","null","<div style=""display: flex; justify-content: center; align-items: center;"">
                     <img src=""images/causal/causal_series_3/causal_series_3_c.png"" style=""width: 300px; height: 300px;"" />
                   </div>","null","3","2","C","",""
"","","","","","html-button-response","138","917668","0.0-112.0","090BA72D8DFF4584952324D744C3AE6E","0199d603-ac1d-7112-8882-bcffc779822f","0199d5ef-c7d4-7cab-a194-b2c3afbaf8e8","","1527","
        <div style=""display: flex; justify-content: center; align-items: center;"">
          <img src=""images/red_deck_2.png"" style=""width: 300px; height: 300px; margin-right: 10px;"" />
          <img src=""images/blue_deck_1.png"" style=""width: 300px; height: 300px;"" />
        </div>","0","3","2","choice","0",""
"","","","","","html-keyboard-response","139","923675","0.0-113.0-0.0-0.0","090BA72D8DFF4584952324D744C3AE6E","0199d603-ac1d-7112-8882-bcffc779822f","0199d5ef-c7d4-7cab-a194-b2c3afbaf8e8","","null","<div style=""display: flex; justify-content: center; align-items: center;"">
                     <img src=""images/causal/causal_series_3/causal_series_3_d.png"" style=""width: 300px; height: 300px;"" />
                   </div>","null","3","2","D","",""
"","","","","","html-keyboard-response","140","929690","0.0-113.0-0.0-1.0","090BA72D8DFF4584952324D744C3AE6E","0199d603-ac1d-7112-8882-bcffc779822f","0199d5ef-c7d4-7cab-a194-b2c3afbaf8e8","","null","<div style=""display: flex; justify-content: center; align-items: center;"">
                     <img src=""images/causal/causal_series_3/causal_series_3_e.png"" style=""width: 300px; height: 300px;"" />
                   </div>","null","3","2","E","",""
"","","","","","html-keyboard-response","141","935691","0.0-113.0-0.0-2.0","090BA72D8DFF4584952324D744C3AE6E","0199d603-ac1d-7112-8882-bcffc779822f","0199d5ef-c7d4-7cab-a194-b2c3afbaf8e8","","null","<div style=""display: flex; justify-content: center; align-items: center;"">
                     <img src=""images/causal/causal_series_3/causal_series_3_f.png"" style=""width: 300px; height: 300px;"" />
                   </div>","null","3","2","F","",""
"","","","","","survey-likert","142","937994","0.0-114.0","090BA72D8DFF4584952324D744C3AE6E","0199d603-ac1d-7112-8882-bcffc779822f","0199d5ef-c7d4-7cab-a194-b2c3afbaf8e8","","2302","","{""Q0"":3}","3","2","surprise_rating","","[0]"
"","","","","","survey-likert","143","940041","0.0-115.0","090BA72D8DFF4584952324D744C3AE6E","0199d603-ac1d-7112-8882-bcffc779822f","0199d5ef-c7d4-7cab-a194-b2c3afbaf8e8","","2046","","{""Q0"":4}","3","2","enjoyment_rating","","[0]"
"","","","","","html-keyboard-response","144","946051","0.0-116.0","090BA72D8DFF4584952324D744C3AE6E","0199d603-ac1d-7112-8882-bcffc779822f","0199d5ef-c7d4-7cab-a194-b2c3afbaf8e8","","null","<div style=""display: flex; justify-content: center; align-items: center;"">
                     <img src=""images/other/blank.png"" style=""width: 300px; height: 300px;"" />
                   </div>","null","0","0","blank","",""
"","","","","","html-keyboard-response","145","952064","0.0-117.0","090BA72D8DFF4584952324D744C3AE6E","0199d603-ac1d-7112-8882-bcffc779822f","0199d5ef-c7d4-7cab-a194-b2c3afbaf8e8","","null","<div style=""display: flex; justify-content: center; align-items: center;"">
                     <img src=""images/causal/causal_series_9/causal_series_9_a.png"" style=""width: 300px; height: 300px;"" />
                   </div>","null","9","1","A","",""
"","","","","","html-keyboard-response","146","958079","0.0-118.0","090BA72D8DFF4584952324D744C3AE6E","0199d603-ac1d-7112-8882-bcffc779822f","0199d5ef-c7d4-7cab-a194-b2c3afbaf8e8","","null","<div style=""display: flex; justify-content: center; align-items: center;"">
                     <img src=""images/causal/causal_series_9/causal_series_9_b.png"" style=""width: 300px; height: 300px;"" />
                   </div>","null","9","1","B","",""
"","","","","","html-keyboard-response","147","964091","0.0-119.0","090BA72D8DFF4584952324D744C3AE6E","0199d603-ac1d-7112-8882-bcffc779822f","0199d5ef-c7d4-7cab-a194-b2c3afbaf8e8","","null","<div style=""display: flex; justify-content: center; align-items: center;"">
                     <img src=""images/causal/causal_series_9/causal_series_9_c.png"" style=""width: 300px; height: 300px;"" />
                   </div>","null","9","1","C","",""
"","","","","","html-button-response","148","965422","0.0-120.0","090BA72D8DFF4584952324D744C3AE6E","0199d603-ac1d-7112-8882-bcffc779822f","0199d5ef-c7d4-7cab-a194-b2c3afbaf8e8","","1330","
        <div style=""display: flex; justify-content: center; align-items: center;"">
          <img src=""images/red_deck_2.png"" style=""width: 300px; height: 300px; margin-right: 10px;"" />
          <img src=""images/blue_deck_1.png"" style=""width: 300px; height: 300px;"" />
        </div>","1","9","1","choice","1",""
"","","","","","html-keyboard-response","149","971435","0.0-121.0-1.0-0.0","090BA72D8DFF4584952324D744C3AE6E","0199d603-ac1d-7112-8882-bcffc779822f","0199d5ef-c7d4-7cab-a194-b2c3afbaf8e8","","null","<div style=""display: flex; justify-content: center; align-items: center;"">
                     <img src=""images/semantic/semantic_series_9/semantic_series_9_d.png"" style=""width: 300px; height: 300px;"" />
                   </div>","null","9","1","D","",""
"","","","","","html-keyboard-response","150","977438","0.0-121.0-1.0-1.0","090BA72D8DFF4584952324D744C3AE6E","0199d603-ac1d-7112-8882-bcffc779822f","0199d5ef-c7d4-7cab-a194-b2c3afbaf8e8","","null","<div style=""display: flex; justify-content: center; align-items: center;"">
                     <img src=""images/semantic/semantic_series_9/semantic_series_9_e.png"" style=""width: 300px; height: 300px;"" />
                   </div>","null","9","1","E","",""
"","","","","","html-keyboard-response","151","983451","0.0-121.0-1.0-2.0","090BA72D8DFF4584952324D744C3AE6E","0199d603-ac1d-7112-8882-bcffc779822f","0199d5ef-c7d4-7cab-a194-b2c3afbaf8e8","","null","<div style=""display: flex; justify-content: center; align-items: center;"">
                     <img src=""images/semantic/semantic_series_9/semantic_series_9_f.png"" style=""width: 300px; height: 300px;"" />
                   </div>","null","9","1","F","",""
"","","","","","survey-likert","152","986266","0.0-122.0","090BA72D8DFF4584952324D744C3AE6E","0199d603-ac1d-7112-8882-bcffc779822f","0199d5ef-c7d4-7cab-a194-b2c3afbaf8e8","","2814","","{""Q0"":4}","9","1","surprise_rating","","[0]"
"","","","","","survey-likert","153","988213","0.0-123.0","090BA72D8DFF4584952324D744C3AE6E","0199d603-ac1d-7112-8882-bcffc779822f","0199d5ef-c7d4-7cab-a194-b2c3afbaf8e8","","1947","","{""Q0"":2}","9","1","enjoyment_rating","","[0]"
"","","","","","html-keyboard-response","154","994223","0.0-124.0","090BA72D8DFF4584952324D744C3AE6E","0199d603-ac1d-7112-8882-bcffc779822f","0199d5ef-c7d4-7cab-a194-b2c3afbaf8e8","","null","<div style=""display: flex; justify-content: center; align-items: center;"">
                     <img src=""images/other/blank.png"" style=""width: 300px; height: 300px;"" />
                   </div>","null","0","0","blank","",""
"","","","","","html-keyboard-response","155","1000235","0.0-125.0","090BA72D8DFF4584952324D744C3AE6E","0199d603-ac1d-7112-8882-bcffc779822f","0199d5ef-c7d4-7cab-a194-b2c3afbaf8e8","","null","<div style=""display: flex; justify-content: center; align-items: center;"">
                     <img src=""images/causal/causal_series_7/causal_series_7_a.png"" style=""width: 300px; height: 300px;"" />
                   </div>","null","7","1","A","",""
"","","","","","html-keyboard-response","156","1006248","0.0-126.0","090BA72D8DFF4584952324D744C3AE6E","0199d603-ac1d-7112-8882-bcffc779822f","0199d5ef-c7d4-7cab-a194-b2c3afbaf8e8","","null","<div style=""display: flex; justify-content: center; align-items: center;"">
                     <img src=""images/causal/causal_series_7/causal_series_7_b.png"" style=""width: 300px; height: 300px;"" />
                   </div>","null","7","1","B","",""
"","","","","","html-keyboard-response","157","1012260","0.0-127.0","090BA72D8DFF4584952324D744C3AE6E","0199d603-ac1d-7112-8882-bcffc779822f","0199d5ef-c7d4-7cab-a194-b2c3afbaf8e8","","null","<div style=""display: flex; justify-content: center; align-items: center;"">
                     <img src=""images/causal/causal_series_7/causal_series_7_c.png"" style=""width: 300px; height: 300px;"" />
                   </div>","null","7","1","C","",""
"","","","","","html-button-response","158","1013422","0.0-128.0","090BA72D8DFF4584952324D744C3AE6E","0199d603-ac1d-7112-8882-bcffc779822f","0199d5ef-c7d4-7cab-a194-b2c3afbaf8e8","","1161","
        <div style=""display: flex; justify-content: center; align-items: center;"">
          <img src=""images/red_deck_2.png"" style=""width: 300px; height: 300px; margin-right: 10px;"" />
          <img src=""images/blue_deck_1.png"" style=""width: 300px; height: 300px;"" />
        </div>","1","7","1","choice","1",""
"","","","","","html-keyboard-response","159","1019422","0.0-129.0-1.0-0.0","090BA72D8DFF4584952324D744C3AE6E","0199d603-ac1d-7112-8882-bcffc779822f","0199d5ef-c7d4-7cab-a194-b2c3afbaf8e8","","null","<div style=""display: flex; justify-content: center; align-items: center;"">
                     <img src=""images/semantic/semantic_series_7/semantic_series_7_d.png"" style=""width: 300px; height: 300px;"" />
                   </div>","null","7","1","D","",""
"","","","","","html-keyboard-response","160","1025431","0.0-129.0-1.0-1.0","090BA72D8DFF4584952324D744C3AE6E","0199d603-ac1d-7112-8882-bcffc779822f","0199d5ef-c7d4-7cab-a194-b2c3afbaf8e8","","null","<div style=""display: flex; justify-content: center; align-items: center;"">
                     <img src=""images/semantic/semantic_series_7/semantic_series_7_e.png"" style=""width: 300px; height: 300px;"" />
                   </div>","null","7","1","E","",""
"","","","","","html-keyboard-response","161","1031433","0.0-129.0-1.0-2.0","090BA72D8DFF4584952324D744C3AE6E","0199d603-ac1d-7112-8882-bcffc779822f","0199d5ef-c7d4-7cab-a194-b2c3afbaf8e8","","null","<div style=""display: flex; justify-content: center; align-items: center;"">
                     <img src=""images/semantic/semantic_series_7/semantic_series_7_f.png"" style=""width: 300px; height: 300px;"" />
                   </div>","null","7","1","F","",""
"","","","","","survey-likert","162","1035202","0.0-130.0","090BA72D8DFF4584952324D744C3AE6E","0199d603-ac1d-7112-8882-bcffc779822f","0199d5ef-c7d4-7cab-a194-b2c3afbaf8e8","","3769","","{""Q0"":4}","7","1","surprise_rating","","[0]"
"","","","","","survey-likert","163","1037004","0.0-131.0","090BA72D8DFF4584952324D744C3AE6E","0199d603-ac1d-7112-8882-bcffc779822f","0199d5ef-c7d4-7cab-a194-b2c3afbaf8e8","","1801","","{""Q0"":2}","7","1","enjoyment_rating","","[0]"
"","","","","","html-keyboard-response","164","1043014","0.0-132.0","090BA72D8DFF4584952324D744C3AE6E","0199d603-ac1d-7112-8882-bcffc779822f","0199d5ef-c7d4-7cab-a194-b2c3afbaf8e8","","null","<div style=""display: flex; justify-content: center; align-items: center;"">
                     <img src=""images/other/blank.png"" style=""width: 300px; height: 300px;"" />
                   </div>","null","0","0","blank","",""
"","","","","","html-keyboard-response","165","1049017","0.0-133.0","090BA72D8DFF4584952324D744C3AE6E","0199d603-ac1d-7112-8882-bcffc779822f","0199d5ef-c7d4-7cab-a194-b2c3afbaf8e8","","null","<div style=""display: flex; justify-content: center; align-items: center;"">
                     <img src=""images/causal/causal_series_2/causal_series_2_a.png"" style=""width: 300px; height: 300px;"" />
                   </div>","null","2","2","A","",""
"","","","","","html-keyboard-response","166","1055030","0.0-134.0","090BA72D8DFF4584952324D744C3AE6E","0199d603-ac1d-7112-8882-bcffc779822f","0199d5ef-c7d4-7cab-a194-b2c3afbaf8e8","","null","<div style=""display: flex; justify-content: center; align-items: center;"">
                     <img src=""images/causal/causal_series_2/causal_series_2_b.png"" style=""width: 300px; height: 300px;"" />
                   </div>","null","2","2","B","",""
"","","","","","html-keyboard-response","167","1061035","0.0-135.0","090BA72D8DFF4584952324D744C3AE6E","0199d603-ac1d-7112-8882-bcffc779822f","0199d5ef-c7d4-7cab-a194-b2c3afbaf8e8","","null","<div style=""display: flex; justify-content: center; align-items: center;"">
                     <img src=""images/causal/causal_series_2/causal_series_2_c.png"" style=""width: 300px; height: 300px;"" />
                   </div>","null","2","2","C","",""
"","","","","","html-button-response","168","1062633","0.0-136.0","090BA72D8DFF4584952324D744C3AE6E","0199d603-ac1d-7112-8882-bcffc779822f","0199d5ef-c7d4-7cab-a194-b2c3afbaf8e8","","1598","
        <div style=""display: flex; justify-content: center; align-items: center;"">
          <img src=""images/red_deck_2.png"" style=""width: 300px; height: 300px; margin-right: 10px;"" />
          <img src=""images/blue_deck_1.png"" style=""width: 300px; height: 300px;"" />
        </div>","0","2","2","choice","0",""
"","","","","","html-keyboard-response","169","1068642","0.0-137.0-0.0-0.0","090BA72D8DFF4584952324D744C3AE6E","0199d603-ac1d-7112-8882-bcffc779822f","0199d5ef-c7d4-7cab-a194-b2c3afbaf8e8","","null","<div style=""display: flex; justify-content: center; align-items: center;"">
                     <img src=""images/causal/causal_series_2/causal_series_2_d.png"" style=""width: 300px; height: 300px;"" />
                   </div>","null","2","2","D","",""
"","","","","","html-keyboard-response","170","1074651","0.0-137.0-0.0-1.0","090BA72D8DFF4584952324D744C3AE6E","0199d603-ac1d-7112-8882-bcffc779822f","0199d5ef-c7d4-7cab-a194-b2c3afbaf8e8","","null","<div style=""display: flex; justify-content: center; align-items: center;"">
                     <img src=""images/causal/causal_series_2/causal_series_2_e.png"" style=""width: 300px; height: 300px;"" />
                   </div>","null","2","2","E","",""
"","","","","","html-keyboard-response","171","1080666","0.0-137.0-0.0-2.0","090BA72D8DFF4584952324D744C3AE6E","0199d603-ac1d-7112-8882-bcffc779822f","0199d5ef-c7d4-7cab-a194-b2c3afbaf8e8","","null","<div style=""display: flex; justify-content: center; align-items: center;"">
                     <img src=""images/causal/causal_series_2/causal_series_2_f.png"" style=""width: 300px; height: 300px;"" />
                   </div>","null","2","2","F","",""
"","","","","","survey-likert","172","1083203","0.0-138.0","090BA72D8DFF4584952324D744C3AE6E","0199d603-ac1d-7112-8882-bcffc779822f","0199d5ef-c7d4-7cab-a194-b2c3afbaf8e8","","2536","","{""Q0"":4}","2","2","surprise_rating","","[0]"
"","","","","","survey-likert","173","1085385","0.0-139.0","090BA72D8DFF4584952324D744C3AE6E","0199d603-ac1d-7112-8882-bcffc779822f","0199d5ef-c7d4-7cab-a194-b2c3afbaf8e8","","2182","","{""Q0"":4}","2","2","enjoyment_rating","","[0]"
"","","","","","html-keyboard-response","174","1091402","0.0-140.0","090BA72D8DFF4584952324D744C3AE6E","0199d603-ac1d-7112-8882-bcffc779822f","0199d5ef-c7d4-7cab-a194-b2c3afbaf8e8","","null","<div style=""display: flex; justify-content: center; align-items: center;"">
                     <img src=""images/other/blank.png"" style=""width: 300px; height: 300px;"" />
                   </div>","null","0","0","blank","",""
"","","","","","html-keyboard-response","175","1097404","0.0-141.0","090BA72D8DFF4584952324D744C3AE6E","0199d603-ac1d-7112-8882-bcffc779822f","0199d5ef-c7d4-7cab-a194-b2c3afbaf8e8","","null","<div style=""display: flex; justify-content: center; align-items: center;"">
                     <img src=""images/causal/causal_series_8/causal_series_8_a.png"" style=""width: 300px; height: 300px;"" />
                   </div>","null","8","1","A","",""
"","","","","","html-keyboard-response","176","1103410","0.0-142.0","090BA72D8DFF4584952324D744C3AE6E","0199d603-ac1d-7112-8882-bcffc779822f","0199d5ef-c7d4-7cab-a194-b2c3afbaf8e8","","null","<div style=""display: flex; justify-content: center; align-items: center;"">
                     <img src=""images/causal/causal_series_8/causal_series_8_b.png"" style=""width: 300px; height: 300px;"" />
                   </div>","null","8","1","B","",""
"","","","","","html-keyboard-response","177","1109417","0.0-143.0","090BA72D8DFF4584952324D744C3AE6E","0199d603-ac1d-7112-8882-bcffc779822f","0199d5ef-c7d4-7cab-a194-b2c3afbaf8e8","","null","<div style=""display: flex; justify-content: center; align-items: center;"">
                     <img src=""images/causal/causal_series_8/causal_series_8_c.png"" style=""width: 300px; height: 300px;"" />
                   </div>","null","8","1","C","",""
"","","","","","html-button-response","178","1110941","0.0-144.0","090BA72D8DFF4584952324D744C3AE6E","0199d603-ac1d-7112-8882-bcffc779822f","0199d5ef-c7d4-7cab-a194-b2c3afbaf8e8","","1523","
        <div style=""display: flex; justify-content: center; align-items: center;"">
          <img src=""images/red_deck_2.png"" style=""width: 300px; height: 300px; margin-right: 10px;"" />
          <img src=""images/blue_deck_1.png"" style=""width: 300px; height: 300px;"" />
        </div>","1","8","1","choice","1",""
"","","","","","html-keyboard-response","179","1116957","0.0-145.0-1.0-0.0","090BA72D8DFF4584952324D744C3AE6E","0199d603-ac1d-7112-8882-bcffc779822f","0199d5ef-c7d4-7cab-a194-b2c3afbaf8e8","","null","<div style=""display: flex; justify-content: center; align-items: center;"">
                     <img src=""images/semantic/semantic_series_8/semantic_series_8_d.png"" style=""width: 300px; height: 300px;"" />
                   </div>","null","8","1","D","",""
"","","","","","html-keyboard-response","180","1122969","0.0-145.0-1.0-1.0","090BA72D8DFF4584952324D744C3AE6E","0199d603-ac1d-7112-8882-bcffc779822f","0199d5ef-c7d4-7cab-a194-b2c3afbaf8e8","","null","<div style=""display: flex; justify-content: center; align-items: center;"">
                     <img src=""images/semantic/semantic_series_8/semantic_series_8_e.png"" style=""width: 300px; height: 300px;"" />
                   </div>","null","8","1","E","",""
"","","","","","html-keyboard-response","181","1128972","0.0-145.0-1.0-2.0","090BA72D8DFF4584952324D744C3AE6E","0199d603-ac1d-7112-8882-bcffc779822f","0199d5ef-c7d4-7cab-a194-b2c3afbaf8e8","","null","<div style=""display: flex; justify-content: center; align-items: center;"">
                     <img src=""images/semantic/semantic_series_8/semantic_series_8_f.png"" style=""width: 300px; height: 300px;"" />
                   </div>","null","8","1","F","",""
"","","","","","survey-likert","182","1132827","0.0-146.0","090BA72D8DFF4584952324D744C3AE6E","0199d603-ac1d-7112-8882-bcffc779822f","0199d5ef-c7d4-7cab-a194-b2c3afbaf8e8","","3855","","{""Q0"":4}","8","1","surprise_rating","","[0]"
"","","","","","survey-likert","183","1134670","0.0-147.0","090BA72D8DFF4584952324D744C3AE6E","0199d603-ac1d-7112-8882-bcffc779822f","0199d5ef-c7d4-7cab-a194-b2c3afbaf8e8","","1842","","{""Q0"":2}","8","1","enjoyment_rating","","[0]"
"","","","","","html-keyboard-response","184","1140680","0.0-148.0","090BA72D8DFF4584952324D744C3AE6E","0199d603-ac1d-7112-8882-bcffc779822f","0199d5ef-c7d4-7cab-a194-b2c3afbaf8e8","","null","<div style=""display: flex; justify-content: center; align-items: center;"">
                     <img src=""images/other/blank.png"" style=""width: 300px; height: 300px;"" />
                   </div>","null","0","0","blank","",""
"","","","","","html-keyboard-response","185","1146691","0.0-149.0","090BA72D8DFF4584952324D744C3AE6E","0199d603-ac1d-7112-8882-bcffc779822f","0199d5ef-c7d4-7cab-a194-b2c3afbaf8e8","","null","<div style=""display: flex; justify-content: center; align-items: center;"">
                     <img src=""images/causal/causal_series_2/causal_series_2_a.png"" style=""width: 300px; height: 300px;"" />
                   </div>","null","2","1","A","",""
"","","","","","html-keyboard-response","186","1152706","0.0-150.0","090BA72D8DFF4584952324D744C3AE6E","0199d603-ac1d-7112-8882-bcffc779822f","0199d5ef-c7d4-7cab-a194-b2c3afbaf8e8","","null","<div style=""display: flex; justify-content: center; align-items: center;"">
                     <img src=""images/causal/causal_series_2/causal_series_2_b.png"" style=""width: 300px; height: 300px;"" />
                   </div>","null","2","1","B","",""
"","","","","","html-keyboard-response","187","1158719","0.0-151.0","090BA72D8DFF4584952324D744C3AE6E","0199d603-ac1d-7112-8882-bcffc779822f","0199d5ef-c7d4-7cab-a194-b2c3afbaf8e8","","null","<div style=""display: flex; justify-content: center; align-items: center;"">
                     <img src=""images/causal/causal_series_2/causal_series_2_c.png"" style=""width: 300px; height: 300px;"" />
                   </div>","null","2","1","C","",""
"","","","","","html-button-response","188","1160840","0.0-152.0","090BA72D8DFF4584952324D744C3AE6E","0199d603-ac1d-7112-8882-bcffc779822f","0199d5ef-c7d4-7cab-a194-b2c3afbaf8e8","","2120","
        <div style=""display: flex; justify-content: center; align-items: center;"">
          <img src=""images/red_deck_2.png"" style=""width: 300px; height: 300px; margin-right: 10px;"" />
          <img src=""images/blue_deck_1.png"" style=""width: 300px; height: 300px;"" />
        </div>","0","2","1","choice","0",""
"","","","","","html-keyboard-response","189","1166847","0.0-153.0-0.0-0.0","090BA72D8DFF4584952324D744C3AE6E","0199d603-ac1d-7112-8882-bcffc779822f","0199d5ef-c7d4-7cab-a194-b2c3afbaf8e8","","null","<div style=""display: flex; justify-content: center; align-items: center;"">
                     <img src=""images/causal/causal_series_2/causal_series_2_d.png"" style=""width: 300px; height: 300px;"" />
                   </div>","null","2","1","D","",""
"","","","","","html-keyboard-response","190","1172857","0.0-153.0-0.0-1.0","090BA72D8DFF4584952324D744C3AE6E","0199d603-ac1d-7112-8882-bcffc779822f","0199d5ef-c7d4-7cab-a194-b2c3afbaf8e8","","null","<div style=""display: flex; justify-content: center; align-items: center;"">
                     <img src=""images/causal/causal_series_2/causal_series_2_e.png"" style=""width: 300px; height: 300px;"" />
                   </div>","null","2","1","E","",""
"","","","","","html-keyboard-response","191","1178862","0.0-153.0-0.0-2.0","090BA72D8DFF4584952324D744C3AE6E","0199d603-ac1d-7112-8882-bcffc779822f","0199d5ef-c7d4-7cab-a194-b2c3afbaf8e8","","null","<div style=""display: flex; justify-content: center; align-items: center;"">
                     <img src=""images/causal/causal_series_2/causal_series_2_f.png"" style=""width: 300px; height: 300px;"" />
                   </div>","null","2","1","F","",""
"","","","","","survey-likert","192","1180824","0.0-154.0","090BA72D8DFF4584952324D744C3AE6E","0199d603-ac1d-7112-8882-bcffc779822f","0199d5ef-c7d4-7cab-a194-b2c3afbaf8e8","","1961","","{""Q0"":4}","2","1","surprise_rating","","[0]"
"","","","","","survey-likert","193","1182654","0.0-155.0","090BA72D8DFF4584952324D744C3AE6E","0199d603-ac1d-7112-8882-bcffc779822f","0199d5ef-c7d4-7cab-a194-b2c3afbaf8e8","","1830","","{""Q0"":4}","2","1","enjoyment_rating","","[0]"
"","","","","","html-keyboard-response","194","1188664","0.0-156.0","090BA72D8DFF4584952324D744C3AE6E","0199d603-ac1d-7112-8882-bcffc779822f","0199d5ef-c7d4-7cab-a194-b2c3afbaf8e8","","null","<div style=""display: flex; justify-content: center; align-items: center;"">
                     <img src=""images/other/blank.png"" style=""width: 300px; height: 300px;"" />
                   </div>","null","0","0","blank","",""
"","","","","","html-keyboard-response","195","1194679","0.0-157.0","090BA72D8DFF4584952324D744C3AE6E","0199d603-ac1d-7112-8882-bcffc779822f","0199d5ef-c7d4-7cab-a194-b2c3afbaf8e8","","null","<div style=""display: flex; justify-content: center; align-items: center;"">
                     <img src=""images/causal/causal_series_4/causal_series_4_a.png"" style=""width: 300px; height: 300px;"" />
                   </div>","null","4","2","A","",""
"","","","","","html-keyboard-response","196","1200690","0.0-158.0","090BA72D8DFF4584952324D744C3AE6E","0199d603-ac1d-7112-8882-bcffc779822f","0199d5ef-c7d4-7cab-a194-b2c3afbaf8e8","","null","<div style=""display: flex; justify-content: center; align-items: center;"">
                     <img src=""images/causal/causal_series_4/causal_series_4_b.png"" style=""width: 300px; height: 300px;"" />
                   </div>","null","4","2","B","",""
"","","","","","html-keyboard-response","197","1206702","0.0-159.0","090BA72D8DFF4584952324D744C3AE6E","0199d603-ac1d-7112-8882-bcffc779822f","0199d5ef-c7d4-7cab-a194-b2c3afbaf8e8","","null","<div style=""display: flex; justify-content: center; align-items: center;"">
                     <img src=""images/causal/causal_series_4/causal_series_4_c.png"" style=""width: 300px; height: 300px;"" />
                   </div>","null","4","2","C","",""
"","","","","","html-button-response","198","1208477","0.0-160.0","090BA72D8DFF4584952324D744C3AE6E","0199d603-ac1d-7112-8882-bcffc779822f","0199d5ef-c7d4-7cab-a194-b2c3afbaf8e8","","1774","
        <div style=""display: flex; justify-content: center; align-items: center;"">
          <img src=""images/red_deck_2.png"" style=""width: 300px; height: 300px; margin-right: 10px;"" />
          <img src=""images/blue_deck_1.png"" style=""width: 300px; height: 300px;"" />
        </div>","1","4","2","choice","1",""
"","","","","","html-keyboard-response","199","1214480","0.0-161.0-1.0-0.0","090BA72D8DFF4584952324D744C3AE6E","0199d603-ac1d-7112-8882-bcffc779822f","0199d5ef-c7d4-7cab-a194-b2c3afbaf8e8","","null","<div style=""display: flex; justify-content: center; align-items: center;"">
                     <img src=""images/semantic/semantic_series_4/semantic_series_4_d.png"" style=""width: 300px; height: 300px;"" />
                   </div>","null","4","2","D","",""
"","","","","","html-keyboard-response","200","1220485","0.0-161.0-1.0-1.0","090BA72D8DFF4584952324D744C3AE6E","0199d603-ac1d-7112-8882-bcffc779822f","0199d5ef-c7d4-7cab-a194-b2c3afbaf8e8","","null","<div style=""display: flex; justify-content: center; align-items: center;"">
                     <img src=""images/semantic/semantic_series_4/semantic_series_4_e.png"" style=""width: 300px; height: 300px;"" />
                   </div>","null","4","2","E","",""
"","","","","","html-keyboard-response","201","1226488","0.0-161.0-1.0-2.0","090BA72D8DFF4584952324D744C3AE6E","0199d603-ac1d-7112-8882-bcffc779822f","0199d5ef-c7d4-7cab-a194-b2c3afbaf8e8","","null","<div style=""display: flex; justify-content: center; align-items: center;"">
                     <img src=""images/semantic/semantic_series_4/semantic_series_4_f.png"" style=""width: 300px; height: 300px;"" />
                   </div>","null","4","2","F","",""
"","","","","","survey-likert","202","1229176","0.0-162.0","090BA72D8DFF4584952324D744C3AE6E","0199d603-ac1d-7112-8882-bcffc779822f","0199d5ef-c7d4-7cab-a194-b2c3afbaf8e8","","2688","","{""Q0"":3}","4","2","surprise_rating","","[0]"
"","","","","","survey-likert","203","1231294","0.0-163.0","090BA72D8DFF4584952324D744C3AE6E","0199d603-ac1d-7112-8882-bcffc779822f","0199d5ef-c7d4-7cab-a194-b2c3afbaf8e8","","2117","","{""Q0"":4}","4","2","enjoyment_rating","","[0]"
"","","","","","html-keyboard-response","204","1237306","0.0-164.0","090BA72D8DFF4584952324D744C3AE6E","0199d603-ac1d-7112-8882-bcffc779822f","0199d5ef-c7d4-7cab-a194-b2c3afbaf8e8","","null","<div style=""display: flex; justify-content: center; align-items: center;"">
                     <img src=""images/other/blank.png"" style=""width: 300px; height: 300px;"" />
                   </div>","null","0","0","blank","",""
"","","","","","survey-text","205","1262189","0.0-165.0","090BA72D8DFF4584952324D744C3AE6E","0199d603-ac1d-7112-8882-bcffc779822f","0199d5ef-c7d4-7cab-a194-b2c3afbaf8e8","","24881","","{""Q0"":""Blue seemed more realistic and orderly. Red seemed chaotic and random. ""}","","","","",""
"","","","","","html-button-response","206","1271913","0.0-166.0","090BA72D8DFF4584952324D744C3AE6E","0199d603-ac1d-7112-8882-bcffc779822f","0199d5ef-c7d4-7cab-a194-b2c3afbaf8e8","","9723","Which color deck do the following sentences continue the story from?","0","","","","",""
"","","","","","html-button-response","207","1274015","0.0-167.0","090BA72D8DFF4584952324D744C3AE6E","0199d603-ac1d-7112-8882-bcffc779822f","0199d5ef-c7d4-7cab-a194-b2c3afbaf8e8","","2103","Which color deck do the following sentences NOT follow the story from?","1","","","","",""
"","","","","","html-button-response","208","1279169","0.0-168.0","090BA72D8DFF4584952324D744C3AE6E","0199d603-ac1d-7112-8882-bcffc779822f","0199d5ef-c7d4-7cab-a194-b2c3afbaf8e8","","5153","Which type of deck did you prefer overall?","1","","","","",""
"","","","","","survey-text","209","1285462","0.0-169.0","090BA72D8DFF4584952324D744C3AE6E","0199d603-ac1d-7112-8882-bcffc779822f","0199d5ef-c7d4-7cab-a194-b2c3afbaf8e8","","6291","","{""Q0"":""Female"",""Q1"":""34""}","","","","",""
"","","","","","instructions","210","1289183","0.0-170.0","090BA72D8DFF4584952324D744C3AE6E","0199d603-ac1d-7112-8882-bcffc779822f","0199d5ef-c7d4-7cab-a194-b2c3afbaf8e8","[{""page_index"":0,""viewing_time"":3720}]","3720","","","","","","",""
