"success","timeout","failed_images","failed_audio","failed_video","trial_type","trial_index","time_elapsed","internal_node_id","subject_id","study_id","session_id","view_history","rt","stimulus","response","series","repetition","phase","choice","question_order"
"true","false","[]","[]","[]","preload","0","341","0.0-0.0","FF0BAF21C46C4D9ABA513C417FFA195F","0199d685-b161-77a1-8aad-095f700e223d","0199d675-8795-765b-adc2-c813de8cd3d1","","","","","","","","",""
"","","","","","instructions","1","9272","0.0-1.0","FF0BAF21C46C4D9ABA513C417FFA195F","0199d685-b161-77a1-8aad-095f700e223d","0199d675-8795-765b-adc2-c813de8cd3d1","[{""page_index"":0,""viewing_time"":8930}]","8930","","","","","","",""
"","","","","","instructions","2","67296","0.0-2.0","FF0BAF21C46C4D9ABA513C417FFA195F","0199d685-b161-77a1-8aad-095f700e223d","0199d675-8795-765b-adc2-c813de8cd3d1","[{""page_index"":0,""viewing_time"":58024}]","58024","","","","","","",""
"true","","","","","fullscreen","3","98557","0.0-3.0","FF0BAF21C46C4D9ABA513C417FFA195F","0199d685-b161-77a1-8aad-095f700e223d","0199d675-8795-765b-adc2-c813de8cd3d1","","30246","","","","","","",""
"","","","","","instructions","4","113562","0.0-4.0","FF0BAF21C46C4D9ABA513C417FFA195F","0199d685-b161-77a1-8aad-095f700e223d","0199d675-8795-765b-adc2-c813de8cd3d1","[{""page_index"":0,""viewing_time"":15004}]","15004","","","","","","",""
"","","","","","html-keyboard-response","5","119575","0.0-5.0","FF0BAF21C46C4D9ABA513C417FFA195F","0199d685-b161-77a1-8aad-095f700e223d","0199d675-8795-765b-adc2-c813de8cd3d1","","null","<div style=""display: flex; justify-content: center; align-items: center;"">
                     <img src=""images/causal/causal_series_2/causal_series_2_a.png"" style=""width: 300px; height: 300px;"" />
                   </div>","null","2","1","A","",""
"","","","","","html-button-response","6","124262","0.0-6.0","FF0BAF21C46C4D9ABA513C417FFA195F","0199d685-b161-77a1-8aad-095f700e223d","0199d675-8795-765b-adc2-c813de8cd3d1","","4686","
        <div style=""display: flex; justify-content: center; align-items: center;"">
          <img src=""images/red_deck_2.png"" style=""width: 300px; height: 300px; margin-right: 10px;"" />
          <img src=""images/blue_deck_1.png"" style=""width: 300px; height: 300px;"" />
        </div>","0","2","1","choice","0",""
"","","","","","html-keyboard-response","7","130263","0.0-7.0-0.0-0.0","FF0BAF21C46C4D9ABA513C417FFA195F","0199d685-b161-77a1-8aad-095f700e223d","0199d675-8795-765b-adc2-c813de8cd3d1","","null","<div style=""display: flex; justify-content: center; align-items: center;"">
                     <img src=""images/causal/causal_series_2/causal_series_2_b.png"" style=""width: 300px; height: 300px;"" />
                   </div>","null","2","1","B","",""
"","","","","","html-keyboard-response","8","136278","0.0-7.0-0.0-1.0","FF0BAF21C46C4D9ABA513C417FFA195F","0199d685-b161-77a1-8aad-095f700e223d","0199d675-8795-765b-adc2-c813de8cd3d1","","null","<div style=""display: flex; justify-content: center; align-items: center;"">
                     <img src=""images/causal/causal_series_2/causal_series_2_c.png"" style=""width: 300px; height: 300px;"" />
                   </div>","null","2","1","C","",""
"","","","","","html-keyboard-response","9","142287","0.0-7.0-0.0-2.0","FF0BAF21C46C4D9ABA513C417FFA195F","0199d685-b161-77a1-8aad-095f700e223d","0199d675-8795-765b-adc2-c813de8cd3d1","","null","<div style=""display: flex; justify-content: center; align-items: center;"">
                     <img src=""images/causal/causal_series_2/causal_series_2_d.png"" style=""width: 300px; height: 300px;"" />
                   </div>","null","2","1","D","",""
"","","","","","survey-likert","10","150463","0.0-8.0","FF0BAF21C46C4D9ABA513C417FFA195F","0199d685-b161-77a1-8aad-095f700e223d","0199d675-8795-765b-adc2-c813de8cd3d1","","8174","","{""Q0"":3}","2","1","surprise_rating","","[0]"
"","","","","","survey-likert","11","153984","0.0-9.0","FF0BAF21C46C4D9ABA513C417FFA195F","0199d685-b161-77a1-8aad-095f700e223d","0199d675-8795-765b-adc2-c813de8cd3d1","","3520","","{""Q0"":2}","2","1","enjoyment_rating","","[0]"
"","","","","","html-keyboard-response","12","159997","0.0-10.0","FF0BAF21C46C4D9ABA513C417FFA195F","0199d685-b161-77a1-8aad-095f700e223d","0199d675-8795-765b-adc2-c813de8cd3d1","","null","<div style=""display: flex; justify-content: center; align-items: center;"">
                     <img src=""images/other/blank.png"" style=""width: 300px; height: 300px;"" />
                   </div>","null","0","0","blank","",""
"","","","","","html-keyboard-response","13","165999","0.0-11.0","FF0BAF21C46C4D9ABA513C417FFA195F","0199d685-b161-77a1-8aad-095f700e223d","0199d675-8795-765b-adc2-c813de8cd3d1","","null","<div style=""display: flex; justify-content: center; align-items: center;"">
                     <img src=""images/causal/causal_series_10/causal_series_10_a.png"" style=""width: 300px; height: 300px;"" />
                   </div>","null","10","2","A","",""
"","","","","","html-button-response","14","167618","0.0-12.0","FF0BAF21C46C4D9ABA513C417FFA195F","0199d685-b161-77a1-8aad-095f700e223d","0199d675-8795-765b-adc2-c813de8cd3d1","","1618","
        <div style=""display: flex; justify-content: center; align-items: center;"">
          <img src=""images/red_deck_2.png"" style=""width: 300px; height: 300px; margin-right: 10px;"" />
          <img src=""images/blue_deck_1.png"" style=""width: 300px; height: 300px;"" />
        </div>","0","10","2","choice","0",""
"","","","","","html-keyboard-response","15","173626","0.0-13.0-0.0-0.0","FF0BAF21C46C4D9ABA513C417FFA195F","0199d685-b161-77a1-8aad-095f700e223d","0199d675-8795-765b-adc2-c813de8cd3d1","","null","<div style=""display: flex; justify-content: center; align-items: center;"">
                     <img src=""images/causal/causal_series_10/causal_series_10_b.png"" style=""width: 300px; height: 300px;"" />
                   </div>","null","10","2","B","",""
"","","","","","html-keyboard-response","16","179629","0.0-13.0-0.0-1.0","FF0BAF21C46C4D9ABA513C417FFA195F","0199d685-b161-77a1-8aad-095f700e223d","0199d675-8795-765b-adc2-c813de8cd3d1","","null","<div style=""display: flex; justify-content: center; align-items: center;"">
                     <img src=""images/causal/causal_series_10/causal_series_10_c.png"" style=""width: 300px; height: 300px;"" />
                   </div>","null","10","2","C","",""
"","","","","","html-keyboard-response","17","185641","0.0-13.0-0.0-2.0","FF0BAF21C46C4D9ABA513C417FFA195F","0199d685-b161-77a1-8aad-095f700e223d","0199d675-8795-765b-adc2-c813de8cd3d1","","null","<div style=""display: flex; justify-content: center; align-items: center;"">
                     <img src=""images/causal/causal_series_10/causal_series_10_d.png"" style=""width: 300px; height: 300px;"" />
                   </div>","null","10","2","D","",""
"","","","","","survey-likert","18","189692","0.0-14.0","FF0BAF21C46C4D9ABA513C417FFA195F","0199d685-b161-77a1-8aad-095f700e223d","0199d675-8795-765b-adc2-c813de8cd3d1","","4050","","{""Q0"":4}","10","2","surprise_rating","","[0]"
"","","","","","survey-likert","19","192012","0.0-15.0","FF0BAF21C46C4D9ABA513C417FFA195F","0199d685-b161-77a1-8aad-095f700e223d","0199d675-8795-765b-adc2-c813de8cd3d1","","2319","","{""Q0"":3}","10","2","enjoyment_rating","","[0]"
"","","","","","html-keyboard-response","20","198022","0.0-16.0","FF0BAF21C46C4D9ABA513C417FFA195F","0199d685-b161-77a1-8aad-095f700e223d","0199d675-8795-765b-adc2-c813de8cd3d1","","null","<div style=""display: flex; justify-content: center; align-items: center;"">
                     <img src=""images/other/blank.png"" style=""width: 300px; height: 300px;"" />
                   </div>","null","0","0","blank","",""
"","","","","","html-keyboard-response","21","204026","0.0-17.0","FF0BAF21C46C4D9ABA513C417FFA195F","0199d685-b161-77a1-8aad-095f700e223d","0199d675-8795-765b-adc2-c813de8cd3d1","","null","<div style=""display: flex; justify-content: center; align-items: center;"">
                     <img src=""images/causal/causal_series_7/causal_series_7_a.png"" style=""width: 300px; height: 300px;"" />
                   </div>","null","7","1","A","",""
"","","","","","html-button-response","22","205430","0.0-18.0","FF0BAF21C46C4D9ABA513C417FFA195F","0199d685-b161-77a1-8aad-095f700e223d","0199d675-8795-765b-adc2-c813de8cd3d1","","1403","
        <div style=""display: flex; justify-content: center; align-items: center;"">
          <img src=""images/red_deck_2.png"" style=""width: 300px; height: 300px; margin-right: 10px;"" />
          <img src=""images/blue_deck_1.png"" style=""width: 300px; height: 300px;"" />
        </div>","0","7","1","choice","0",""
"","","","","","html-keyboard-response","23","211431","0.0-19.0-0.0-0.0","FF0BAF21C46C4D9ABA513C417FFA195F","0199d685-b161-77a1-8aad-095f700e223d","0199d675-8795-765b-adc2-c813de8cd3d1","","null","<div style=""display: flex; justify-content: center; align-items: center;"">
                     <img src=""images/causal/causal_series_7/causal_series_7_b.png"" style=""width: 300px; height: 300px;"" />
                   </div>","null","7","1","B","",""
"","","","","","html-keyboard-response","24","217431","0.0-19.0-0.0-1.0","FF0BAF21C46C4D9ABA513C417FFA195F","0199d685-b161-77a1-8aad-095f700e223d","0199d675-8795-765b-adc2-c813de8cd3d1","","null","<div style=""display: flex; justify-content: center; align-items: center;"">
                     <img src=""images/causal/causal_series_7/causal_series_7_c.png"" style=""width: 300px; height: 300px;"" />
                   </div>","null","7","1","C","",""
"","","","","","html-keyboard-response","25","223437","0.0-19.0-0.0-2.0","FF0BAF21C46C4D9ABA513C417FFA195F","0199d685-b161-77a1-8aad-095f700e223d","0199d675-8795-765b-adc2-c813de8cd3d1","","null","<div style=""display: flex; justify-content: center; align-items: center;"">
                     <img src=""images/causal/causal_series_7/causal_series_7_d.png"" style=""width: 300px; height: 300px;"" />
                   </div>","null","7","1","D","",""
"","","","","","survey-likert","26","226144","0.0-20.0","FF0BAF21C46C4D9ABA513C417FFA195F","0199d685-b161-77a1-8aad-095f700e223d","0199d675-8795-765b-adc2-c813de8cd3d1","","2706","","{""Q0"":4}","7","1","surprise_rating","","[0]"
"","","","","","survey-likert","27","232561","0.0-21.0","FF0BAF21C46C4D9ABA513C417FFA195F","0199d685-b161-77a1-8aad-095f700e223d","0199d675-8795-765b-adc2-c813de8cd3d1","","6417","","{""Q0"":1}","7","1","enjoyment_rating","","[0]"
"","","","","","html-keyboard-response","28","238577","0.0-22.0","FF0BAF21C46C4D9ABA513C417FFA195F","0199d685-b161-77a1-8aad-095f700e223d","0199d675-8795-765b-adc2-c813de8cd3d1","","null","<div style=""display: flex; justify-content: center; align-items: center;"">
                     <img src=""images/other/blank.png"" style=""width: 300px; height: 300px;"" />
                   </div>","null","0","0","blank","",""
"","","","","","html-keyboard-response","29","244582","0.0-23.0","FF0BAF21C46C4D9ABA513C417FFA195F","0199d685-b161-77a1-8aad-095f700e223d","0199d675-8795-765b-adc2-c813de8cd3d1","","null","<div style=""display: flex; justify-content: center; align-items: center;"">
                     <img src=""images/causal/causal_series_1/causal_series_1_a.png"" style=""width: 300px; height: 300px;"" />
                   </div>","null","1","1","A","",""
"","","","","","html-button-response","30","245577","0.0-24.0","FF0BAF21C46C4D9ABA513C417FFA195F","0199d685-b161-77a1-8aad-095f700e223d","0199d675-8795-765b-adc2-c813de8cd3d1","","995","
        <div style=""display: flex; justify-content: center; align-items: center;"">
          <img src=""images/red_deck_2.png"" style=""width: 300px; height: 300px; margin-right: 10px;"" />
          <img src=""images/blue_deck_1.png"" style=""width: 300px; height: 300px;"" />
        </div>","0","1","1","choice","0",""
"","","","","","html-keyboard-response","31","251592","0.0-25.0-0.0-0.0","FF0BAF21C46C4D9ABA513C417FFA195F","0199d685-b161-77a1-8aad-095f700e223d","0199d675-8795-765b-adc2-c813de8cd3d1","","null","<div style=""display: flex; justify-content: center; align-items: center;"">
                     <img src=""images/causal/causal_series_1/causal_series_1_b.png"" style=""width: 300px; height: 300px;"" />
                   </div>","null","1","1","B","",""
"","","","","","html-keyboard-response","32","257602","0.0-25.0-0.0-1.0","FF0BAF21C46C4D9ABA513C417FFA195F","0199d685-b161-77a1-8aad-095f700e223d","0199d675-8795-765b-adc2-c813de8cd3d1","","null","<div style=""display: flex; justify-content: center; align-items: center;"">
                     <img src=""images/causal/causal_series_1/causal_series_1_c.png"" style=""width: 300px; height: 300px;"" />
                   </div>","null","1","1","C","",""
"","","","","","html-keyboard-response","33","263611","0.0-25.0-0.0-2.0","FF0BAF21C46C4D9ABA513C417FFA195F","0199d685-b161-77a1-8aad-095f700e223d","0199d675-8795-765b-adc2-c813de8cd3d1","","null","<div style=""display: flex; justify-content: center; align-items: center;"">
                     <img src=""images/causal/causal_series_1/causal_series_1_d.png"" style=""width: 300px; height: 300px;"" />
                   </div>","null","1","1","D","",""
"","","","","","survey-likert","34","266257","0.0-26.0","FF0BAF21C46C4D9ABA513C417FFA195F","0199d685-b161-77a1-8aad-095f700e223d","0199d675-8795-765b-adc2-c813de8cd3d1","","2646","","{""Q0"":3}","1","1","surprise_rating","","[0]"
"","","","","","survey-likert","35","269612","0.0-27.0","FF0BAF21C46C4D9ABA513C417FFA195F","0199d685-b161-77a1-8aad-095f700e223d","0199d675-8795-765b-adc2-c813de8cd3d1","","3355","","{""Q0"":3}","1","1","enjoyment_rating","","[0]"
"","","","","","html-keyboard-response","36","275622","0.0-28.0","FF0BAF21C46C4D9ABA513C417FFA195F","0199d685-b161-77a1-8aad-095f700e223d","0199d675-8795-765b-adc2-c813de8cd3d1","","null","<div style=""display: flex; justify-content: center; align-items: center;"">
                     <img src=""images/other/blank.png"" style=""width: 300px; height: 300px;"" />
                   </div>","null","0","0","blank","",""
"","","","","","html-keyboard-response","37","281635","0.0-29.0","FF0BAF21C46C4D9ABA513C417FFA195F","0199d685-b161-77a1-8aad-095f700e223d","0199d675-8795-765b-adc2-c813de8cd3d1","","null","<div style=""display: flex; justify-content: center; align-items: center;"">
                     <img src=""images/causal/causal_series_9/causal_series_9_a.png"" style=""width: 300px; height: 300px;"" />
                   </div>","null","9","1","A","",""
"","","","","","html-button-response","38","282593","0.0-30.0","FF0BAF21C46C4D9ABA513C417FFA195F","0199d685-b161-77a1-8aad-095f700e223d","0199d675-8795-765b-adc2-c813de8cd3d1","","957","
        <div style=""display: flex; justify-content: center; align-items: center;"">
          <img src=""images/red_deck_2.png"" style=""width: 300px; height: 300px; margin-right: 10px;"" />
          <img src=""images/blue_deck_1.png"" style=""width: 300px; height: 300px;"" />
        </div>","0","9","1","choice","0",""
"","","","","","html-keyboard-response","39","288594","0.0-31.0-0.0-0.0","FF0BAF21C46C4D9ABA513C417FFA195F","0199d685-b161-77a1-8aad-095f700e223d","0199d675-8795-765b-adc2-c813de8cd3d1","","null","<div style=""display: flex; justify-content: center; align-items: center;"">
                     <img src=""images/causal/causal_series_9/causal_series_9_b.png"" style=""width: 300px; height: 300px;"" />
                   </div>","null","9","1","B","",""
"","","","","","html-keyboard-response","40","294609","0.0-31.0-0.0-1.0","FF0BAF21C46C4D9ABA513C417FFA195F","0199d685-b161-77a1-8aad-095f700e223d","0199d675-8795-765b-adc2-c813de8cd3d1","","null","<div style=""display: flex; justify-content: center; align-items: center;"">
                     <img src=""images/causal/causal_series_9/causal_series_9_c.png"" style=""width: 300px; height: 300px;"" />
                   </div>","null","9","1","C","",""
"","","","","","html-keyboard-response","41","300617","0.0-31.0-0.0-2.0","FF0BAF21C46C4D9ABA513C417FFA195F","0199d685-b161-77a1-8aad-095f700e223d","0199d675-8795-765b-adc2-c813de8cd3d1","","null","<div style=""display: flex; justify-content: center; align-items: center;"">
                     <img src=""images/causal/causal_series_9/causal_series_9_d.png"" style=""width: 300px; height: 300px;"" />
                   </div>","null","9","1","D","",""
"","","","","","survey-likert","42","303040","0.0-32.0","FF0BAF21C46C4D9ABA513C417FFA195F","0199d685-b161-77a1-8aad-095f700e223d","0199d675-8795-765b-adc2-c813de8cd3d1","","2422","","{""Q0"":4}","9","1","surprise_rating","","[0]"
"","","","","","survey-likert","43","304813","0.0-33.0","FF0BAF21C46C4D9ABA513C417FFA195F","0199d685-b161-77a1-8aad-095f700e223d","0199d675-8795-765b-adc2-c813de8cd3d1","","1773","","{""Q0"":1}","9","1","enjoyment_rating","","[0]"
"","","","","","html-keyboard-response","44","310825","0.0-34.0","FF0BAF21C46C4D9ABA513C417FFA195F","0199d685-b161-77a1-8aad-095f700e223d","0199d675-8795-765b-adc2-c813de8cd3d1","","null","<div style=""display: flex; justify-content: center; align-items: center;"">
                     <img src=""images/other/blank.png"" style=""width: 300px; height: 300px;"" />
                   </div>","null","0","0","blank","",""
"","","","","","html-keyboard-response","45","316826","0.0-35.0","FF0BAF21C46C4D9ABA513C417FFA195F","0199d685-b161-77a1-8aad-095f700e223d","0199d675-8795-765b-adc2-c813de8cd3d1","","null","<div style=""display: flex; justify-content: center; align-items: center;"">
                     <img src=""images/causal/causal_series_10/causal_series_10_a.png"" style=""width: 300px; height: 300px;"" />
                   </div>","null","10","1","A","",""
"","","","","","html-button-response","46","317741","0.0-36.0","FF0BAF21C46C4D9ABA513C417FFA195F","0199d685-b161-77a1-8aad-095f700e223d","0199d675-8795-765b-adc2-c813de8cd3d1","","914","
        <div style=""display: flex; justify-content: center; align-items: center;"">
          <img src=""images/red_deck_2.png"" style=""width: 300px; height: 300px; margin-right: 10px;"" />
          <img src=""images/blue_deck_1.png"" style=""width: 300px; height: 300px;"" />
        </div>","0","10","1","choice","0",""
"","","","","","html-keyboard-response","47","323748","0.0-37.0-0.0-0.0","FF0BAF21C46C4D9ABA513C417FFA195F","0199d685-b161-77a1-8aad-095f700e223d","0199d675-8795-765b-adc2-c813de8cd3d1","","null","<div style=""display: flex; justify-content: center; align-items: center;"">
                     <img src=""images/causal/causal_series_10/causal_series_10_b.png"" style=""width: 300px; height: 300px;"" />
                   </div>","null","10","1","B","",""
"","","","","","html-keyboard-response","48","329751","0.0-37.0-0.0-1.0","FF0BAF21C46C4D9ABA513C417FFA195F","0199d685-b161-77a1-8aad-095f700e223d","0199d675-8795-765b-adc2-c813de8cd3d1","","null","<div style=""display: flex; justify-content: center; align-items: center;"">
                     <img src=""images/causal/causal_series_10/causal_series_10_c.png"" style=""width: 300px; height: 300px;"" />
                   </div>","null","10","1","C","",""
"","","","","","html-keyboard-response","49","335768","0.0-37.0-0.0-2.0","FF0BAF21C46C4D9ABA513C417FFA195F","0199d685-b161-77a1-8aad-095f700e223d","0199d675-8795-765b-adc2-c813de8cd3d1","","null","<div style=""display: flex; justify-content: center; align-items: center;"">
                     <img src=""images/causal/causal_series_10/causal_series_10_d.png"" style=""width: 300px; height: 300px;"" />
                   </div>","null","10","1","D","",""
"","","","","","survey-likert","50","339748","0.0-38.0","FF0BAF21C46C4D9ABA513C417FFA195F","0199d685-b161-77a1-8aad-095f700e223d","0199d675-8795-765b-adc2-c813de8cd3d1","","3980","","{""Q0"":4}","10","1","surprise_rating","","[0]"
"","","","","","survey-likert","51","342546","0.0-39.0","FF0BAF21C46C4D9ABA513C417FFA195F","0199d685-b161-77a1-8aad-095f700e223d","0199d675-8795-765b-adc2-c813de8cd3d1","","2797","","{""Q0"":1}","10","1","enjoyment_rating","","[0]"
"","","","","","html-keyboard-response","52","348560","0.0-40.0","FF0BAF21C46C4D9ABA513C417FFA195F","0199d685-b161-77a1-8aad-095f700e223d","0199d675-8795-765b-adc2-c813de8cd3d1","","null","<div style=""display: flex; justify-content: center; align-items: center;"">
                     <img src=""images/other/blank.png"" style=""width: 300px; height: 300px;"" />
                   </div>","null","0","0","blank","",""
"","","","","","html-keyboard-response","53","354568","0.0-41.0","FF0BAF21C46C4D9ABA513C417FFA195F","0199d685-b161-77a1-8aad-095f700e223d","0199d675-8795-765b-adc2-c813de8cd3d1","","null","<div style=""display: flex; justify-content: center; align-items: center;"">
                     <img src=""images/causal/causal_series_3/causal_series_3_a.png"" style=""width: 300px; height: 300px;"" />
                   </div>","null","3","2","A","",""
"","","","","","html-button-response","54","355701","0.0-42.0","FF0BAF21C46C4D9ABA513C417FFA195F","0199d685-b161-77a1-8aad-095f700e223d","0199d675-8795-765b-adc2-c813de8cd3d1","","1133","
        <div style=""display: flex; justify-content: center; align-items: center;"">
          <img src=""images/red_deck_2.png"" style=""width: 300px; height: 300px; margin-right: 10px;"" />
          <img src=""images/blue_deck_1.png"" style=""width: 300px; height: 300px;"" />
        </div>","0","3","2","choice","0",""
"","","","","","html-keyboard-response","55","361714","0.0-43.0-0.0-0.0","FF0BAF21C46C4D9ABA513C417FFA195F","0199d685-b161-77a1-8aad-095f700e223d","0199d675-8795-765b-adc2-c813de8cd3d1","","null","<div style=""display: flex; justify-content: center; align-items: center;"">
                     <img src=""images/causal/causal_series_3/causal_series_3_b.png"" style=""width: 300px; height: 300px;"" />
                   </div>","null","3","2","B","",""
"","","","","","html-keyboard-response","56","367717","0.0-43.0-0.0-1.0","FF0BAF21C46C4D9ABA513C417FFA195F","0199d685-b161-77a1-8aad-095f700e223d","0199d675-8795-765b-adc2-c813de8cd3d1","","null","<div style=""display: flex; justify-content: center; align-items: center;"">
                     <img src=""images/causal/causal_series_3/causal_series_3_c.png"" style=""width: 300px; height: 300px;"" />
                   </div>","null","3","2","C","",""
"","","","","","html-keyboard-response","57","373725","0.0-43.0-0.0-2.0","FF0BAF21C46C4D9ABA513C417FFA195F","0199d685-b161-77a1-8aad-095f700e223d","0199d675-8795-765b-adc2-c813de8cd3d1","","null","<div style=""display: flex; justify-content: center; align-items: center;"">
                     <img src=""images/causal/causal_series_3/causal_series_3_d.png"" style=""width: 300px; height: 300px;"" />
                   </div>","null","3","2","D","",""
"","","","","","survey-likert","58","375393","0.0-44.0","FF0BAF21C46C4D9ABA513C417FFA195F","0199d685-b161-77a1-8aad-095f700e223d","0199d675-8795-765b-adc2-c813de8cd3d1","","1667","","{""Q0"":3}","3","2","surprise_rating","","[0]"
"","","","","","survey-likert","59","377635","0.0-45.0","FF0BAF21C46C4D9ABA513C417FFA195F","0199d685-b161-77a1-8aad-095f700e223d","0199d675-8795-765b-adc2-c813de8cd3d1","","2241","","{""Q0"":2}","3","2","enjoyment_rating","","[0]"
"","","","","","html-keyboard-response","60","383644","0.0-46.0","FF0BAF21C46C4D9ABA513C417FFA195F","0199d685-b161-77a1-8aad-095f700e223d","0199d675-8795-765b-adc2-c813de8cd3d1","","null","<div style=""display: flex; justify-content: center; align-items: center;"">
                     <img src=""images/other/blank.png"" style=""width: 300px; height: 300px;"" />
                   </div>","null","0","0","blank","",""
"","","","","","html-keyboard-response","61","389657","0.0-47.0","FF0BAF21C46C4D9ABA513C417FFA195F","0199d685-b161-77a1-8aad-095f700e223d","0199d675-8795-765b-adc2-c813de8cd3d1","","null","<div style=""display: flex; justify-content: center; align-items: center;"">
                     <img src=""images/causal/causal_series_8/causal_series_8_a.png"" style=""width: 300px; height: 300px;"" />
                   </div>","null","8","2","A","",""
"","","","","","html-button-response","62","390628","0.0-48.0","FF0BAF21C46C4D9ABA513C417FFA195F","0199d685-b161-77a1-8aad-095f700e223d","0199d675-8795-765b-adc2-c813de8cd3d1","","969","
        <div style=""display: flex; justify-content: center; align-items: center;"">
          <img src=""images/red_deck_2.png"" style=""width: 300px; height: 300px; margin-right: 10px;"" />
          <img src=""images/blue_deck_1.png"" style=""width: 300px; height: 300px;"" />
        </div>","0","8","2","choice","0",""
"","","","","","html-keyboard-response","63","396633","0.0-49.0-0.0-0.0","FF0BAF21C46C4D9ABA513C417FFA195F","0199d685-b161-77a1-8aad-095f700e223d","0199d675-8795-765b-adc2-c813de8cd3d1","","null","<div style=""display: flex; justify-content: center; align-items: center;"">
                     <img src=""images/causal/causal_series_8/causal_series_8_b.png"" style=""width: 300px; height: 300px;"" />
                   </div>","null","8","2","B","",""
"","","","","","html-keyboard-response","64","402642","0.0-49.0-0.0-1.0","FF0BAF21C46C4D9ABA513C417FFA195F","0199d685-b161-77a1-8aad-095f700e223d","0199d675-8795-765b-adc2-c813de8cd3d1","","null","<div style=""display: flex; justify-content: center; align-items: center;"">
                     <img src=""images/causal/causal_series_8/causal_series_8_c.png"" style=""width: 300px; height: 300px;"" />
                   </div>","null","8","2","C","",""
"","","","","","html-keyboard-response","65","408652","0.0-49.0-0.0-2.0","FF0BAF21C46C4D9ABA513C417FFA195F","0199d685-b161-77a1-8aad-095f700e223d","0199d675-8795-765b-adc2-c813de8cd3d1","","null","<div style=""display: flex; justify-content: center; align-items: center;"">
                     <img src=""images/causal/causal_series_8/causal_series_8_d.png"" style=""width: 300px; height: 300px;"" />
                   </div>","null","8","2","D","",""
"","","","","","survey-likert","66","412165","0.0-50.0","FF0BAF21C46C4D9ABA513C417FFA195F","0199d685-b161-77a1-8aad-095f700e223d","0199d675-8795-765b-adc2-c813de8cd3d1","","3512","","{""Q0"":3}","8","2","surprise_rating","","[0]"
"","","","","","survey-likert","67","414347","0.0-51.0","FF0BAF21C46C4D9ABA513C417FFA195F","0199d685-b161-77a1-8aad-095f700e223d","0199d675-8795-765b-adc2-c813de8cd3d1","","2181","","{""Q0"":3}","8","2","enjoyment_rating","","[0]"
"","","","","","html-keyboard-response","68","420352","0.0-52.0","FF0BAF21C46C4D9ABA513C417FFA195F","0199d685-b161-77a1-8aad-095f700e223d","0199d675-8795-765b-adc2-c813de8cd3d1","","null","<div style=""display: flex; justify-content: center; align-items: center;"">
                     <img src=""images/other/blank.png"" style=""width: 300px; height: 300px;"" />
                   </div>","null","0","0","blank","",""
"","","","","","html-keyboard-response","69","426353","0.0-53.0","FF0BAF21C46C4D9ABA513C417FFA195F","0199d685-b161-77a1-8aad-095f700e223d","0199d675-8795-765b-adc2-c813de8cd3d1","","null","<div style=""display: flex; justify-content: center; align-items: center;"">
                     <img src=""images/causal/causal_series_3/causal_series_3_a.png"" style=""width: 300px; height: 300px;"" />
                   </div>","null","3","1","A","",""
"","","","","","html-button-response","70","427664","0.0-54.0","FF0BAF21C46C4D9ABA513C417FFA195F","0199d685-b161-77a1-8aad-095f700e223d","0199d675-8795-765b-adc2-c813de8cd3d1","","1310","
        <div style=""display: flex; justify-content: center; align-items: center;"">
          <img src=""images/red_deck_2.png"" style=""width: 300px; height: 300px; margin-right: 10px;"" />
          <img src=""images/blue_deck_1.png"" style=""width: 300px; height: 300px;"" />
        </div>","1","3","1","choice","1",""
"","","","","","html-keyboard-response","71","433669","0.0-55.0-1.0-0.0","FF0BAF21C46C4D9ABA513C417FFA195F","0199d685-b161-77a1-8aad-095f700e223d","0199d675-8795-765b-adc2-c813de8cd3d1","","null","<div style=""display: flex; justify-content: center; align-items: center;"">
                     <img src=""images/semantic/semantic_series_3/semantic_series_3_b.png"" style=""width: 300px; height: 300px;"" />
                   </div>","null","3","1","B","",""
"","","","","","html-keyboard-response","72","439671","0.0-55.0-1.0-1.0","FF0BAF21C46C4D9ABA513C417FFA195F","0199d685-b161-77a1-8aad-095f700e223d","0199d675-8795-765b-adc2-c813de8cd3d1","","null","<div style=""display: flex; justify-content: center; align-items: center;"">
                     <img src=""images/semantic/semantic_series_3/semantic_series_3_c.png"" style=""width: 300px; height: 300px;"" />
                   </div>","null","3","1","C","",""
"","","","","","html-keyboard-response","73","445682","0.0-55.0-1.0-2.0","FF0BAF21C46C4D9ABA513C417FFA195F","0199d685-b161-77a1-8aad-095f700e223d","0199d675-8795-765b-adc2-c813de8cd3d1","","null","<div style=""display: flex; justify-content: center; align-items: center;"">
                     <img src=""images/semantic/semantic_series_3/semantic_series_3_d.png"" style=""width: 300px; height: 300px;"" />
                   </div>","null","3","1","D","",""
"","","","","","survey-likert","74","449938","0.0-56.0","FF0BAF21C46C4D9ABA513C417FFA195F","0199d685-b161-77a1-8aad-095f700e223d","0199d675-8795-765b-adc2-c813de8cd3d1","","4256","","{""Q0"":3}","3","1","surprise_rating","","[0]"
"","","","","","survey-likert","75","452786","0.0-57.0","FF0BAF21C46C4D9ABA513C417FFA195F","0199d685-b161-77a1-8aad-095f700e223d","0199d675-8795-765b-adc2-c813de8cd3d1","","2847","","{""Q0"":0}","3","1","enjoyment_rating","","[0]"
"","","","","","html-keyboard-response","76","458800","0.0-58.0","FF0BAF21C46C4D9ABA513C417FFA195F","0199d685-b161-77a1-8aad-095f700e223d","0199d675-8795-765b-adc2-c813de8cd3d1","","null","<div style=""display: flex; justify-content: center; align-items: center;"">
                     <img src=""images/other/blank.png"" style=""width: 300px; height: 300px;"" />
                   </div>","null","0","0","blank","",""
"","","","","","html-keyboard-response","77","464805","0.0-59.0","FF0BAF21C46C4D9ABA513C417FFA195F","0199d685-b161-77a1-8aad-095f700e223d","0199d675-8795-765b-adc2-c813de8cd3d1","","null","<div style=""display: flex; justify-content: center; align-items: center;"">
                     <img src=""images/causal/causal_series_9/causal_series_9_a.png"" style=""width: 300px; height: 300px;"" />
                   </div>","null","9","2","A","",""
"","","","","","html-button-response","78","466062","0.0-60.0","FF0BAF21C46C4D9ABA513C417FFA195F","0199d685-b161-77a1-8aad-095f700e223d","0199d675-8795-765b-adc2-c813de8cd3d1","","1256","
        <div style=""display: flex; justify-content: center; align-items: center;"">
          <img src=""images/red_deck_2.png"" style=""width: 300px; height: 300px; margin-right: 10px;"" />
          <img src=""images/blue_deck_1.png"" style=""width: 300px; height: 300px;"" />
        </div>","0","9","2","choice","0",""
"","","","","","html-keyboard-response","79","472078","0.0-61.0-0.0-0.0","FF0BAF21C46C4D9ABA513C417FFA195F","0199d685-b161-77a1-8aad-095f700e223d","0199d675-8795-765b-adc2-c813de8cd3d1","","null","<div style=""display: flex; justify-content: center; align-items: center;"">
                     <img src=""images/causal/causal_series_9/causal_series_9_b.png"" style=""width: 300px; height: 300px;"" />
                   </div>","null","9","2","B","",""
"","","","","","html-keyboard-response","80","478087","0.0-61.0-0.0-1.0","FF0BAF21C46C4D9ABA513C417FFA195F","0199d685-b161-77a1-8aad-095f700e223d","0199d675-8795-765b-adc2-c813de8cd3d1","","null","<div style=""display: flex; justify-content: center; align-items: center;"">
                     <img src=""images/causal/causal_series_9/causal_series_9_c.png"" style=""width: 300px; height: 300px;"" />
                   </div>","null","9","2","C","",""
"","","","","","html-keyboard-response","81","484093","0.0-61.0-0.0-2.0","FF0BAF21C46C4D9ABA513C417FFA195F","0199d685-b161-77a1-8aad-095f700e223d","0199d675-8795-765b-adc2-c813de8cd3d1","","null","<div style=""display: flex; justify-content: center; align-items: center;"">
                     <img src=""images/causal/causal_series_9/causal_series_9_d.png"" style=""width: 300px; height: 300px;"" />
                   </div>","null","9","2","D","",""
"","","","","","survey-likert","82","491046","0.0-62.0","FF0BAF21C46C4D9ABA513C417FFA195F","0199d685-b161-77a1-8aad-095f700e223d","0199d675-8795-765b-adc2-c813de8cd3d1","","6952","","{""Q0"":3}","9","2","surprise_rating","","[0]"
"","","","","","survey-likert","83","493823","0.0-63.0","FF0BAF21C46C4D9ABA513C417FFA195F","0199d685-b161-77a1-8aad-095f700e223d","0199d675-8795-765b-adc2-c813de8cd3d1","","2776","","{""Q0"":2}","9","2","enjoyment_rating","","[0]"
"","","","","","html-keyboard-response","84","499825","0.0-64.0","FF0BAF21C46C4D9ABA513C417FFA195F","0199d685-b161-77a1-8aad-095f700e223d","0199d675-8795-765b-adc2-c813de8cd3d1","","null","<div style=""display: flex; justify-content: center; align-items: center;"">
                     <img src=""images/other/blank.png"" style=""width: 300px; height: 300px;"" />
                   </div>","null","0","0","blank","",""
"","","","","","html-keyboard-response","85","505827","0.0-65.0","FF0BAF21C46C4D9ABA513C417FFA195F","0199d685-b161-77a1-8aad-095f700e223d","0199d675-8795-765b-adc2-c813de8cd3d1","","null","<div style=""display: flex; justify-content: center; align-items: center;"">
                     <img src=""images/causal/causal_series_7/causal_series_7_a.png"" style=""width: 300px; height: 300px;"" />
                   </div>","null","7","2","A","",""
"","","","","","html-button-response","86","507043","0.0-66.0","FF0BAF21C46C4D9ABA513C417FFA195F","0199d685-b161-77a1-8aad-095f700e223d","0199d675-8795-765b-adc2-c813de8cd3d1","","1216","
        <div style=""display: flex; justify-content: center; align-items: center;"">
          <img src=""images/red_deck_2.png"" style=""width: 300px; height: 300px; margin-right: 10px;"" />
          <img src=""images/blue_deck_1.png"" style=""width: 300px; height: 300px;"" />
        </div>","0","7","2","choice","0",""
"","","","","","html-keyboard-response","87","513059","0.0-67.0-0.0-0.0","FF0BAF21C46C4D9ABA513C417FFA195F","0199d685-b161-77a1-8aad-095f700e223d","0199d675-8795-765b-adc2-c813de8cd3d1","","null","<div style=""display: flex; justify-content: center; align-items: center;"">
                     <img src=""images/causal/causal_series_7/causal_series_7_b.png"" style=""width: 300px; height: 300px;"" />
                   </div>","null","7","2","B","",""
"","","","","","html-keyboard-response","88","519073","0.0-67.0-0.0-1.0","FF0BAF21C46C4D9ABA513C417FFA195F","0199d685-b161-77a1-8aad-095f700e223d","0199d675-8795-765b-adc2-c813de8cd3d1","","null","<div style=""display: flex; justify-content: center; align-items: center;"">
                     <img src=""images/causal/causal_series_7/causal_series_7_c.png"" style=""width: 300px; height: 300px;"" />
                   </div>","null","7","2","C","",""
"","","","","","html-keyboard-response","89","525089","0.0-67.0-0.0-2.0","FF0BAF21C46C4D9ABA513C417FFA195F","0199d685-b161-77a1-8aad-095f700e223d","0199d675-8795-765b-adc2-c813de8cd3d1","","null","<div style=""display: flex; justify-content: center; align-items: center;"">
                     <img src=""images/causal/causal_series_7/causal_series_7_d.png"" style=""width: 300px; height: 300px;"" />
                   </div>","null","7","2","D","",""
"","","","","","survey-likert","90","531048","0.0-68.0","FF0BAF21C46C4D9ABA513C417FFA195F","0199d685-b161-77a1-8aad-095f700e223d","0199d675-8795-765b-adc2-c813de8cd3d1","","5958","","{""Q0"":3}","7","2","surprise_rating","","[0]"
"","","","","","survey-likert","91","533406","0.0-69.0","FF0BAF21C46C4D9ABA513C417FFA195F","0199d685-b161-77a1-8aad-095f700e223d","0199d675-8795-765b-adc2-c813de8cd3d1","","2358","","{""Q0"":1}","7","2","enjoyment_rating","","[0]"
"","","","","","html-keyboard-response","92","539411","0.0-70.0","FF0BAF21C46C4D9ABA513C417FFA195F","0199d685-b161-77a1-8aad-095f700e223d","0199d675-8795-765b-adc2-c813de8cd3d1","","null","<div style=""display: flex; justify-content: center; align-items: center;"">
                     <img src=""images/other/blank.png"" style=""width: 300px; height: 300px;"" />
                   </div>","null","0","0","blank","",""
"","","","","","html-keyboard-response","93","545420","0.0-71.0","FF0BAF21C46C4D9ABA513C417FFA195F","0199d685-b161-77a1-8aad-095f700e223d","0199d675-8795-765b-adc2-c813de8cd3d1","","null","<div style=""display: flex; justify-content: center; align-items: center;"">
                     <img src=""images/causal/causal_series_8/causal_series_8_a.png"" style=""width: 300px; height: 300px;"" />
                   </div>","null","8","1","A","",""
"","","","","","html-button-response","94","547080","0.0-72.0","FF0BAF21C46C4D9ABA513C417FFA195F","0199d685-b161-77a1-8aad-095f700e223d","0199d675-8795-765b-adc2-c813de8cd3d1","","1658","
        <div style=""display: flex; justify-content: center; align-items: center;"">
          <img src=""images/red_deck_2.png"" style=""width: 300px; height: 300px; margin-right: 10px;"" />
          <img src=""images/blue_deck_1.png"" style=""width: 300px; height: 300px;"" />
        </div>","1","8","1","choice","1",""
"","","","","","html-keyboard-response","95","553092","0.0-73.0-1.0-0.0","FF0BAF21C46C4D9ABA513C417FFA195F","0199d685-b161-77a1-8aad-095f700e223d","0199d675-8795-765b-adc2-c813de8cd3d1","","null","<div style=""display: flex; justify-content: center; align-items: center;"">
                     <img src=""images/semantic/semantic_series_8/semantic_series_8_b.png"" style=""width: 300px; height: 300px;"" />
                   </div>","null","8","1","B","",""
"","","","","","html-keyboard-response","96","559107","0.0-73.0-1.0-1.0","FF0BAF21C46C4D9ABA513C417FFA195F","0199d685-b161-77a1-8aad-095f700e223d","0199d675-8795-765b-adc2-c813de8cd3d1","","null","<div style=""display: flex; justify-content: center; align-items: center;"">
                     <img src=""images/semantic/semantic_series_8/semantic_series_8_c.png"" style=""width: 300px; height: 300px;"" />
                   </div>","null","8","1","C","",""
"","","","","","html-keyboard-response","97","565122","0.0-73.0-1.0-2.0","FF0BAF21C46C4D9ABA513C417FFA195F","0199d685-b161-77a1-8aad-095f700e223d","0199d675-8795-765b-adc2-c813de8cd3d1","","null","<div style=""display: flex; justify-content: center; align-items: center;"">
                     <img src=""images/semantic/semantic_series_8/semantic_series_8_d.png"" style=""width: 300px; height: 300px;"" />
                   </div>","null","8","1","D","",""
"","","","","","survey-likert","98","568036","0.0-74.0","FF0BAF21C46C4D9ABA513C417FFA195F","0199d685-b161-77a1-8aad-095f700e223d","0199d675-8795-765b-adc2-c813de8cd3d1","","2913","","{""Q0"":3}","8","1","surprise_rating","","[0]"
"","","","","","survey-likert","99","570799","0.0-75.0","FF0BAF21C46C4D9ABA513C417FFA195F","0199d685-b161-77a1-8aad-095f700e223d","0199d675-8795-765b-adc2-c813de8cd3d1","","2763","","{""Q0"":3}","8","1","enjoyment_rating","","[0]"
"","","","","","html-keyboard-response","100","576802","0.0-76.0","FF0BAF21C46C4D9ABA513C417FFA195F","0199d685-b161-77a1-8aad-095f700e223d","0199d675-8795-765b-adc2-c813de8cd3d1","","null","<div style=""display: flex; justify-content: center; align-items: center;"">
                     <img src=""images/other/blank.png"" style=""width: 300px; height: 300px;"" />
                   </div>","null","0","0","blank","",""
"","","","","","html-keyboard-response","101","582804","0.0-77.0","FF0BAF21C46C4D9ABA513C417FFA195F","0199d685-b161-77a1-8aad-095f700e223d","0199d675-8795-765b-adc2-c813de8cd3d1","","null","<div style=""display: flex; justify-content: center; align-items: center;"">
                     <img src=""images/causal/causal_series_4/causal_series_4_a.png"" style=""width: 300px; height: 300px;"" />
                   </div>","null","4","1","A","",""
"","","","","","html-button-response","102","584185","0.0-78.0","FF0BAF21C46C4D9ABA513C417FFA195F","0199d685-b161-77a1-8aad-095f700e223d","0199d675-8795-765b-adc2-c813de8cd3d1","","1380","
        <div style=""display: flex; justify-content: center; align-items: center;"">
          <img src=""images/red_deck_2.png"" style=""width: 300px; height: 300px; margin-right: 10px;"" />
          <img src=""images/blue_deck_1.png"" style=""width: 300px; height: 300px;"" />
        </div>","0","4","1","choice","0",""
"","","","","","html-keyboard-response","103","590197","0.0-79.0-0.0-0.0","FF0BAF21C46C4D9ABA513C417FFA195F","0199d685-b161-77a1-8aad-095f700e223d","0199d675-8795-765b-adc2-c813de8cd3d1","","null","<div style=""display: flex; justify-content: center; align-items: center;"">
                     <img src=""images/causal/causal_series_4/causal_series_4_b.png"" style=""width: 300px; height: 300px;"" />
                   </div>","null","4","1","B","",""
"","","","","","html-keyboard-response","104","596209","0.0-79.0-0.0-1.0","FF0BAF21C46C4D9ABA513C417FFA195F","0199d685-b161-77a1-8aad-095f700e223d","0199d675-8795-765b-adc2-c813de8cd3d1","","null","<div style=""display: flex; justify-content: center; align-items: center;"">
                     <img src=""images/causal/causal_series_4/causal_series_4_c.png"" style=""width: 300px; height: 300px;"" />
                   </div>","null","4","1","C","",""
"","","","","","html-keyboard-response","105","602213","0.0-79.0-0.0-2.0","FF0BAF21C46C4D9ABA513C417FFA195F","0199d685-b161-77a1-8aad-095f700e223d","0199d675-8795-765b-adc2-c813de8cd3d1","","null","<div style=""display: flex; justify-content: center; align-items: center;"">
                     <img src=""images/causal/causal_series_4/causal_series_4_d.png"" style=""width: 300px; height: 300px;"" />
                   </div>","null","4","1","D","",""
"","","","","","survey-likert","106","604972","0.0-80.0","FF0BAF21C46C4D9ABA513C417FFA195F","0199d685-b161-77a1-8aad-095f700e223d","0199d675-8795-765b-adc2-c813de8cd3d1","","2758","","{""Q0"":4}","4","1","surprise_rating","","[0]"
"","","","","","survey-likert","107","606818","0.0-81.0","FF0BAF21C46C4D9ABA513C417FFA195F","0199d685-b161-77a1-8aad-095f700e223d","0199d675-8795-765b-adc2-c813de8cd3d1","","1845","","{""Q0"":2}","4","1","enjoyment_rating","","[0]"
"","","","","","html-keyboard-response","108","612832","0.0-82.0","FF0BAF21C46C4D9ABA513C417FFA195F","0199d685-b161-77a1-8aad-095f700e223d","0199d675-8795-765b-adc2-c813de8cd3d1","","null","<div style=""display: flex; justify-content: center; align-items: center;"">
                     <img src=""images/other/blank.png"" style=""width: 300px; height: 300px;"" />
                   </div>","null","0","0","blank","",""
"","","","","","html-keyboard-response","109","618842","0.0-83.0","FF0BAF21C46C4D9ABA513C417FFA195F","0199d685-b161-77a1-8aad-095f700e223d","0199d675-8795-765b-adc2-c813de8cd3d1","","null","<div style=""display: flex; justify-content: center; align-items: center;"">
                     <img src=""images/causal/causal_series_4/causal_series_4_a.png"" style=""width: 300px; height: 300px;"" />
                   </div>","null","4","2","A","",""
"","","","","","html-button-response","110","620100","0.0-84.0","FF0BAF21C46C4D9ABA513C417FFA195F","0199d685-b161-77a1-8aad-095f700e223d","0199d675-8795-765b-adc2-c813de8cd3d1","","1258","
        <div style=""display: flex; justify-content: center; align-items: center;"">
          <img src=""images/red_deck_2.png"" style=""width: 300px; height: 300px; margin-right: 10px;"" />
          <img src=""images/blue_deck_1.png"" style=""width: 300px; height: 300px;"" />
        </div>","0","4","2","choice","0",""
"","","","","","html-keyboard-response","111","626109","0.0-85.0-0.0-0.0","FF0BAF21C46C4D9ABA513C417FFA195F","0199d685-b161-77a1-8aad-095f700e223d","0199d675-8795-765b-adc2-c813de8cd3d1","","null","<div style=""display: flex; justify-content: center; align-items: center;"">
                     <img src=""images/causal/causal_series_4/causal_series_4_b.png"" style=""width: 300px; height: 300px;"" />
                   </div>","null","4","2","B","",""
"","","","","","html-keyboard-response","112","632126","0.0-85.0-0.0-1.0","FF0BAF21C46C4D9ABA513C417FFA195F","0199d685-b161-77a1-8aad-095f700e223d","0199d675-8795-765b-adc2-c813de8cd3d1","","null","<div style=""display: flex; justify-content: center; align-items: center;"">
                     <img src=""images/causal/causal_series_4/causal_series_4_c.png"" style=""width: 300px; height: 300px;"" />
                   </div>","null","4","2","C","",""
"","","","","","html-keyboard-response","113","638127","0.0-85.0-0.0-2.0","FF0BAF21C46C4D9ABA513C417FFA195F","0199d685-b161-77a1-8aad-095f700e223d","0199d675-8795-765b-adc2-c813de8cd3d1","","null","<div style=""display: flex; justify-content: center; align-items: center;"">
                     <img src=""images/causal/causal_series_4/causal_series_4_d.png"" style=""width: 300px; height: 300px;"" />
                   </div>","null","4","2","D","",""
"","","","","","survey-likert","114","639774","0.0-86.0","FF0BAF21C46C4D9ABA513C417FFA195F","0199d685-b161-77a1-8aad-095f700e223d","0199d675-8795-765b-adc2-c813de8cd3d1","","1647","","{""Q0"":4}","4","2","surprise_rating","","[0]"
"","","","","","survey-likert","115","641305","0.0-87.0","FF0BAF21C46C4D9ABA513C417FFA195F","0199d685-b161-77a1-8aad-095f700e223d","0199d675-8795-765b-adc2-c813de8cd3d1","","1530","","{""Q0"":2}","4","2","enjoyment_rating","","[0]"
"","","","","","html-keyboard-response","116","647321","0.0-88.0","FF0BAF21C46C4D9ABA513C417FFA195F","0199d685-b161-77a1-8aad-095f700e223d","0199d675-8795-765b-adc2-c813de8cd3d1","","null","<div style=""display: flex; justify-content: center; align-items: center;"">
                     <img src=""images/other/blank.png"" style=""width: 300px; height: 300px;"" />
                   </div>","null","0","0","blank","",""
"","","","","","html-keyboard-response","117","653327","0.0-89.0","FF0BAF21C46C4D9ABA513C417FFA195F","0199d685-b161-77a1-8aad-095f700e223d","0199d675-8795-765b-adc2-c813de8cd3d1","","null","<div style=""display: flex; justify-content: center; align-items: center;"">
                     <img src=""images/causal/causal_series_6/causal_series_6_a.png"" style=""width: 300px; height: 300px;"" />
                   </div>","null","6","1","A","",""
"","","","","","html-button-response","118","654307","0.0-90.0","FF0BAF21C46C4D9ABA513C417FFA195F","0199d685-b161-77a1-8aad-095f700e223d","0199d675-8795-765b-adc2-c813de8cd3d1","","980","
        <div style=""display: flex; justify-content: center; align-items: center;"">
          <img src=""images/red_deck_2.png"" style=""width: 300px; height: 300px; margin-right: 10px;"" />
          <img src=""images/blue_deck_1.png"" style=""width: 300px; height: 300px;"" />
        </div>","0","6","1","choice","0",""
"","","","","","html-keyboard-response","119","660320","0.0-91.0-0.0-0.0","FF0BAF21C46C4D9ABA513C417FFA195F","0199d685-b161-77a1-8aad-095f700e223d","0199d675-8795-765b-adc2-c813de8cd3d1","","null","<div style=""display: flex; justify-content: center; align-items: center;"">
                     <img src=""images/causal/causal_series_6/causal_series_6_b.png"" style=""width: 300px; height: 300px;"" />
                   </div>","null","6","1","B","",""
"","","","","","html-keyboard-response","120","666323","0.0-91.0-0.0-1.0","FF0BAF21C46C4D9ABA513C417FFA195F","0199d685-b161-77a1-8aad-095f700e223d","0199d675-8795-765b-adc2-c813de8cd3d1","","null","<div style=""display: flex; justify-content: center; align-items: center;"">
                     <img src=""images/causal/causal_series_6/causal_series_6_c.png"" style=""width: 300px; height: 300px;"" />
                   </div>","null","6","1","C","",""
"","","","","","html-keyboard-response","121","672326","0.0-91.0-0.0-2.0","FF0BAF21C46C4D9ABA513C417FFA195F","0199d685-b161-77a1-8aad-095f700e223d","0199d675-8795-765b-adc2-c813de8cd3d1","","null","<div style=""display: flex; justify-content: center; align-items: center;"">
                     <img src=""images/causal/causal_series_6/causal_series_6_d.png"" style=""width: 300px; height: 300px;"" />
                   </div>","null","6","1","D","",""
"","","","","","survey-likert","122","675405","0.0-92.0","FF0BAF21C46C4D9ABA513C417FFA195F","0199d685-b161-77a1-8aad-095f700e223d","0199d675-8795-765b-adc2-c813de8cd3d1","","3078","","{""Q0"":4}","6","1","surprise_rating","","[0]"
"","","","","","survey-likert","123","677470","0.0-93.0","FF0BAF21C46C4D9ABA513C417FFA195F","0199d685-b161-77a1-8aad-095f700e223d","0199d675-8795-765b-adc2-c813de8cd3d1","","2064","","{""Q0"":4}","6","1","enjoyment_rating","","[0]"
"","","","","","html-keyboard-response","124","683476","0.0-94.0","FF0BAF21C46C4D9ABA513C417FFA195F","0199d685-b161-77a1-8aad-095f700e223d","0199d675-8795-765b-adc2-c813de8cd3d1","","null","<div style=""display: flex; justify-content: center; align-items: center;"">
                     <img src=""images/other/blank.png"" style=""width: 300px; height: 300px;"" />
                   </div>","null","0","0","blank","",""
"","","","","","html-keyboard-response","125","689492","0.0-95.0","FF0BAF21C46C4D9ABA513C417FFA195F","0199d685-b161-77a1-8aad-095f700e223d","0199d675-8795-765b-adc2-c813de8cd3d1","","null","<div style=""display: flex; justify-content: center; align-items: center;"">
                     <img src=""images/causal/causal_series_5/causal_series_5_a.png"" style=""width: 300px; height: 300px;"" />
                   </div>","null","5","1","A","",""
"","","","","","html-button-response","126","717935","0.0-96.0","FF0BAF21C46C4D9ABA513C417FFA195F","0199d685-b161-77a1-8aad-095f700e223d","0199d675-8795-765b-adc2-c813de8cd3d1","","28442","
        <div style=""display: flex; justify-content: center; align-items: center;"">
          <img src=""images/red_deck_2.png"" style=""width: 300px; height: 300px; margin-right: 10px;"" />
          <img src=""images/blue_deck_1.png"" style=""width: 300px; height: 300px;"" />
        </div>","0","5","1","choice","0",""
"","","","","","html-keyboard-response","127","723948","0.0-97.0-0.0-0.0","FF0BAF21C46C4D9ABA513C417FFA195F","0199d685-b161-77a1-8aad-095f700e223d","0199d675-8795-765b-adc2-c813de8cd3d1","","null","<div style=""display: flex; justify-content: center; align-items: center;"">
                     <img src=""images/causal/causal_series_5/causal_series_5_b.png"" style=""width: 300px; height: 300px;"" />
                   </div>","null","5","1","B","",""
"","","","","","html-keyboard-response","128","729955","0.0-97.0-0.0-1.0","FF0BAF21C46C4D9ABA513C417FFA195F","0199d685-b161-77a1-8aad-095f700e223d","0199d675-8795-765b-adc2-c813de8cd3d1","","null","<div style=""display: flex; justify-content: center; align-items: center;"">
                     <img src=""images/causal/causal_series_5/causal_series_5_c.png"" style=""width: 300px; height: 300px;"" />
                   </div>","null","5","1","C","",""
"","","","","","html-keyboard-response","129","735970","0.0-97.0-0.0-2.0","FF0BAF21C46C4D9ABA513C417FFA195F","0199d685-b161-77a1-8aad-095f700e223d","0199d675-8795-765b-adc2-c813de8cd3d1","","null","<div style=""display: flex; justify-content: center; align-items: center;"">
                     <img src=""images/causal/causal_series_5/causal_series_5_d.png"" style=""width: 300px; height: 300px;"" />
                   </div>","null","5","1","D","",""
"","","","","","survey-likert","130","739209","0.0-98.0","FF0BAF21C46C4D9ABA513C417FFA195F","0199d685-b161-77a1-8aad-095f700e223d","0199d675-8795-765b-adc2-c813de8cd3d1","","3238","","{""Q0"":4}","5","1","surprise_rating","","[0]"
"","","","","","survey-likert","131","741067","0.0-99.0","FF0BAF21C46C4D9ABA513C417FFA195F","0199d685-b161-77a1-8aad-095f700e223d","0199d675-8795-765b-adc2-c813de8cd3d1","","1857","","{""Q0"":3}","5","1","enjoyment_rating","","[0]"
"","","","","","html-keyboard-response","132","747078","0.0-100.0","FF0BAF21C46C4D9ABA513C417FFA195F","0199d685-b161-77a1-8aad-095f700e223d","0199d675-8795-765b-adc2-c813de8cd3d1","","null","<div style=""display: flex; justify-content: center; align-items: center;"">
                     <img src=""images/other/blank.png"" style=""width: 300px; height: 300px;"" />
                   </div>","null","0","0","blank","",""
"","","","","","html-keyboard-response","133","753093","0.0-101.0","FF0BAF21C46C4D9ABA513C417FFA195F","0199d685-b161-77a1-8aad-095f700e223d","0199d675-8795-765b-adc2-c813de8cd3d1","","null","<div style=""display: flex; justify-content: center; align-items: center;"">
                     <img src=""images/causal/causal_series_6/causal_series_6_a.png"" style=""width: 300px; height: 300px;"" />
                   </div>","null","6","2","A","",""
"","","","","","html-button-response","134","754031","0.0-102.0","FF0BAF21C46C4D9ABA513C417FFA195F","0199d685-b161-77a1-8aad-095f700e223d","0199d675-8795-765b-adc2-c813de8cd3d1","","937","
        <div style=""display: flex; justify-content: center; align-items: center;"">
          <img src=""images/red_deck_2.png"" style=""width: 300px; height: 300px; margin-right: 10px;"" />
          <img src=""images/blue_deck_1.png"" style=""width: 300px; height: 300px;"" />
        </div>","0","6","2","choice","0",""
"","","","","","html-keyboard-response","135","760045","0.0-103.0-0.0-0.0","FF0BAF21C46C4D9ABA513C417FFA195F","0199d685-b161-77a1-8aad-095f700e223d","0199d675-8795-765b-adc2-c813de8cd3d1","","null","<div style=""display: flex; justify-content: center; align-items: center;"">
                     <img src=""images/causal/causal_series_6/causal_series_6_b.png"" style=""width: 300px; height: 300px;"" />
                   </div>","null","6","2","B","",""
"","","","","","html-keyboard-response","136","766047","0.0-103.0-0.0-1.0","FF0BAF21C46C4D9ABA513C417FFA195F","0199d685-b161-77a1-8aad-095f700e223d","0199d675-8795-765b-adc2-c813de8cd3d1","","null","<div style=""display: flex; justify-content: center; align-items: center;"">
                     <img src=""images/causal/causal_series_6/causal_series_6_c.png"" style=""width: 300px; height: 300px;"" />
                   </div>","null","6","2","C","",""
"","","","","","html-keyboard-response","137","772060","0.0-103.0-0.0-2.0","FF0BAF21C46C4D9ABA513C417FFA195F","0199d685-b161-77a1-8aad-095f700e223d","0199d675-8795-765b-adc2-c813de8cd3d1","","null","<div style=""display: flex; justify-content: center; align-items: center;"">
                     <img src=""images/causal/causal_series_6/causal_series_6_d.png"" style=""width: 300px; height: 300px;"" />
                   </div>","null","6","2","D","",""
"","","","","","survey-likert","138","777766","0.0-104.0","FF0BAF21C46C4D9ABA513C417FFA195F","0199d685-b161-77a1-8aad-095f700e223d","0199d675-8795-765b-adc2-c813de8cd3d1","","5705","","{""Q0"":4}","6","2","surprise_rating","","[0]"
"","","","","","survey-likert","139","780060","0.0-105.0","FF0BAF21C46C4D9ABA513C417FFA195F","0199d685-b161-77a1-8aad-095f700e223d","0199d675-8795-765b-adc2-c813de8cd3d1","","2294","","{""Q0"":3}","6","2","enjoyment_rating","","[0]"
"","","","","","html-keyboard-response","140","786075","0.0-106.0","FF0BAF21C46C4D9ABA513C417FFA195F","0199d685-b161-77a1-8aad-095f700e223d","0199d675-8795-765b-adc2-c813de8cd3d1","","null","<div style=""display: flex; justify-content: center; align-items: center;"">
                     <img src=""images/other/blank.png"" style=""width: 300px; height: 300px;"" />
                   </div>","null","0","0","blank","",""
"","","","","","html-keyboard-response","141","792085","0.0-107.0","FF0BAF21C46C4D9ABA513C417FFA195F","0199d685-b161-77a1-8aad-095f700e223d","0199d675-8795-765b-adc2-c813de8cd3d1","","null","<div style=""display: flex; justify-content: center; align-items: center;"">
                     <img src=""images/causal/causal_series_2/causal_series_2_a.png"" style=""width: 300px; height: 300px;"" />
                   </div>","null","2","2","A","",""
"","","","","","html-button-response","142","819611","0.0-108.0","FF0BAF21C46C4D9ABA513C417FFA195F","0199d685-b161-77a1-8aad-095f700e223d","0199d675-8795-765b-adc2-c813de8cd3d1","","27525","
        <div style=""display: flex; justify-content: center; align-items: center;"">
          <img src=""images/red_deck_2.png"" style=""width: 300px; height: 300px; margin-right: 10px;"" />
          <img src=""images/blue_deck_1.png"" style=""width: 300px; height: 300px;"" />
        </div>","0","2","2","choice","0",""
"","","","","","html-keyboard-response","143","825628","0.0-109.0-0.0-0.0","FF0BAF21C46C4D9ABA513C417FFA195F","0199d685-b161-77a1-8aad-095f700e223d","0199d675-8795-765b-adc2-c813de8cd3d1","","null","<div style=""display: flex; justify-content: center; align-items: center;"">
                     <img src=""images/causal/causal_series_2/causal_series_2_b.png"" style=""width: 300px; height: 300px;"" />
                   </div>","null","2","2","B","",""
"","","","","","html-keyboard-response","144","831636","0.0-109.0-0.0-1.0","FF0BAF21C46C4D9ABA513C417FFA195F","0199d685-b161-77a1-8aad-095f700e223d","0199d675-8795-765b-adc2-c813de8cd3d1","","null","<div style=""display: flex; justify-content: center; align-items: center;"">
                     <img src=""images/causal/causal_series_2/causal_series_2_c.png"" style=""width: 300px; height: 300px;"" />
                   </div>","null","2","2","C","",""
"","","","","","html-keyboard-response","145","837650","0.0-109.0-0.0-2.0","FF0BAF21C46C4D9ABA513C417FFA195F","0199d685-b161-77a1-8aad-095f700e223d","0199d675-8795-765b-adc2-c813de8cd3d1","","null","<div style=""display: flex; justify-content: center; align-items: center;"">
                     <img src=""images/causal/causal_series_2/causal_series_2_d.png"" style=""width: 300px; height: 300px;"" />
                   </div>","null","2","2","D","",""
"","","","","","survey-likert","146","842704","0.0-110.0","FF0BAF21C46C4D9ABA513C417FFA195F","0199d685-b161-77a1-8aad-095f700e223d","0199d675-8795-765b-adc2-c813de8cd3d1","","5054","","{""Q0"":2}","2","2","surprise_rating","","[0]"
"","","","","","survey-likert","147","845008","0.0-111.0","FF0BAF21C46C4D9ABA513C417FFA195F","0199d685-b161-77a1-8aad-095f700e223d","0199d675-8795-765b-adc2-c813de8cd3d1","","2303","","{""Q0"":1}","2","2","enjoyment_rating","","[0]"
"","","","","","html-keyboard-response","148","851010","0.0-112.0","FF0BAF21C46C4D9ABA513C417FFA195F","0199d685-b161-77a1-8aad-095f700e223d","0199d675-8795-765b-adc2-c813de8cd3d1","","null","<div style=""display: flex; justify-content: center; align-items: center;"">
                     <img src=""images/other/blank.png"" style=""width: 300px; height: 300px;"" />
                   </div>","null","0","0","blank","",""
"","","","","","html-keyboard-response","149","857024","0.0-113.0","FF0BAF21C46C4D9ABA513C417FFA195F","0199d685-b161-77a1-8aad-095f700e223d","0199d675-8795-765b-adc2-c813de8cd3d1","","null","<div style=""display: flex; justify-content: center; align-items: center;"">
                     <img src=""images/causal/causal_series_5/causal_series_5_a.png"" style=""width: 300px; height: 300px;"" />
                   </div>","null","5","2","A","",""
"","","","","","html-button-response","150","857976","0.0-114.0","FF0BAF21C46C4D9ABA513C417FFA195F","0199d685-b161-77a1-8aad-095f700e223d","0199d675-8795-765b-adc2-c813de8cd3d1","","951","
        <div style=""display: flex; justify-content: center; align-items: center;"">
          <img src=""images/red_deck_2.png"" style=""width: 300px; height: 300px; margin-right: 10px;"" />
          <img src=""images/blue_deck_1.png"" style=""width: 300px; height: 300px;"" />
        </div>","1","5","2","choice","1",""
"","","","","","html-keyboard-response","151","863992","0.0-115.0-1.0-0.0","FF0BAF21C46C4D9ABA513C417FFA195F","0199d685-b161-77a1-8aad-095f700e223d","0199d675-8795-765b-adc2-c813de8cd3d1","","null","<div style=""display: flex; justify-content: center; align-items: center;"">
                     <img src=""images/semantic/semantic_series_5/semantic_series_5_b.png"" style=""width: 300px; height: 300px;"" />
                   </div>","null","5","2","B","",""
"","","","","","html-keyboard-response","152","870001","0.0-115.0-1.0-1.0","FF0BAF21C46C4D9ABA513C417FFA195F","0199d685-b161-77a1-8aad-095f700e223d","0199d675-8795-765b-adc2-c813de8cd3d1","","null","<div style=""display: flex; justify-content: center; align-items: center;"">
                     <img src=""images/semantic/semantic_series_5/semantic_series_5_c.png"" style=""width: 300px; height: 300px;"" />
                   </div>","null","5","2","C","",""
"","","","","","html-keyboard-response","153","876009","0.0-115.0-1.0-2.0","FF0BAF21C46C4D9ABA513C417FFA195F","0199d685-b161-77a1-8aad-095f700e223d","0199d675-8795-765b-adc2-c813de8cd3d1","","null","<div style=""display: flex; justify-content: center; align-items: center;"">
                     <img src=""images/semantic/semantic_series_5/semantic_series_5_d.png"" style=""width: 300px; height: 300px;"" />
                   </div>","null","5","2","D","",""
"","","","","","survey-likert","154","878156","0.0-116.0","FF0BAF21C46C4D9ABA513C417FFA195F","0199d685-b161-77a1-8aad-095f700e223d","0199d675-8795-765b-adc2-c813de8cd3d1","","2146","","{""Q0"":4}","5","2","surprise_rating","","[0]"
"","","","","","survey-likert","155","879689","0.0-117.0","FF0BAF21C46C4D9ABA513C417FFA195F","0199d685-b161-77a1-8aad-095f700e223d","0199d675-8795-765b-adc2-c813de8cd3d1","","1532","","{""Q0"":3}","5","2","enjoyment_rating","","[0]"
"","","","","","html-keyboard-response","156","885703","0.0-118.0","FF0BAF21C46C4D9ABA513C417FFA195F","0199d685-b161-77a1-8aad-095f700e223d","0199d675-8795-765b-adc2-c813de8cd3d1","","null","<div style=""display: flex; justify-content: center; align-items: center;"">
                     <img src=""images/other/blank.png"" style=""width: 300px; height: 300px;"" />
                   </div>","null","0","0","blank","",""
"","","","","","html-keyboard-response","157","891714","0.0-119.0","FF0BAF21C46C4D9ABA513C417FFA195F","0199d685-b161-77a1-8aad-095f700e223d","0199d675-8795-765b-adc2-c813de8cd3d1","","null","<div style=""display: flex; justify-content: center; align-items: center;"">
                     <img src=""images/causal/causal_series_1/causal_series_1_a.png"" style=""width: 300px; height: 300px;"" />
                   </div>","null","1","2","A","",""
"","","","","","html-button-response","158","892494","0.0-120.0","FF0BAF21C46C4D9ABA513C417FFA195F","0199d685-b161-77a1-8aad-095f700e223d","0199d675-8795-765b-adc2-c813de8cd3d1","","779","
        <div style=""display: flex; justify-content: center; align-items: center;"">
          <img src=""images/red_deck_2.png"" style=""width: 300px; height: 300px; margin-right: 10px;"" />
          <img src=""images/blue_deck_1.png"" style=""width: 300px; height: 300px;"" />
        </div>","1","1","2","choice","1",""
"","","","","","html-keyboard-response","159","898511","0.0-121.0-1.0-0.0","FF0BAF21C46C4D9ABA513C417FFA195F","0199d685-b161-77a1-8aad-095f700e223d","0199d675-8795-765b-adc2-c813de8cd3d1","","null","<div style=""display: flex; justify-content: center; align-items: center;"">
                     <img src=""images/semantic/semantic_series_1/semantic_series_1_b.png"" style=""width: 300px; height: 300px;"" />
                   </div>","null","1","2","B","",""
"","","","","","html-keyboard-response","160","904527","0.0-121.0-1.0-1.0","FF0BAF21C46C4D9ABA513C417FFA195F","0199d685-b161-77a1-8aad-095f700e223d","0199d675-8795-765b-adc2-c813de8cd3d1","","null","<div style=""display: flex; justify-content: center; align-items: center;"">
                     <img src=""images/semantic/semantic_series_1/semantic_series_1_c.png"" style=""width: 300px; height: 300px;"" />
                   </div>","null","1","2","C","",""
"","","","","","html-keyboard-response","161","910531","0.0-121.0-1.0-2.0","FF0BAF21C46C4D9ABA513C417FFA195F","0199d685-b161-77a1-8aad-095f700e223d","0199d675-8795-765b-adc2-c813de8cd3d1","","null","<div style=""display: flex; justify-content: center; align-items: center;"">
                     <img src=""images/semantic/semantic_series_1/semantic_series_1_d.png"" style=""width: 300px; height: 300px;"" />
                   </div>","null","1","2","D","",""
"","","","","","survey-likert","162","912843","0.0-122.0","FF0BAF21C46C4D9ABA513C417FFA195F","0199d685-b161-77a1-8aad-095f700e223d","0199d675-8795-765b-adc2-c813de8cd3d1","","2310","","{""Q0"":4}","1","2","surprise_rating","","[0]"
"","","","","","survey-likert","163","914130","0.0-123.0","FF0BAF21C46C4D9ABA513C417FFA195F","0199d685-b161-77a1-8aad-095f700e223d","0199d675-8795-765b-adc2-c813de8cd3d1","","1287","","{""Q0"":3}","1","2","enjoyment_rating","","[0]"
"","","","","","html-keyboard-response","164","920132","0.0-124.0","FF0BAF21C46C4D9ABA513C417FFA195F","0199d685-b161-77a1-8aad-095f700e223d","0199d675-8795-765b-adc2-c813de8cd3d1","","null","<div style=""display: flex; justify-content: center; align-items: center;"">
                     <img src=""images/other/blank.png"" style=""width: 300px; height: 300px;"" />
                   </div>","null","0","0","blank","",""
"","","","","","survey-text","165","947406","0.0-125.0","FF0BAF21C46C4D9ABA513C417FFA195F","0199d685-b161-77a1-8aad-095f700e223d","0199d675-8795-765b-adc2-c813de8cd3d1","","27271","","{""Q0"":""One follows a cohesive storyline while the other is seemingly random. ""}","","","","",""
"","","","","","html-button-response","166","951076","0.0-126.0","FF0BAF21C46C4D9ABA513C417FFA195F","0199d685-b161-77a1-8aad-095f700e223d","0199d675-8795-765b-adc2-c813de8cd3d1","","3669","Which color deck do the following sentences continue the story from?","0","","","","",""
"","","","","","html-button-response","167","952126","0.0-127.0","FF0BAF21C46C4D9ABA513C417FFA195F","0199d685-b161-77a1-8aad-095f700e223d","0199d675-8795-765b-adc2-c813de8cd3d1","","1050","Which color deck do the following sentences NOT follow the story from?","1","","","","",""
"","","","","","html-button-response","168","955896","0.0-128.0","FF0BAF21C46C4D9ABA513C417FFA195F","0199d685-b161-77a1-8aad-095f700e223d","0199d675-8795-765b-adc2-c813de8cd3d1","","3770","Which type of deck did you prefer overall?","1","","","","",""
"","","","","","survey-text","169","963702","0.0-129.0","FF0BAF21C46C4D9ABA513C417FFA195F","0199d685-b161-77a1-8aad-095f700e223d","0199d675-8795-765b-adc2-c813de8cd3d1","","7804","","{""Q0"":""FEMALE"",""Q1"":""22""}","","","","",""
"","","","","","instructions","170","969821","0.0-130.0","FF0BAF21C46C4D9ABA513C417FFA195F","0199d685-b161-77a1-8aad-095f700e223d","0199d675-8795-765b-adc2-c813de8cd3d1","[{""page_index"":0,""viewing_time"":6118}]","6118","","","","","","",""
