"success","timeout","failed_images","failed_audio","failed_video","trial_type","trial_index","time_elapsed","internal_node_id","subject_id","study_id","session_id","view_history","rt","stimulus","response","choice","question_order"
"true","false","[]","[]","[]","preload","0","3008","0.0-0.0","71F47EAEE775441E9220F5F965A24448","0199d198-7d34-7ab9-8ceb-d99f583b0d83","0199d186-0eff-7474-b70b-510438a34121","","","","","",""
"","","","","","instructions","1","188615","0.0-1.0","71F47EAEE775441E9220F5F965A24448","0199d198-7d34-7ab9-8ceb-d99f583b0d83","0199d186-0eff-7474-b70b-510438a34121","[{""page_index"":0,""viewing_time"":185606}]","185607","","","",""
"","","","","","instructions","2","220634","0.0-2.0","71F47EAEE775441E9220F5F965A24448","0199d198-7d34-7ab9-8ceb-d99f583b0d83","0199d186-0eff-7474-b70b-510438a34121","[{""page_index"":0,""viewing_time"":32016}]","32016","","","",""
"true","","","","","fullscreen","3","227886","0.0-3.0","71F47EAEE775441E9220F5F965A24448","0199d198-7d34-7ab9-8ceb-d99f583b0d83","0199d186-0eff-7474-b70b-510438a34121","","6155","","","",""
"","","","","","instructions","4","278671","0.0-4.0","71F47EAEE775441E9220F5F965A24448","0199d198-7d34-7ab9-8ceb-d99f583b0d83","0199d186-0eff-7474-b70b-510438a34121","[{""page_index"":0,""viewing_time"":50783}]","50784","","","",""
"","","","","","html-keyboard-response","5","285710","0.0-5.0","71F47EAEE775441E9220F5F965A24448","0199d198-7d34-7ab9-8ceb-d99f583b0d83","0199d186-0eff-7474-b70b-510438a34121","","null","<div style=""display: flex; justify-content: center; align-items: center;"">
                     <img src=""images/causal/causal_series_8/causal_series_8_a.png"" style=""width: 300px; height: 300px;"" />
                   </div>","null","",""
"","","","","","html-keyboard-response","6","292721","0.0-6.0","71F47EAEE775441E9220F5F965A24448","0199d198-7d34-7ab9-8ceb-d99f583b0d83","0199d186-0eff-7474-b70b-510438a34121","","null","<div style=""display: flex; justify-content: center; align-items: center;"">
                     <img src=""images/causal/causal_series_8/causal_series_8_b.png"" style=""width: 300px; height: 300px;"" />
                   </div>","null","",""
"","","","","","html-keyboard-response","7","299732","0.0-7.0","71F47EAEE775441E9220F5F965A24448","0199d198-7d34-7ab9-8ceb-d99f583b0d83","0199d186-0eff-7474-b70b-510438a34121","","null","<div style=""display: flex; justify-content: center; align-items: center;"">
                     <img src=""images/causal/causal_series_8/causal_series_8_c.png"" style=""width: 300px; height: 300px;"" />
                   </div>","null","",""
"","","","","","html-button-response","8","303056","0.0-8.0","71F47EAEE775441E9220F5F965A24448","0199d198-7d34-7ab9-8ceb-d99f583b0d83","0199d186-0eff-7474-b70b-510438a34121","","3320","
        <div style=""display: flex; justify-content: center; align-items: center;"">
          <img src=""images/red_deck_2.png"" style=""width: 300px; height: 300px; margin-right: 10px;"" />
          <img src=""images/blue_deck_1.png"" style=""width: 300px; height: 300px;"" />
        </div>","0","0",""
"","","","","","html-keyboard-response","9","310072","0.0-9.0-0.0-0.0","71F47EAEE775441E9220F5F965A24448","0199d198-7d34-7ab9-8ceb-d99f583b0d83","0199d186-0eff-7474-b70b-510438a34121","","null","<div style=""display: flex; justify-content: center; align-items: center;"">
                     <img src=""images/causal/causal_series_8/causal_series_8_d.png"" style=""width: 300px; height: 300px;"" />
                   </div>","null","",""
"","","","","","survey-likert","10","316501","0.0-10.0","71F47EAEE775441E9220F5F965A24448","0199d198-7d34-7ab9-8ceb-d99f583b0d83","0199d186-0eff-7474-b70b-510438a34121","","6388","","{""Q0"":2}","","[0]"
"","","","","","survey-likert","11","321174","0.0-11.0","71F47EAEE775441E9220F5F965A24448","0199d198-7d34-7ab9-8ceb-d99f583b0d83","0199d186-0eff-7474-b70b-510438a34121","","4671","","{""Q0"":3}","","[0]"
"","","","","","html-keyboard-response","12","328185","0.0-12.0","71F47EAEE775441E9220F5F965A24448","0199d198-7d34-7ab9-8ceb-d99f583b0d83","0199d186-0eff-7474-b70b-510438a34121","","null","<div style=""display: flex; justify-content: center; align-items: center;"">
                     <img src=""images/other/blank.png"" style=""width: 300px; height: 300px;"" />
                   </div>","null","",""
"","","","","","html-keyboard-response","13","335189","0.0-13.0","71F47EAEE775441E9220F5F965A24448","0199d198-7d34-7ab9-8ceb-d99f583b0d83","0199d186-0eff-7474-b70b-510438a34121","","null","<div style=""display: flex; justify-content: center; align-items: center;"">
                     <img src=""images/causal/causal_series_5/causal_series_5_a.png"" style=""width: 300px; height: 300px;"" />
                   </div>","null","",""
"","","","","","html-keyboard-response","14","342202","0.0-14.0","71F47EAEE775441E9220F5F965A24448","0199d198-7d34-7ab9-8ceb-d99f583b0d83","0199d186-0eff-7474-b70b-510438a34121","","null","<div style=""display: flex; justify-content: center; align-items: center;"">
                     <img src=""images/causal/causal_series_5/causal_series_5_b.png"" style=""width: 300px; height: 300px;"" />
                   </div>","null","",""
"","","","","","html-keyboard-response","15","349207","0.0-15.0","71F47EAEE775441E9220F5F965A24448","0199d198-7d34-7ab9-8ceb-d99f583b0d83","0199d186-0eff-7474-b70b-510438a34121","","null","<div style=""display: flex; justify-content: center; align-items: center;"">
                     <img src=""images/causal/causal_series_5/causal_series_5_c.png"" style=""width: 300px; height: 300px;"" />
                   </div>","null","",""
"","","","","","html-button-response","16","351063","0.0-16.0","71F47EAEE775441E9220F5F965A24448","0199d198-7d34-7ab9-8ceb-d99f583b0d83","0199d186-0eff-7474-b70b-510438a34121","","1854","
        <div style=""display: flex; justify-content: center; align-items: center;"">
          <img src=""images/red_deck_2.png"" style=""width: 300px; height: 300px; margin-right: 10px;"" />
          <img src=""images/blue_deck_1.png"" style=""width: 300px; height: 300px;"" />
        </div>","1","1",""
"","","","","","html-keyboard-response","17","358068","0.0-17.0-1.0-0.0","71F47EAEE775441E9220F5F965A24448","0199d198-7d34-7ab9-8ceb-d99f583b0d83","0199d186-0eff-7474-b70b-510438a34121","","null","<div style=""display: flex; justify-content: center; align-items: center;"">
                     <img src=""images/semantic/semantic_series_5/semantic_series_5_d.png"" style=""width: 300px; height: 300px;"" />
                   </div>","null","",""
"","","","","","survey-likert","18","363967","0.0-18.0","71F47EAEE775441E9220F5F965A24448","0199d198-7d34-7ab9-8ceb-d99f583b0d83","0199d186-0eff-7474-b70b-510438a34121","","5896","","{""Q0"":3}","","[0]"
"","","","","","survey-likert","19","369308","0.0-19.0","71F47EAEE775441E9220F5F965A24448","0199d198-7d34-7ab9-8ceb-d99f583b0d83","0199d186-0eff-7474-b70b-510438a34121","","5338","","{""Q0"":4}","","[0]"
"","","","","","html-keyboard-response","20","376317","0.0-20.0","71F47EAEE775441E9220F5F965A24448","0199d198-7d34-7ab9-8ceb-d99f583b0d83","0199d186-0eff-7474-b70b-510438a34121","","null","<div style=""display: flex; justify-content: center; align-items: center;"">
                     <img src=""images/other/blank.png"" style=""width: 300px; height: 300px;"" />
                   </div>","null","",""
"","","","","","html-keyboard-response","21","383319","0.0-21.0","71F47EAEE775441E9220F5F965A24448","0199d198-7d34-7ab9-8ceb-d99f583b0d83","0199d186-0eff-7474-b70b-510438a34121","","null","<div style=""display: flex; justify-content: center; align-items: center;"">
                     <img src=""images/causal/causal_series_10/causal_series_10_a.png"" style=""width: 300px; height: 300px;"" />
                   </div>","null","",""
"","","","","","html-keyboard-response","22","390324","0.0-22.0","71F47EAEE775441E9220F5F965A24448","0199d198-7d34-7ab9-8ceb-d99f583b0d83","0199d186-0eff-7474-b70b-510438a34121","","null","<div style=""display: flex; justify-content: center; align-items: center;"">
                     <img src=""images/causal/causal_series_10/causal_series_10_b.png"" style=""width: 300px; height: 300px;"" />
                   </div>","null","",""
"","","","","","html-keyboard-response","23","397340","0.0-23.0","71F47EAEE775441E9220F5F965A24448","0199d198-7d34-7ab9-8ceb-d99f583b0d83","0199d186-0eff-7474-b70b-510438a34121","","null","<div style=""display: flex; justify-content: center; align-items: center;"">
                     <img src=""images/causal/causal_series_10/causal_series_10_c.png"" style=""width: 300px; height: 300px;"" />
                   </div>","null","",""
"","","","","","html-button-response","24","403006","0.0-24.0","71F47EAEE775441E9220F5F965A24448","0199d198-7d34-7ab9-8ceb-d99f583b0d83","0199d186-0eff-7474-b70b-510438a34121","","5665","
        <div style=""display: flex; justify-content: center; align-items: center;"">
          <img src=""images/red_deck_2.png"" style=""width: 300px; height: 300px; margin-right: 10px;"" />
          <img src=""images/blue_deck_1.png"" style=""width: 300px; height: 300px;"" />
        </div>","0","0",""
"","","","","","html-keyboard-response","25","410014","0.0-25.0-0.0-0.0","71F47EAEE775441E9220F5F965A24448","0199d198-7d34-7ab9-8ceb-d99f583b0d83","0199d186-0eff-7474-b70b-510438a34121","","null","<div style=""display: flex; justify-content: center; align-items: center;"">
                     <img src=""images/causal/causal_series_10/causal_series_10_d.png"" style=""width: 300px; height: 300px;"" />
                   </div>","null","",""
"","","","","","survey-likert","26","417207","0.0-26.0","71F47EAEE775441E9220F5F965A24448","0199d198-7d34-7ab9-8ceb-d99f583b0d83","0199d186-0eff-7474-b70b-510438a34121","","7191","","{""Q0"":4}","","[0]"
"","","","","","survey-likert","27","424759","0.0-27.0","71F47EAEE775441E9220F5F965A24448","0199d198-7d34-7ab9-8ceb-d99f583b0d83","0199d186-0eff-7474-b70b-510438a34121","","7549","","{""Q0"":2}","","[0]"
"","","","","","html-keyboard-response","28","431770","0.0-28.0","71F47EAEE775441E9220F5F965A24448","0199d198-7d34-7ab9-8ceb-d99f583b0d83","0199d186-0eff-7474-b70b-510438a34121","","null","<div style=""display: flex; justify-content: center; align-items: center;"">
                     <img src=""images/other/blank.png"" style=""width: 300px; height: 300px;"" />
                   </div>","null","",""
"","","","","","html-keyboard-response","29","438783","0.0-29.0","71F47EAEE775441E9220F5F965A24448","0199d198-7d34-7ab9-8ceb-d99f583b0d83","0199d186-0eff-7474-b70b-510438a34121","","null","<div style=""display: flex; justify-content: center; align-items: center;"">
                     <img src=""images/causal/causal_series_7/causal_series_7_a.png"" style=""width: 300px; height: 300px;"" />
                   </div>","null","",""
"","","","","","html-keyboard-response","30","445792","0.0-30.0","71F47EAEE775441E9220F5F965A24448","0199d198-7d34-7ab9-8ceb-d99f583b0d83","0199d186-0eff-7474-b70b-510438a34121","","null","<div style=""display: flex; justify-content: center; align-items: center;"">
                     <img src=""images/causal/causal_series_7/causal_series_7_b.png"" style=""width: 300px; height: 300px;"" />
                   </div>","null","",""
"","","","","","html-keyboard-response","31","452801","0.0-31.0","71F47EAEE775441E9220F5F965A24448","0199d198-7d34-7ab9-8ceb-d99f583b0d83","0199d186-0eff-7474-b70b-510438a34121","","null","<div style=""display: flex; justify-content: center; align-items: center;"">
                     <img src=""images/causal/causal_series_7/causal_series_7_c.png"" style=""width: 300px; height: 300px;"" />
                   </div>","null","",""
"","","","","","html-button-response","32","457558","0.0-32.0","71F47EAEE775441E9220F5F965A24448","0199d198-7d34-7ab9-8ceb-d99f583b0d83","0199d186-0eff-7474-b70b-510438a34121","","4756","
        <div style=""display: flex; justify-content: center; align-items: center;"">
          <img src=""images/red_deck_2.png"" style=""width: 300px; height: 300px; margin-right: 10px;"" />
          <img src=""images/blue_deck_1.png"" style=""width: 300px; height: 300px;"" />
        </div>","0","0",""
"","","","","","html-keyboard-response","33","464575","0.0-33.0-0.0-0.0","71F47EAEE775441E9220F5F965A24448","0199d198-7d34-7ab9-8ceb-d99f583b0d83","0199d186-0eff-7474-b70b-510438a34121","","null","<div style=""display: flex; justify-content: center; align-items: center;"">
                     <img src=""images/causal/causal_series_7/causal_series_7_d.png"" style=""width: 300px; height: 300px;"" />
                   </div>","null","",""
"","","","","","survey-likert","34","468719","0.0-34.0","71F47EAEE775441E9220F5F965A24448","0199d198-7d34-7ab9-8ceb-d99f583b0d83","0199d186-0eff-7474-b70b-510438a34121","","4141","","{""Q0"":4}","","[0]"
"","","","","","survey-likert","35","471972","0.0-35.0","71F47EAEE775441E9220F5F965A24448","0199d198-7d34-7ab9-8ceb-d99f583b0d83","0199d186-0eff-7474-b70b-510438a34121","","3251","","{""Q0"":3}","","[0]"
"","","","","","html-keyboard-response","36","478976","0.0-36.0","71F47EAEE775441E9220F5F965A24448","0199d198-7d34-7ab9-8ceb-d99f583b0d83","0199d186-0eff-7474-b70b-510438a34121","","null","<div style=""display: flex; justify-content: center; align-items: center;"">
                     <img src=""images/other/blank.png"" style=""width: 300px; height: 300px;"" />
                   </div>","null","",""
"","","","","","html-keyboard-response","37","485983","0.0-37.0","71F47EAEE775441E9220F5F965A24448","0199d198-7d34-7ab9-8ceb-d99f583b0d83","0199d186-0eff-7474-b70b-510438a34121","","null","<div style=""display: flex; justify-content: center; align-items: center;"">
                     <img src=""images/causal/causal_series_1/causal_series_1_a.png"" style=""width: 300px; height: 300px;"" />
                   </div>","null","",""
"","","","","","html-keyboard-response","38","492985","0.0-38.0","71F47EAEE775441E9220F5F965A24448","0199d198-7d34-7ab9-8ceb-d99f583b0d83","0199d186-0eff-7474-b70b-510438a34121","","null","<div style=""display: flex; justify-content: center; align-items: center;"">
                     <img src=""images/causal/causal_series_1/causal_series_1_b.png"" style=""width: 300px; height: 300px;"" />
                   </div>","null","",""
"","","","","","html-keyboard-response","39","499996","0.0-39.0","71F47EAEE775441E9220F5F965A24448","0199d198-7d34-7ab9-8ceb-d99f583b0d83","0199d186-0eff-7474-b70b-510438a34121","","null","<div style=""display: flex; justify-content: center; align-items: center;"">
                     <img src=""images/causal/causal_series_1/causal_series_1_c.png"" style=""width: 300px; height: 300px;"" />
                   </div>","null","",""
"","","","","","html-button-response","40","501955","0.0-40.0","71F47EAEE775441E9220F5F965A24448","0199d198-7d34-7ab9-8ceb-d99f583b0d83","0199d186-0eff-7474-b70b-510438a34121","","1957","
        <div style=""display: flex; justify-content: center; align-items: center;"">
          <img src=""images/red_deck_2.png"" style=""width: 300px; height: 300px; margin-right: 10px;"" />
          <img src=""images/blue_deck_1.png"" style=""width: 300px; height: 300px;"" />
        </div>","1","1",""
"","","","","","html-keyboard-response","41","508963","0.0-41.0-1.0-0.0","71F47EAEE775441E9220F5F965A24448","0199d198-7d34-7ab9-8ceb-d99f583b0d83","0199d186-0eff-7474-b70b-510438a34121","","null","<div style=""display: flex; justify-content: center; align-items: center;"">
                     <img src=""images/semantic/semantic_series_1/semantic_series_1_d.png"" style=""width: 300px; height: 300px;"" />
                   </div>","null","",""
"","","","","","survey-likert","42","516583","0.0-42.0","71F47EAEE775441E9220F5F965A24448","0199d198-7d34-7ab9-8ceb-d99f583b0d83","0199d186-0eff-7474-b70b-510438a34121","","7618","","{""Q0"":1}","","[0]"
"","","","","","survey-likert","43","523258","0.0-43.0","71F47EAEE775441E9220F5F965A24448","0199d198-7d34-7ab9-8ceb-d99f583b0d83","0199d186-0eff-7474-b70b-510438a34121","","6673","","{""Q0"":3}","","[0]"
"","","","","","html-keyboard-response","44","530272","0.0-44.0","71F47EAEE775441E9220F5F965A24448","0199d198-7d34-7ab9-8ceb-d99f583b0d83","0199d186-0eff-7474-b70b-510438a34121","","null","<div style=""display: flex; justify-content: center; align-items: center;"">
                     <img src=""images/other/blank.png"" style=""width: 300px; height: 300px;"" />
                   </div>","null","",""
"","","","","","html-keyboard-response","45","537290","0.0-45.0","71F47EAEE775441E9220F5F965A24448","0199d198-7d34-7ab9-8ceb-d99f583b0d83","0199d186-0eff-7474-b70b-510438a34121","","null","<div style=""display: flex; justify-content: center; align-items: center;"">
                     <img src=""images/causal/causal_series_9/causal_series_9_a.png"" style=""width: 300px; height: 300px;"" />
                   </div>","null","",""
"","","","","","html-keyboard-response","46","544297","0.0-46.0","71F47EAEE775441E9220F5F965A24448","0199d198-7d34-7ab9-8ceb-d99f583b0d83","0199d186-0eff-7474-b70b-510438a34121","","null","<div style=""display: flex; justify-content: center; align-items: center;"">
                     <img src=""images/causal/causal_series_9/causal_series_9_b.png"" style=""width: 300px; height: 300px;"" />
                   </div>","null","",""
"","","","","","html-keyboard-response","47","551313","0.0-47.0","71F47EAEE775441E9220F5F965A24448","0199d198-7d34-7ab9-8ceb-d99f583b0d83","0199d186-0eff-7474-b70b-510438a34121","","null","<div style=""display: flex; justify-content: center; align-items: center;"">
                     <img src=""images/causal/causal_series_9/causal_series_9_c.png"" style=""width: 300px; height: 300px;"" />
                   </div>","null","",""
"","","","","","html-button-response","48","553368","0.0-48.0","71F47EAEE775441E9220F5F965A24448","0199d198-7d34-7ab9-8ceb-d99f583b0d83","0199d186-0eff-7474-b70b-510438a34121","","2053","
        <div style=""display: flex; justify-content: center; align-items: center;"">
          <img src=""images/red_deck_2.png"" style=""width: 300px; height: 300px; margin-right: 10px;"" />
          <img src=""images/blue_deck_1.png"" style=""width: 300px; height: 300px;"" />
        </div>","0","0",""
"","","","","","html-keyboard-response","49","560377","0.0-49.0-0.0-0.0","71F47EAEE775441E9220F5F965A24448","0199d198-7d34-7ab9-8ceb-d99f583b0d83","0199d186-0eff-7474-b70b-510438a34121","","null","<div style=""display: flex; justify-content: center; align-items: center;"">
                     <img src=""images/causal/causal_series_9/causal_series_9_d.png"" style=""width: 300px; height: 300px;"" />
                   </div>","null","",""
"","","","","","survey-likert","50","564169","0.0-50.0","71F47EAEE775441E9220F5F965A24448","0199d198-7d34-7ab9-8ceb-d99f583b0d83","0199d186-0eff-7474-b70b-510438a34121","","3791","","{""Q0"":3}","","[0]"
"","","","","","survey-likert","51","569631","0.0-51.0","71F47EAEE775441E9220F5F965A24448","0199d198-7d34-7ab9-8ceb-d99f583b0d83","0199d186-0eff-7474-b70b-510438a34121","","5460","","{""Q0"":4}","","[0]"
"","","","","","html-keyboard-response","52","576634","0.0-52.0","71F47EAEE775441E9220F5F965A24448","0199d198-7d34-7ab9-8ceb-d99f583b0d83","0199d186-0eff-7474-b70b-510438a34121","","null","<div style=""display: flex; justify-content: center; align-items: center;"">
                     <img src=""images/other/blank.png"" style=""width: 300px; height: 300px;"" />
                   </div>","null","",""
"","","","","","html-keyboard-response","53","583649","0.0-53.0","71F47EAEE775441E9220F5F965A24448","0199d198-7d34-7ab9-8ceb-d99f583b0d83","0199d186-0eff-7474-b70b-510438a34121","","null","<div style=""display: flex; justify-content: center; align-items: center;"">
                     <img src=""images/causal/causal_series_2/causal_series_2_a.png"" style=""width: 300px; height: 300px;"" />
                   </div>","null","",""
"","","","","","html-keyboard-response","54","590658","0.0-54.0","71F47EAEE775441E9220F5F965A24448","0199d198-7d34-7ab9-8ceb-d99f583b0d83","0199d186-0eff-7474-b70b-510438a34121","","null","<div style=""display: flex; justify-content: center; align-items: center;"">
                     <img src=""images/causal/causal_series_2/causal_series_2_b.png"" style=""width: 300px; height: 300px;"" />
                   </div>","null","",""
"","","","","","html-keyboard-response","55","597671","0.0-55.0","71F47EAEE775441E9220F5F965A24448","0199d198-7d34-7ab9-8ceb-d99f583b0d83","0199d186-0eff-7474-b70b-510438a34121","","null","<div style=""display: flex; justify-content: center; align-items: center;"">
                     <img src=""images/causal/causal_series_2/causal_series_2_c.png"" style=""width: 300px; height: 300px;"" />
                   </div>","null","",""
"","","","","","html-button-response","56","599751","0.0-56.0","71F47EAEE775441E9220F5F965A24448","0199d198-7d34-7ab9-8ceb-d99f583b0d83","0199d186-0eff-7474-b70b-510438a34121","","2078","
        <div style=""display: flex; justify-content: center; align-items: center;"">
          <img src=""images/red_deck_2.png"" style=""width: 300px; height: 300px; margin-right: 10px;"" />
          <img src=""images/blue_deck_1.png"" style=""width: 300px; height: 300px;"" />
        </div>","0","0",""
"","","","","","html-keyboard-response","57","606754","0.0-57.0-0.0-0.0","71F47EAEE775441E9220F5F965A24448","0199d198-7d34-7ab9-8ceb-d99f583b0d83","0199d186-0eff-7474-b70b-510438a34121","","null","<div style=""display: flex; justify-content: center; align-items: center;"">
                     <img src=""images/causal/causal_series_2/causal_series_2_d.png"" style=""width: 300px; height: 300px;"" />
                   </div>","null","",""
"","","","","","survey-likert","58","611643","0.0-58.0","71F47EAEE775441E9220F5F965A24448","0199d198-7d34-7ab9-8ceb-d99f583b0d83","0199d186-0eff-7474-b70b-510438a34121","","4887","","{""Q0"":3}","","[0]"
"","","","","","survey-likert","59","615237","0.0-59.0","71F47EAEE775441E9220F5F965A24448","0199d198-7d34-7ab9-8ceb-d99f583b0d83","0199d186-0eff-7474-b70b-510438a34121","","3592","","{""Q0"":1}","","[0]"
"","","","","","html-keyboard-response","60","622240","0.0-60.0","71F47EAEE775441E9220F5F965A24448","0199d198-7d34-7ab9-8ceb-d99f583b0d83","0199d186-0eff-7474-b70b-510438a34121","","null","<div style=""display: flex; justify-content: center; align-items: center;"">
                     <img src=""images/other/blank.png"" style=""width: 300px; height: 300px;"" />
                   </div>","null","",""
"","","","","","html-keyboard-response","61","629251","0.0-61.0","71F47EAEE775441E9220F5F965A24448","0199d198-7d34-7ab9-8ceb-d99f583b0d83","0199d186-0eff-7474-b70b-510438a34121","","null","<div style=""display: flex; justify-content: center; align-items: center;"">
                     <img src=""images/causal/causal_series_6/causal_series_6_a.png"" style=""width: 300px; height: 300px;"" />
                   </div>","null","",""
"","","","","","html-keyboard-response","62","636258","0.0-62.0","71F47EAEE775441E9220F5F965A24448","0199d198-7d34-7ab9-8ceb-d99f583b0d83","0199d186-0eff-7474-b70b-510438a34121","","null","<div style=""display: flex; justify-content: center; align-items: center;"">
                     <img src=""images/causal/causal_series_6/causal_series_6_b.png"" style=""width: 300px; height: 300px;"" />
                   </div>","null","",""
"","","","","","html-keyboard-response","63","643274","0.0-63.0","71F47EAEE775441E9220F5F965A24448","0199d198-7d34-7ab9-8ceb-d99f583b0d83","0199d186-0eff-7474-b70b-510438a34121","","null","<div style=""display: flex; justify-content: center; align-items: center;"">
                     <img src=""images/causal/causal_series_6/causal_series_6_c.png"" style=""width: 300px; height: 300px;"" />
                   </div>","null","",""
"","","","","","html-button-response","64","644881","0.0-64.0","71F47EAEE775441E9220F5F965A24448","0199d198-7d34-7ab9-8ceb-d99f583b0d83","0199d186-0eff-7474-b70b-510438a34121","","1605","
        <div style=""display: flex; justify-content: center; align-items: center;"">
          <img src=""images/red_deck_2.png"" style=""width: 300px; height: 300px; margin-right: 10px;"" />
          <img src=""images/blue_deck_1.png"" style=""width: 300px; height: 300px;"" />
        </div>","1","1",""
"","","","","","html-keyboard-response","65","651898","0.0-65.0-1.0-0.0","71F47EAEE775441E9220F5F965A24448","0199d198-7d34-7ab9-8ceb-d99f583b0d83","0199d186-0eff-7474-b70b-510438a34121","","null","<div style=""display: flex; justify-content: center; align-items: center;"">
                     <img src=""images/semantic/semantic_series_6/semantic_series_6_d.png"" style=""width: 300px; height: 300px;"" />
                   </div>","null","",""
"","","","","","survey-likert","66","659658","0.0-66.0","71F47EAEE775441E9220F5F965A24448","0199d198-7d34-7ab9-8ceb-d99f583b0d83","0199d186-0eff-7474-b70b-510438a34121","","7758","","{""Q0"":3}","","[0]"
"","","","","","survey-likert","67","663194","0.0-67.0","71F47EAEE775441E9220F5F965A24448","0199d198-7d34-7ab9-8ceb-d99f583b0d83","0199d186-0eff-7474-b70b-510438a34121","","3535","","{""Q0"":2}","","[0]"
"","","","","","html-keyboard-response","68","670197","0.0-68.0","71F47EAEE775441E9220F5F965A24448","0199d198-7d34-7ab9-8ceb-d99f583b0d83","0199d186-0eff-7474-b70b-510438a34121","","null","<div style=""display: flex; justify-content: center; align-items: center;"">
                     <img src=""images/other/blank.png"" style=""width: 300px; height: 300px;"" />
                   </div>","null","",""
"","","","","","html-keyboard-response","69","677198","0.0-69.0","71F47EAEE775441E9220F5F965A24448","0199d198-7d34-7ab9-8ceb-d99f583b0d83","0199d186-0eff-7474-b70b-510438a34121","","null","<div style=""display: flex; justify-content: center; align-items: center;"">
                     <img src=""images/causal/causal_series_4/causal_series_4_a.png"" style=""width: 300px; height: 300px;"" />
                   </div>","null","",""
"","","","","","html-keyboard-response","70","684214","0.0-70.0","71F47EAEE775441E9220F5F965A24448","0199d198-7d34-7ab9-8ceb-d99f583b0d83","0199d186-0eff-7474-b70b-510438a34121","","null","<div style=""display: flex; justify-content: center; align-items: center;"">
                     <img src=""images/causal/causal_series_4/causal_series_4_b.png"" style=""width: 300px; height: 300px;"" />
                   </div>","null","",""
"","","","","","html-keyboard-response","71","691216","0.0-71.0","71F47EAEE775441E9220F5F965A24448","0199d198-7d34-7ab9-8ceb-d99f583b0d83","0199d186-0eff-7474-b70b-510438a34121","","null","<div style=""display: flex; justify-content: center; align-items: center;"">
                     <img src=""images/causal/causal_series_4/causal_series_4_c.png"" style=""width: 300px; height: 300px;"" />
                   </div>","null","",""
"","","","","","html-button-response","72","693139","0.0-72.0","71F47EAEE775441E9220F5F965A24448","0199d198-7d34-7ab9-8ceb-d99f583b0d83","0199d186-0eff-7474-b70b-510438a34121","","1921","
        <div style=""display: flex; justify-content: center; align-items: center;"">
          <img src=""images/red_deck_2.png"" style=""width: 300px; height: 300px; margin-right: 10px;"" />
          <img src=""images/blue_deck_1.png"" style=""width: 300px; height: 300px;"" />
        </div>","1","1",""
"","","","","","html-keyboard-response","73","700143","0.0-73.0-1.0-0.0","71F47EAEE775441E9220F5F965A24448","0199d198-7d34-7ab9-8ceb-d99f583b0d83","0199d186-0eff-7474-b70b-510438a34121","","null","<div style=""display: flex; justify-content: center; align-items: center;"">
                     <img src=""images/semantic/semantic_series_4/semantic_series_4_d.png"" style=""width: 300px; height: 300px;"" />
                   </div>","null","",""
"","","","","","survey-likert","74","704136","0.0-74.0","71F47EAEE775441E9220F5F965A24448","0199d198-7d34-7ab9-8ceb-d99f583b0d83","0199d186-0eff-7474-b70b-510438a34121","","3991","","{""Q0"":3}","","[0]"
"","","","","","survey-likert","75","709152","0.0-75.0","71F47EAEE775441E9220F5F965A24448","0199d198-7d34-7ab9-8ceb-d99f583b0d83","0199d186-0eff-7474-b70b-510438a34121","","5013","","{""Q0"":4}","","[0]"
"","","","","","html-keyboard-response","76","716157","0.0-76.0","71F47EAEE775441E9220F5F965A24448","0199d198-7d34-7ab9-8ceb-d99f583b0d83","0199d186-0eff-7474-b70b-510438a34121","","null","<div style=""display: flex; justify-content: center; align-items: center;"">
                     <img src=""images/other/blank.png"" style=""width: 300px; height: 300px;"" />
                   </div>","null","",""
"","","","","","html-keyboard-response","77","723174","0.0-77.0","71F47EAEE775441E9220F5F965A24448","0199d198-7d34-7ab9-8ceb-d99f583b0d83","0199d186-0eff-7474-b70b-510438a34121","","null","<div style=""display: flex; justify-content: center; align-items: center;"">
                     <img src=""images/causal/causal_series_3/causal_series_3_a.png"" style=""width: 300px; height: 300px;"" />
                   </div>","null","",""
"","","","","","html-keyboard-response","78","730185","0.0-78.0","71F47EAEE775441E9220F5F965A24448","0199d198-7d34-7ab9-8ceb-d99f583b0d83","0199d186-0eff-7474-b70b-510438a34121","","null","<div style=""display: flex; justify-content: center; align-items: center;"">
                     <img src=""images/causal/causal_series_3/causal_series_3_b.png"" style=""width: 300px; height: 300px;"" />
                   </div>","null","",""
"","","","","","html-keyboard-response","79","737194","0.0-79.0","71F47EAEE775441E9220F5F965A24448","0199d198-7d34-7ab9-8ceb-d99f583b0d83","0199d186-0eff-7474-b70b-510438a34121","","null","<div style=""display: flex; justify-content: center; align-items: center;"">
                     <img src=""images/causal/causal_series_3/causal_series_3_c.png"" style=""width: 300px; height: 300px;"" />
                   </div>","null","",""
"","","","","","html-button-response","80","739534","0.0-80.0","71F47EAEE775441E9220F5F965A24448","0199d198-7d34-7ab9-8ceb-d99f583b0d83","0199d186-0eff-7474-b70b-510438a34121","","2338","
        <div style=""display: flex; justify-content: center; align-items: center;"">
          <img src=""images/red_deck_2.png"" style=""width: 300px; height: 300px; margin-right: 10px;"" />
          <img src=""images/blue_deck_1.png"" style=""width: 300px; height: 300px;"" />
        </div>","0","0",""
"","","","","","html-keyboard-response","81","746537","0.0-81.0-0.0-0.0","71F47EAEE775441E9220F5F965A24448","0199d198-7d34-7ab9-8ceb-d99f583b0d83","0199d186-0eff-7474-b70b-510438a34121","","null","<div style=""display: flex; justify-content: center; align-items: center;"">
                     <img src=""images/causal/causal_series_3/causal_series_3_d.png"" style=""width: 300px; height: 300px;"" />
                   </div>","null","",""
"","","","","","survey-likert","82","750692","0.0-82.0","71F47EAEE775441E9220F5F965A24448","0199d198-7d34-7ab9-8ceb-d99f583b0d83","0199d186-0eff-7474-b70b-510438a34121","","4153","","{""Q0"":1}","","[0]"
"","","","","","survey-likert","83","754084","0.0-83.0","71F47EAEE775441E9220F5F965A24448","0199d198-7d34-7ab9-8ceb-d99f583b0d83","0199d186-0eff-7474-b70b-510438a34121","","3390","","{""Q0"":3}","","[0]"
"","","","","","html-keyboard-response","84","761089","0.0-84.0","71F47EAEE775441E9220F5F965A24448","0199d198-7d34-7ab9-8ceb-d99f583b0d83","0199d186-0eff-7474-b70b-510438a34121","","null","<div style=""display: flex; justify-content: center; align-items: center;"">
                     <img src=""images/other/blank.png"" style=""width: 300px; height: 300px;"" />
                   </div>","null","",""
"","","","","","survey-text","85","852459","0.0-85.0","71F47EAEE775441E9220F5F965A24448","0199d198-7d34-7ab9-8ceb-d99f583b0d83","0199d186-0eff-7474-b70b-510438a34121","","91364","","{""Q0"":""one shows a related event to the sequence that happens almost immedietley while the other shows an event that happens latter and might not be related to the first decribed event""}","",""
"","","","","","html-button-response","86","868832","0.0-86.0","71F47EAEE775441E9220F5F965A24448","0199d198-7d34-7ab9-8ceb-d99f583b0d83","0199d186-0eff-7474-b70b-510438a34121","","16372","Which color deck do the following images continue the story from?","1","",""
"","","","","","html-button-response","87","872881","0.0-87.0","71F47EAEE775441E9220F5F965A24448","0199d198-7d34-7ab9-8ceb-d99f583b0d83","0199d186-0eff-7474-b70b-510438a34121","","4047","Which color deck do the following images NOT follow the story from?","0","",""
"","","","","","html-button-response","88","879875","0.0-88.0","71F47EAEE775441E9220F5F965A24448","0199d198-7d34-7ab9-8ceb-d99f583b0d83","0199d186-0eff-7474-b70b-510438a34121","","6992","Which type of deck did you prefer overall?","1","",""
"","","","","","survey-text","89","888226","0.0-89.0","71F47EAEE775441E9220F5F965A24448","0199d198-7d34-7ab9-8ceb-d99f583b0d83","0199d186-0eff-7474-b70b-510438a34121","","8347","","{""Q0"":""MALE"",""Q1"":""26""}","",""
"","","","","","instructions","90","894525","0.0-90.0","71F47EAEE775441E9220F5F965A24448","0199d198-7d34-7ab9-8ceb-d99f583b0d83","0199d186-0eff-7474-b70b-510438a34121","[{""page_index"":0,""viewing_time"":6298}]","6298","","","",""
