"success","timeout","failed_images","failed_audio","failed_video","trial_type","trial_index","time_elapsed","internal_node_id","subject_id","study_id","session_id","view_history","rt","stimulus","response","choice"
"true","false","[]","[]","[]","preload","0","49830","0.0-0.0","A77C1C3293F0427E82BBCDC6507C9EC3","bc579300-6e92-4a96-ae29-d71036371a53","23db58b9-63b0-4bce-8714-07ce439e665e","","","","",""
"","","","","","instructions","1","5650735","0.0-1.0","A77C1C3293F0427E82BBCDC6507C9EC3","bc579300-6e92-4a96-ae29-d71036371a53","23db58b9-63b0-4bce-8714-07ce439e665e","[{""page_index"":0,""viewing_time"":5439175}]","5439176","","",""
"","","","","","instructions","2","5659230","0.0-2.0","A77C1C3293F0427E82BBCDC6507C9EC3","bc579300-6e92-4a96-ae29-d71036371a53","23db58b9-63b0-4bce-8714-07ce439e665e","[{""page_index"":0,""viewing_time"":8487}]","8493","","",""
"true","","","","","fullscreen","3","5662311","0.0-3.0","A77C1C3293F0427E82BBCDC6507C9EC3","bc579300-6e92-4a96-ae29-d71036371a53","23db58b9-63b0-4bce-8714-07ce439e665e","","2076","","",""
"","","","","","instructions","4","5665992","0.0-4.0","A77C1C3293F0427E82BBCDC6507C9EC3","bc579300-6e92-4a96-ae29-d71036371a53","23db58b9-63b0-4bce-8714-07ce439e665e","[{""page_index"":0,""viewing_time"":3680}]","3680","","",""
"","","","","","html-keyboard-response","5","5668995","0.0-5.0","A77C1C3293F0427E82BBCDC6507C9EC3","bc579300-6e92-4a96-ae29-d71036371a53","23db58b9-63b0-4bce-8714-07ce439e665e","","null","<div style=""display: flex; justify-content: center; align-items: center;"">
                <img src=""images/causal/causal_series_4/causal_series_4_a.jpg"" style=""width: 300px; height: 300px;"" />
              </div>","null",""
"","","","","","html-button-response","6","5671360","0.0-6.0","A77C1C3293F0427E82BBCDC6507C9EC3","bc579300-6e92-4a96-ae29-d71036371a53","23db58b9-63b0-4bce-8714-07ce439e665e","","2360","
    <div style=""display: flex; justify-content: center; align-items: center;"">
      <img src=""images/red_deck_2.png"" style=""width: 300px; height: 300px; margin-right: 10px;"" />
      <img src=""images/blue_deck_1.png"" style=""width: 300px; height: 300px;"" />
    </div>","0","0"
"","","","","","html-keyboard-response","7","5674363","0.0-7.0-0.0-0.0","A77C1C3293F0427E82BBCDC6507C9EC3","bc579300-6e92-4a96-ae29-d71036371a53","23db58b9-63b0-4bce-8714-07ce439e665e","","null","<div style=""display: flex; justify-content: center; align-items: center;"">
                <img src=""images/causal/causal_series_4/causal_series_4_b.jpg"" style=""width: 300px; height: 300px;"" />
              </div>","null",""
"","","","","","html-keyboard-response","8","5677365","0.0-7.0-0.0-1.0","A77C1C3293F0427E82BBCDC6507C9EC3","bc579300-6e92-4a96-ae29-d71036371a53","23db58b9-63b0-4bce-8714-07ce439e665e","","null","<div style=""display: flex; justify-content: center; align-items: center;"">
                <img src=""images/causal/causal_series_4/causal_series_4_c.jpg"" style=""width: 300px; height: 300px;"" />
              </div>","null",""
"","","","","","html-keyboard-response","9","5680368","0.0-7.0-0.0-2.0","A77C1C3293F0427E82BBCDC6507C9EC3","bc579300-6e92-4a96-ae29-d71036371a53","23db58b9-63b0-4bce-8714-07ce439e665e","","null","<div style=""display: flex; justify-content: center; align-items: center;"">
                <img src=""images/causal/causal_series_4/causal_series_4_d.jpg"" style=""width: 300px; height: 300px;"" />
              </div>","null",""
"","","","","","html-keyboard-response","10","5683371","0.0-8.0","A77C1C3293F0427E82BBCDC6507C9EC3","bc579300-6e92-4a96-ae29-d71036371a53","23db58b9-63b0-4bce-8714-07ce439e665e","","null","<div style=""display: flex; justify-content: center; align-items: center;"">
                <img src=""images/other/blank.jpg"" style=""width: 300px; height: 300px;"" />
              </div>","null",""
"","","","","","html-keyboard-response","11","5686372","0.0-9.0","A77C1C3293F0427E82BBCDC6507C9EC3","bc579300-6e92-4a96-ae29-d71036371a53","23db58b9-63b0-4bce-8714-07ce439e665e","","null","<div style=""display: flex; justify-content: center; align-items: center;"">
                <img src=""images/causal/causal_series_8/causal_series_8_a.jpg"" style=""width: 300px; height: 300px;"" />
              </div>","null",""
"","","","","","html-button-response","12","5687978","0.0-10.0","A77C1C3293F0427E82BBCDC6507C9EC3","bc579300-6e92-4a96-ae29-d71036371a53","23db58b9-63b0-4bce-8714-07ce439e665e","","1604","
    <div style=""display: flex; justify-content: center; align-items: center;"">
      <img src=""images/red_deck_2.png"" style=""width: 300px; height: 300px; margin-right: 10px;"" />
      <img src=""images/blue_deck_1.png"" style=""width: 300px; height: 300px;"" />
    </div>","0","0"
"","","","","","html-keyboard-response","13","5690980","0.0-11.0-0.0-0.0","A77C1C3293F0427E82BBCDC6507C9EC3","bc579300-6e92-4a96-ae29-d71036371a53","23db58b9-63b0-4bce-8714-07ce439e665e","","null","<div style=""display: flex; justify-content: center; align-items: center;"">
                <img src=""images/causal/causal_series_8/causal_series_8_b.jpg"" style=""width: 300px; height: 300px;"" />
              </div>","null",""
"","","","","","html-keyboard-response","14","5693982","0.0-11.0-0.0-1.0","A77C1C3293F0427E82BBCDC6507C9EC3","bc579300-6e92-4a96-ae29-d71036371a53","23db58b9-63b0-4bce-8714-07ce439e665e","","null","<div style=""display: flex; justify-content: center; align-items: center;"">
                <img src=""images/causal/causal_series_8/causal_series_8_c.jpg"" style=""width: 300px; height: 300px;"" />
              </div>","null",""
"","","","","","html-keyboard-response","15","5696984","0.0-11.0-0.0-2.0","A77C1C3293F0427E82BBCDC6507C9EC3","bc579300-6e92-4a96-ae29-d71036371a53","23db58b9-63b0-4bce-8714-07ce439e665e","","null","<div style=""display: flex; justify-content: center; align-items: center;"">
                <img src=""images/causal/causal_series_8/causal_series_8_d.jpg"" style=""width: 300px; height: 300px;"" />
              </div>","null",""
"","","","","","html-keyboard-response","16","5699987","0.0-12.0","A77C1C3293F0427E82BBCDC6507C9EC3","bc579300-6e92-4a96-ae29-d71036371a53","23db58b9-63b0-4bce-8714-07ce439e665e","","null","<div style=""display: flex; justify-content: center; align-items: center;"">
                <img src=""images/other/blank.jpg"" style=""width: 300px; height: 300px;"" />
              </div>","null",""
"","","","","","html-keyboard-response","17","5702989","0.0-13.0","A77C1C3293F0427E82BBCDC6507C9EC3","bc579300-6e92-4a96-ae29-d71036371a53","23db58b9-63b0-4bce-8714-07ce439e665e","","null","<div style=""display: flex; justify-content: center; align-items: center;"">
                <img src=""images/causal/causal_series_6/causal_series_6_a.jpg"" style=""width: 300px; height: 300px;"" />
              </div>","null",""
"","","","","","html-button-response","18","5705043","0.0-14.0","A77C1C3293F0427E82BBCDC6507C9EC3","bc579300-6e92-4a96-ae29-d71036371a53","23db58b9-63b0-4bce-8714-07ce439e665e","","2053","
    <div style=""display: flex; justify-content: center; align-items: center;"">
      <img src=""images/red_deck_2.png"" style=""width: 300px; height: 300px; margin-right: 10px;"" />
      <img src=""images/blue_deck_1.png"" style=""width: 300px; height: 300px;"" />
    </div>","1","1"
"","","","","","html-keyboard-response","19","5708045","0.0-15.0-1.0-0.0","A77C1C3293F0427E82BBCDC6507C9EC3","bc579300-6e92-4a96-ae29-d71036371a53","23db58b9-63b0-4bce-8714-07ce439e665e","","null","<div style=""display: flex; justify-content: center; align-items: center;"">
                <img src=""images/semantic/semantic_series_15/semantic_series_15_d.jpg"" style=""width: 300px; height: 300px;"" />
              </div>","null",""
"","","","","","html-keyboard-response","20","5711047","0.0-15.0-1.0-1.0","A77C1C3293F0427E82BBCDC6507C9EC3","bc579300-6e92-4a96-ae29-d71036371a53","23db58b9-63b0-4bce-8714-07ce439e665e","","null","<div style=""display: flex; justify-content: center; align-items: center;"">
                <img src=""images/semantic/semantic_series_16/semantic_series_16_d.jpg"" style=""width: 300px; height: 300px;"" />
              </div>","null",""
"","","","","","html-keyboard-response","21","5714049","0.0-15.0-1.0-2.0","A77C1C3293F0427E82BBCDC6507C9EC3","bc579300-6e92-4a96-ae29-d71036371a53","23db58b9-63b0-4bce-8714-07ce439e665e","","null","<div style=""display: flex; justify-content: center; align-items: center;"">
                <img src=""images/semantic/semantic_series_17/semantic_series_17_d.jpg"" style=""width: 300px; height: 300px;"" />
              </div>","null",""
"","","","","","html-keyboard-response","22","5717052","0.0-16.0","A77C1C3293F0427E82BBCDC6507C9EC3","bc579300-6e92-4a96-ae29-d71036371a53","23db58b9-63b0-4bce-8714-07ce439e665e","","null","<div style=""display: flex; justify-content: center; align-items: center;"">
                <img src=""images/other/blank.jpg"" style=""width: 300px; height: 300px;"" />
              </div>","null",""
"","","","","","html-keyboard-response","23","5720054","0.0-17.0","A77C1C3293F0427E82BBCDC6507C9EC3","bc579300-6e92-4a96-ae29-d71036371a53","23db58b9-63b0-4bce-8714-07ce439e665e","","null","<div style=""display: flex; justify-content: center; align-items: center;"">
                <img src=""images/causal/causal_series_12/causal_series_12_a.jpg"" style=""width: 300px; height: 300px;"" />
              </div>","null",""
"","","","","","html-button-response","24","5722475","0.0-18.0","A77C1C3293F0427E82BBCDC6507C9EC3","bc579300-6e92-4a96-ae29-d71036371a53","23db58b9-63b0-4bce-8714-07ce439e665e","","2417","
    <div style=""display: flex; justify-content: center; align-items: center;"">
      <img src=""images/red_deck_2.png"" style=""width: 300px; height: 300px; margin-right: 10px;"" />
      <img src=""images/blue_deck_1.png"" style=""width: 300px; height: 300px;"" />
    </div>","0","0"
"","","","","","html-keyboard-response","25","5725477","0.0-19.0-0.0-0.0","A77C1C3293F0427E82BBCDC6507C9EC3","bc579300-6e92-4a96-ae29-d71036371a53","23db58b9-63b0-4bce-8714-07ce439e665e","","null","<div style=""display: flex; justify-content: center; align-items: center;"">
                <img src=""images/causal/causal_series_12/causal_series_12_b.jpg"" style=""width: 300px; height: 300px;"" />
              </div>","null",""
"","","","","","html-keyboard-response","26","5728480","0.0-19.0-0.0-1.0","A77C1C3293F0427E82BBCDC6507C9EC3","bc579300-6e92-4a96-ae29-d71036371a53","23db58b9-63b0-4bce-8714-07ce439e665e","","null","<div style=""display: flex; justify-content: center; align-items: center;"">
                <img src=""images/causal/causal_series_12/causal_series_12_c.jpg"" style=""width: 300px; height: 300px;"" />
              </div>","null",""
"","","","","","html-keyboard-response","27","5731483","0.0-19.0-0.0-2.0","A77C1C3293F0427E82BBCDC6507C9EC3","bc579300-6e92-4a96-ae29-d71036371a53","23db58b9-63b0-4bce-8714-07ce439e665e","","null","<div style=""display: flex; justify-content: center; align-items: center;"">
                <img src=""images/causal/causal_series_12/causal_series_12_d.jpg"" style=""width: 300px; height: 300px;"" />
              </div>","null",""
"","","","","","html-keyboard-response","28","5734486","0.0-20.0","A77C1C3293F0427E82BBCDC6507C9EC3","bc579300-6e92-4a96-ae29-d71036371a53","23db58b9-63b0-4bce-8714-07ce439e665e","","null","<div style=""display: flex; justify-content: center; align-items: center;"">
                <img src=""images/other/blank.jpg"" style=""width: 300px; height: 300px;"" />
              </div>","null",""
"","","","","","html-keyboard-response","29","5737489","0.0-21.0","A77C1C3293F0427E82BBCDC6507C9EC3","bc579300-6e92-4a96-ae29-d71036371a53","23db58b9-63b0-4bce-8714-07ce439e665e","","null","<div style=""display: flex; justify-content: center; align-items: center;"">
                <img src=""images/causal/causal_series_5/causal_series_5_a.jpg"" style=""width: 300px; height: 300px;"" />
              </div>","null",""
"","","","","","html-button-response","30","5738726","0.0-22.0","A77C1C3293F0427E82BBCDC6507C9EC3","bc579300-6e92-4a96-ae29-d71036371a53","23db58b9-63b0-4bce-8714-07ce439e665e","","1235","
    <div style=""display: flex; justify-content: center; align-items: center;"">
      <img src=""images/red_deck_2.png"" style=""width: 300px; height: 300px; margin-right: 10px;"" />
      <img src=""images/blue_deck_1.png"" style=""width: 300px; height: 300px;"" />
    </div>","1","1"
"","","","","","html-keyboard-response","31","5741728","0.0-23.0-1.0-0.0","A77C1C3293F0427E82BBCDC6507C9EC3","bc579300-6e92-4a96-ae29-d71036371a53","23db58b9-63b0-4bce-8714-07ce439e665e","","null","<div style=""display: flex; justify-content: center; align-items: center;"">
                <img src=""images/semantic/semantic_series_12/semantic_series_12_d.jpg"" style=""width: 300px; height: 300px;"" />
              </div>","null",""
"","","","","","html-keyboard-response","32","5744730","0.0-23.0-1.0-1.0","A77C1C3293F0427E82BBCDC6507C9EC3","bc579300-6e92-4a96-ae29-d71036371a53","23db58b9-63b0-4bce-8714-07ce439e665e","","null","<div style=""display: flex; justify-content: center; align-items: center;"">
                <img src=""images/semantic/semantic_series_13/semantic_series_13_d.jpg"" style=""width: 300px; height: 300px;"" />
              </div>","null",""
"","","","","","html-keyboard-response","33","5747733","0.0-23.0-1.0-2.0","A77C1C3293F0427E82BBCDC6507C9EC3","bc579300-6e92-4a96-ae29-d71036371a53","23db58b9-63b0-4bce-8714-07ce439e665e","","null","<div style=""display: flex; justify-content: center; align-items: center;"">
                <img src=""images/semantic/semantic_series_14/semantic_series_14_d.jpg"" style=""width: 300px; height: 300px;"" />
              </div>","null",""
"","","","","","html-keyboard-response","34","5750736","0.0-24.0","A77C1C3293F0427E82BBCDC6507C9EC3","bc579300-6e92-4a96-ae29-d71036371a53","23db58b9-63b0-4bce-8714-07ce439e665e","","null","<div style=""display: flex; justify-content: center; align-items: center;"">
                <img src=""images/other/blank.jpg"" style=""width: 300px; height: 300px;"" />
              </div>","null",""
"","","","","","html-keyboard-response","35","5753739","0.0-25.0","A77C1C3293F0427E82BBCDC6507C9EC3","bc579300-6e92-4a96-ae29-d71036371a53","23db58b9-63b0-4bce-8714-07ce439e665e","","null","<div style=""display: flex; justify-content: center; align-items: center;"">
                <img src=""images/causal/causal_series_14/causal_series_14_a.jpg"" style=""width: 300px; height: 300px;"" />
              </div>","null",""
"","","","","","html-button-response","36","5754926","0.0-26.0","A77C1C3293F0427E82BBCDC6507C9EC3","bc579300-6e92-4a96-ae29-d71036371a53","23db58b9-63b0-4bce-8714-07ce439e665e","","1186","
    <div style=""display: flex; justify-content: center; align-items: center;"">
      <img src=""images/red_deck_2.png"" style=""width: 300px; height: 300px; margin-right: 10px;"" />
      <img src=""images/blue_deck_1.png"" style=""width: 300px; height: 300px;"" />
    </div>","1","1"
"","","","","","html-keyboard-response","37","5757928","0.0-27.0-1.0-0.0","A77C1C3293F0427E82BBCDC6507C9EC3","bc579300-6e92-4a96-ae29-d71036371a53","23db58b9-63b0-4bce-8714-07ce439e665e","","null","<div style=""display: flex; justify-content: center; align-items: center;"">
                <img src=""images/semantic/semantic_series_3/semantic_series_3_d.jpg"" style=""width: 300px; height: 300px;"" />
              </div>","null",""
"","","","","","html-keyboard-response","38","5760931","0.0-27.0-1.0-1.0","A77C1C3293F0427E82BBCDC6507C9EC3","bc579300-6e92-4a96-ae29-d71036371a53","23db58b9-63b0-4bce-8714-07ce439e665e","","null","<div style=""display: flex; justify-content: center; align-items: center;"">
                <img src=""images/semantic/semantic_series_4/semantic_series_4_d.jpg"" style=""width: 300px; height: 300px;"" />
              </div>","null",""
"","","","","","html-keyboard-response","39","5763933","0.0-27.0-1.0-2.0","A77C1C3293F0427E82BBCDC6507C9EC3","bc579300-6e92-4a96-ae29-d71036371a53","23db58b9-63b0-4bce-8714-07ce439e665e","","null","<div style=""display: flex; justify-content: center; align-items: center;"">
                <img src=""images/semantic/semantic_series_5/semantic_series_5_d.jpg"" style=""width: 300px; height: 300px;"" />
              </div>","null",""
"","","","","","html-keyboard-response","40","5766936","0.0-28.0","A77C1C3293F0427E82BBCDC6507C9EC3","bc579300-6e92-4a96-ae29-d71036371a53","23db58b9-63b0-4bce-8714-07ce439e665e","","null","<div style=""display: flex; justify-content: center; align-items: center;"">
                <img src=""images/other/blank.jpg"" style=""width: 300px; height: 300px;"" />
              </div>","null",""
"","","","","","html-keyboard-response","41","5769939","0.0-29.0","A77C1C3293F0427E82BBCDC6507C9EC3","bc579300-6e92-4a96-ae29-d71036371a53","23db58b9-63b0-4bce-8714-07ce439e665e","","null","<div style=""display: flex; justify-content: center; align-items: center;"">
                <img src=""images/causal/causal_series_18/causal_series_18_a.jpg"" style=""width: 300px; height: 300px;"" />
              </div>","null",""
"","","","","","html-button-response","42","5771176","0.0-30.0","A77C1C3293F0427E82BBCDC6507C9EC3","bc579300-6e92-4a96-ae29-d71036371a53","23db58b9-63b0-4bce-8714-07ce439e665e","","1236","
    <div style=""display: flex; justify-content: center; align-items: center;"">
      <img src=""images/red_deck_2.png"" style=""width: 300px; height: 300px; margin-right: 10px;"" />
      <img src=""images/blue_deck_1.png"" style=""width: 300px; height: 300px;"" />
    </div>","1","1"
"","","","","","html-keyboard-response","43","5774178","0.0-31.0-1.0-0.0","A77C1C3293F0427E82BBCDC6507C9EC3","bc579300-6e92-4a96-ae29-d71036371a53","23db58b9-63b0-4bce-8714-07ce439e665e","","null","<div style=""display: flex; justify-content: center; align-items: center;"">
                <img src=""images/semantic/semantic_series_15/semantic_series_15_d.jpg"" style=""width: 300px; height: 300px;"" />
              </div>","null",""
"","","","","","html-keyboard-response","44","5777181","0.0-31.0-1.0-1.0","A77C1C3293F0427E82BBCDC6507C9EC3","bc579300-6e92-4a96-ae29-d71036371a53","23db58b9-63b0-4bce-8714-07ce439e665e","","null","<div style=""display: flex; justify-content: center; align-items: center;"">
                <img src=""images/semantic/semantic_series_16/semantic_series_16_d.jpg"" style=""width: 300px; height: 300px;"" />
              </div>","null",""
"","","","","","html-keyboard-response","45","5780184","0.0-31.0-1.0-2.0","A77C1C3293F0427E82BBCDC6507C9EC3","bc579300-6e92-4a96-ae29-d71036371a53","23db58b9-63b0-4bce-8714-07ce439e665e","","null","<div style=""display: flex; justify-content: center; align-items: center;"">
                <img src=""images/semantic/semantic_series_17/semantic_series_17_d.jpg"" style=""width: 300px; height: 300px;"" />
              </div>","null",""
"","","","","","html-keyboard-response","46","5783186","0.0-32.0","A77C1C3293F0427E82BBCDC6507C9EC3","bc579300-6e92-4a96-ae29-d71036371a53","23db58b9-63b0-4bce-8714-07ce439e665e","","null","<div style=""display: flex; justify-content: center; align-items: center;"">
                <img src=""images/other/blank.jpg"" style=""width: 300px; height: 300px;"" />
              </div>","null",""
"","","","","","html-keyboard-response","47","5786189","0.0-33.0","A77C1C3293F0427E82BBCDC6507C9EC3","bc579300-6e92-4a96-ae29-d71036371a53","23db58b9-63b0-4bce-8714-07ce439e665e","","null","<div style=""display: flex; justify-content: center; align-items: center;"">
                <img src=""images/causal/causal_series_3/causal_series_3_a.jpg"" style=""width: 300px; height: 300px;"" />
              </div>","null",""
"","","","","","html-button-response","48","5787610","0.0-34.0","A77C1C3293F0427E82BBCDC6507C9EC3","bc579300-6e92-4a96-ae29-d71036371a53","23db58b9-63b0-4bce-8714-07ce439e665e","","1421","
    <div style=""display: flex; justify-content: center; align-items: center;"">
      <img src=""images/red_deck_2.png"" style=""width: 300px; height: 300px; margin-right: 10px;"" />
      <img src=""images/blue_deck_1.png"" style=""width: 300px; height: 300px;"" />
    </div>","1","1"
"","","","","","html-keyboard-response","49","5790612","0.0-35.0-1.0-0.0","A77C1C3293F0427E82BBCDC6507C9EC3","bc579300-6e92-4a96-ae29-d71036371a53","23db58b9-63b0-4bce-8714-07ce439e665e","","null","<div style=""display: flex; justify-content: center; align-items: center;"">
                <img src=""images/semantic/semantic_series_6/semantic_series_6_d.jpg"" style=""width: 300px; height: 300px;"" />
              </div>","null",""
"","","","","","html-keyboard-response","50","5793615","0.0-35.0-1.0-1.0","A77C1C3293F0427E82BBCDC6507C9EC3","bc579300-6e92-4a96-ae29-d71036371a53","23db58b9-63b0-4bce-8714-07ce439e665e","","null","<div style=""display: flex; justify-content: center; align-items: center;"">
                <img src=""images/semantic/semantic_series_7/semantic_series_7_d.jpg"" style=""width: 300px; height: 300px;"" />
              </div>","null",""
"","","","","","html-keyboard-response","51","5796617","0.0-35.0-1.0-2.0","A77C1C3293F0427E82BBCDC6507C9EC3","bc579300-6e92-4a96-ae29-d71036371a53","23db58b9-63b0-4bce-8714-07ce439e665e","","null","<div style=""display: flex; justify-content: center; align-items: center;"">
                <img src=""images/semantic/semantic_series_8/semantic_series_8_d.jpg"" style=""width: 300px; height: 300px;"" />
              </div>","null",""
"","","","","","html-keyboard-response","52","5799620","0.0-36.0","A77C1C3293F0427E82BBCDC6507C9EC3","bc579300-6e92-4a96-ae29-d71036371a53","23db58b9-63b0-4bce-8714-07ce439e665e","","null","<div style=""display: flex; justify-content: center; align-items: center;"">
                <img src=""images/other/blank.jpg"" style=""width: 300px; height: 300px;"" />
              </div>","null",""
"","","","","","html-keyboard-response","53","5802622","0.0-37.0","A77C1C3293F0427E82BBCDC6507C9EC3","bc579300-6e92-4a96-ae29-d71036371a53","23db58b9-63b0-4bce-8714-07ce439e665e","","null","<div style=""display: flex; justify-content: center; align-items: center;"">
                <img src=""images/causal/causal_series_13/causal_series_13_a.jpg"" style=""width: 300px; height: 300px;"" />
              </div>","null",""
"","","","","","html-button-response","54","5807745","0.0-38.0","A77C1C3293F0427E82BBCDC6507C9EC3","bc579300-6e92-4a96-ae29-d71036371a53","23db58b9-63b0-4bce-8714-07ce439e665e","","5121","
    <div style=""display: flex; justify-content: center; align-items: center;"">
      <img src=""images/red_deck_2.png"" style=""width: 300px; height: 300px; margin-right: 10px;"" />
      <img src=""images/blue_deck_1.png"" style=""width: 300px; height: 300px;"" />
    </div>","0","0"
"","","","","","html-keyboard-response","55","5810746","0.0-39.0-0.0-0.0","A77C1C3293F0427E82BBCDC6507C9EC3","bc579300-6e92-4a96-ae29-d71036371a53","23db58b9-63b0-4bce-8714-07ce439e665e","","null","<div style=""display: flex; justify-content: center; align-items: center;"">
                <img src=""images/causal/causal_series_13/causal_series_13_b.jpg"" style=""width: 300px; height: 300px;"" />
              </div>","null",""
"","","","","","html-keyboard-response","56","5813748","0.0-39.0-0.0-1.0","A77C1C3293F0427E82BBCDC6507C9EC3","bc579300-6e92-4a96-ae29-d71036371a53","23db58b9-63b0-4bce-8714-07ce439e665e","","null","<div style=""display: flex; justify-content: center; align-items: center;"">
                <img src=""images/causal/causal_series_13/causal_series_13_c.jpg"" style=""width: 300px; height: 300px;"" />
              </div>","null",""
"","","","","","html-keyboard-response","57","5816750","0.0-39.0-0.0-2.0","A77C1C3293F0427E82BBCDC6507C9EC3","bc579300-6e92-4a96-ae29-d71036371a53","23db58b9-63b0-4bce-8714-07ce439e665e","","null","<div style=""display: flex; justify-content: center; align-items: center;"">
                <img src=""images/causal/causal_series_13/causal_series_13_d.jpg"" style=""width: 300px; height: 300px;"" />
              </div>","null",""
"","","","","","html-keyboard-response","58","5819752","0.0-40.0","A77C1C3293F0427E82BBCDC6507C9EC3","bc579300-6e92-4a96-ae29-d71036371a53","23db58b9-63b0-4bce-8714-07ce439e665e","","null","<div style=""display: flex; justify-content: center; align-items: center;"">
                <img src=""images/other/blank.jpg"" style=""width: 300px; height: 300px;"" />
              </div>","null",""
"","","","","","html-keyboard-response","59","5822755","0.0-41.0","A77C1C3293F0427E82BBCDC6507C9EC3","bc579300-6e92-4a96-ae29-d71036371a53","23db58b9-63b0-4bce-8714-07ce439e665e","","null","<div style=""display: flex; justify-content: center; align-items: center;"">
                <img src=""images/causal/causal_series_10/causal_series_10_a.jpg"" style=""width: 300px; height: 300px;"" />
              </div>","null",""
"","","","","","html-button-response","60","5827495","0.0-42.0","A77C1C3293F0427E82BBCDC6507C9EC3","bc579300-6e92-4a96-ae29-d71036371a53","23db58b9-63b0-4bce-8714-07ce439e665e","","4739","
    <div style=""display: flex; justify-content: center; align-items: center;"">
      <img src=""images/red_deck_2.png"" style=""width: 300px; height: 300px; margin-right: 10px;"" />
      <img src=""images/blue_deck_1.png"" style=""width: 300px; height: 300px;"" />
    </div>","0","0"
"","","","","","html-keyboard-response","61","5830497","0.0-43.0-0.0-0.0","A77C1C3293F0427E82BBCDC6507C9EC3","bc579300-6e92-4a96-ae29-d71036371a53","23db58b9-63b0-4bce-8714-07ce439e665e","","null","<div style=""display: flex; justify-content: center; align-items: center;"">
                <img src=""images/causal/causal_series_10/causal_series_10_b.jpg"" style=""width: 300px; height: 300px;"" />
              </div>","null",""
"","","","","","html-keyboard-response","62","5833500","0.0-43.0-0.0-1.0","A77C1C3293F0427E82BBCDC6507C9EC3","bc579300-6e92-4a96-ae29-d71036371a53","23db58b9-63b0-4bce-8714-07ce439e665e","","null","<div style=""display: flex; justify-content: center; align-items: center;"">
                <img src=""images/causal/causal_series_10/causal_series_10_c.jpg"" style=""width: 300px; height: 300px;"" />
              </div>","null",""
"","","","","","html-keyboard-response","63","5836502","0.0-43.0-0.0-2.0","A77C1C3293F0427E82BBCDC6507C9EC3","bc579300-6e92-4a96-ae29-d71036371a53","23db58b9-63b0-4bce-8714-07ce439e665e","","null","<div style=""display: flex; justify-content: center; align-items: center;"">
                <img src=""images/causal/causal_series_10/causal_series_10_d.jpg"" style=""width: 300px; height: 300px;"" />
              </div>","null",""
"","","","","","html-keyboard-response","64","5839504","0.0-44.0","A77C1C3293F0427E82BBCDC6507C9EC3","bc579300-6e92-4a96-ae29-d71036371a53","23db58b9-63b0-4bce-8714-07ce439e665e","","null","<div style=""display: flex; justify-content: center; align-items: center;"">
                <img src=""images/other/blank.jpg"" style=""width: 300px; height: 300px;"" />
              </div>","null",""
"","","","","","html-keyboard-response","65","5842506","0.0-45.0","A77C1C3293F0427E82BBCDC6507C9EC3","bc579300-6e92-4a96-ae29-d71036371a53","23db58b9-63b0-4bce-8714-07ce439e665e","","null","<div style=""display: flex; justify-content: center; align-items: center;"">
                <img src=""images/causal/causal_series_9/causal_series_9_a.jpg"" style=""width: 300px; height: 300px;"" />
              </div>","null",""
"","","","","","html-button-response","66","5849044","0.0-46.0","A77C1C3293F0427E82BBCDC6507C9EC3","bc579300-6e92-4a96-ae29-d71036371a53","23db58b9-63b0-4bce-8714-07ce439e665e","","6535","
    <div style=""display: flex; justify-content: center; align-items: center;"">
      <img src=""images/red_deck_2.png"" style=""width: 300px; height: 300px; margin-right: 10px;"" />
      <img src=""images/blue_deck_1.png"" style=""width: 300px; height: 300px;"" />
    </div>","0","0"
"","","","","","html-keyboard-response","67","5852046","0.0-47.0-0.0-0.0","A77C1C3293F0427E82BBCDC6507C9EC3","bc579300-6e92-4a96-ae29-d71036371a53","23db58b9-63b0-4bce-8714-07ce439e665e","","null","<div style=""display: flex; justify-content: center; align-items: center;"">
                <img src=""images/causal/causal_series_9/causal_series_9_b.jpg"" style=""width: 300px; height: 300px;"" />
              </div>","null",""
"","","","","","html-keyboard-response","68","5855049","0.0-47.0-0.0-1.0","A77C1C3293F0427E82BBCDC6507C9EC3","bc579300-6e92-4a96-ae29-d71036371a53","23db58b9-63b0-4bce-8714-07ce439e665e","","null","<div style=""display: flex; justify-content: center; align-items: center;"">
                <img src=""images/causal/causal_series_9/causal_series_9_c.jpg"" style=""width: 300px; height: 300px;"" />
              </div>","null",""
"","","","","","html-keyboard-response","69","5858052","0.0-47.0-0.0-2.0","A77C1C3293F0427E82BBCDC6507C9EC3","bc579300-6e92-4a96-ae29-d71036371a53","23db58b9-63b0-4bce-8714-07ce439e665e","","null","<div style=""display: flex; justify-content: center; align-items: center;"">
                <img src=""images/causal/causal_series_9/causal_series_9_d.jpg"" style=""width: 300px; height: 300px;"" />
              </div>","null",""
"","","","","","html-keyboard-response","70","5861054","0.0-48.0","A77C1C3293F0427E82BBCDC6507C9EC3","bc579300-6e92-4a96-ae29-d71036371a53","23db58b9-63b0-4bce-8714-07ce439e665e","","null","<div style=""display: flex; justify-content: center; align-items: center;"">
                <img src=""images/other/blank.jpg"" style=""width: 300px; height: 300px;"" />
              </div>","null",""
"","","","","","html-keyboard-response","71","5864056","0.0-49.0","A77C1C3293F0427E82BBCDC6507C9EC3","bc579300-6e92-4a96-ae29-d71036371a53","23db58b9-63b0-4bce-8714-07ce439e665e","","null","<div style=""display: flex; justify-content: center; align-items: center;"">
                <img src=""images/causal/causal_series_17/causal_series_17_a.jpg"" style=""width: 300px; height: 300px;"" />
              </div>","null",""
"","","","","","html-button-response","72","5869578","0.0-50.0","A77C1C3293F0427E82BBCDC6507C9EC3","bc579300-6e92-4a96-ae29-d71036371a53","23db58b9-63b0-4bce-8714-07ce439e665e","","5520","
    <div style=""display: flex; justify-content: center; align-items: center;"">
      <img src=""images/red_deck_2.png"" style=""width: 300px; height: 300px; margin-right: 10px;"" />
      <img src=""images/blue_deck_1.png"" style=""width: 300px; height: 300px;"" />
    </div>","0","0"
"","","","","","html-keyboard-response","73","5872580","0.0-51.0-0.0-0.0","A77C1C3293F0427E82BBCDC6507C9EC3","bc579300-6e92-4a96-ae29-d71036371a53","23db58b9-63b0-4bce-8714-07ce439e665e","","null","<div style=""display: flex; justify-content: center; align-items: center;"">
                <img src=""images/causal/causal_series_17/causal_series_17_b.jpg"" style=""width: 300px; height: 300px;"" />
              </div>","null",""
"","","","","","html-keyboard-response","74","5875583","0.0-51.0-0.0-1.0","A77C1C3293F0427E82BBCDC6507C9EC3","bc579300-6e92-4a96-ae29-d71036371a53","23db58b9-63b0-4bce-8714-07ce439e665e","","null","<div style=""display: flex; justify-content: center; align-items: center;"">
                <img src=""images/causal/causal_series_17/causal_series_17_c.jpg"" style=""width: 300px; height: 300px;"" />
              </div>","null",""
"","","","","","html-keyboard-response","75","5878586","0.0-51.0-0.0-2.0","A77C1C3293F0427E82BBCDC6507C9EC3","bc579300-6e92-4a96-ae29-d71036371a53","23db58b9-63b0-4bce-8714-07ce439e665e","","null","<div style=""display: flex; justify-content: center; align-items: center;"">
                <img src=""images/causal/causal_series_17/causal_series_17_d.jpg"" style=""width: 300px; height: 300px;"" />
              </div>","null",""
"","","","","","html-keyboard-response","76","5881589","0.0-52.0","A77C1C3293F0427E82BBCDC6507C9EC3","bc579300-6e92-4a96-ae29-d71036371a53","23db58b9-63b0-4bce-8714-07ce439e665e","","null","<div style=""display: flex; justify-content: center; align-items: center;"">
                <img src=""images/other/blank.jpg"" style=""width: 300px; height: 300px;"" />
              </div>","null",""
"","","","","","html-keyboard-response","77","5884591","0.0-53.0","A77C1C3293F0427E82BBCDC6507C9EC3","bc579300-6e92-4a96-ae29-d71036371a53","23db58b9-63b0-4bce-8714-07ce439e665e","","null","<div style=""display: flex; justify-content: center; align-items: center;"">
                <img src=""images/causal/causal_series_15/causal_series_15_a.jpg"" style=""width: 300px; height: 300px;"" />
              </div>","null",""
"","","","","","html-button-response","78","5887594","0.0-54.0","A77C1C3293F0427E82BBCDC6507C9EC3","bc579300-6e92-4a96-ae29-d71036371a53","23db58b9-63b0-4bce-8714-07ce439e665e","","3002","
    <div style=""display: flex; justify-content: center; align-items: center;"">
      <img src=""images/red_deck_2.png"" style=""width: 300px; height: 300px; margin-right: 10px;"" />
      <img src=""images/blue_deck_1.png"" style=""width: 300px; height: 300px;"" />
    </div>","1","1"
"","","","","","html-keyboard-response","79","5890596","0.0-55.0-1.0-0.0","A77C1C3293F0427E82BBCDC6507C9EC3","bc579300-6e92-4a96-ae29-d71036371a53","23db58b9-63b0-4bce-8714-07ce439e665e","","null","<div style=""display: flex; justify-content: center; align-items: center;"">
                <img src=""images/semantic/semantic_series_6/semantic_series_6_d.jpg"" style=""width: 300px; height: 300px;"" />
              </div>","null",""
"","","","","","html-keyboard-response","80","5893599","0.0-55.0-1.0-1.0","A77C1C3293F0427E82BBCDC6507C9EC3","bc579300-6e92-4a96-ae29-d71036371a53","23db58b9-63b0-4bce-8714-07ce439e665e","","null","<div style=""display: flex; justify-content: center; align-items: center;"">
                <img src=""images/semantic/semantic_series_7/semantic_series_7_d.jpg"" style=""width: 300px; height: 300px;"" />
              </div>","null",""
"","","","","","html-keyboard-response","81","5896601","0.0-55.0-1.0-2.0","A77C1C3293F0427E82BBCDC6507C9EC3","bc579300-6e92-4a96-ae29-d71036371a53","23db58b9-63b0-4bce-8714-07ce439e665e","","null","<div style=""display: flex; justify-content: center; align-items: center;"">
                <img src=""images/semantic/semantic_series_8/semantic_series_8_d.jpg"" style=""width: 300px; height: 300px;"" />
              </div>","null",""
"","","","","","html-keyboard-response","82","5899604","0.0-56.0","A77C1C3293F0427E82BBCDC6507C9EC3","bc579300-6e92-4a96-ae29-d71036371a53","23db58b9-63b0-4bce-8714-07ce439e665e","","null","<div style=""display: flex; justify-content: center; align-items: center;"">
                <img src=""images/other/blank.jpg"" style=""width: 300px; height: 300px;"" />
              </div>","null",""
"","","","","","html-keyboard-response","83","5902606","0.0-57.0","A77C1C3293F0427E82BBCDC6507C9EC3","bc579300-6e92-4a96-ae29-d71036371a53","23db58b9-63b0-4bce-8714-07ce439e665e","","null","<div style=""display: flex; justify-content: center; align-items: center;"">
                <img src=""images/causal/causal_series_11/causal_series_11_a.jpg"" style=""width: 300px; height: 300px;"" />
              </div>","null",""
"","","","","","html-button-response","84","5912928","0.0-58.0","A77C1C3293F0427E82BBCDC6507C9EC3","bc579300-6e92-4a96-ae29-d71036371a53","23db58b9-63b0-4bce-8714-07ce439e665e","","10320","
    <div style=""display: flex; justify-content: center; align-items: center;"">
      <img src=""images/red_deck_2.png"" style=""width: 300px; height: 300px; margin-right: 10px;"" />
      <img src=""images/blue_deck_1.png"" style=""width: 300px; height: 300px;"" />
    </div>","1","1"
"","","","","","html-keyboard-response","85","5915930","0.0-59.0-1.0-0.0","A77C1C3293F0427E82BBCDC6507C9EC3","bc579300-6e92-4a96-ae29-d71036371a53","23db58b9-63b0-4bce-8714-07ce439e665e","","null","<div style=""display: flex; justify-content: center; align-items: center;"">
                <img src=""images/semantic/semantic_series_12/semantic_series_12_d.jpg"" style=""width: 300px; height: 300px;"" />
              </div>","null",""
"","","","","","html-keyboard-response","86","5918932","0.0-59.0-1.0-1.0","A77C1C3293F0427E82BBCDC6507C9EC3","bc579300-6e92-4a96-ae29-d71036371a53","23db58b9-63b0-4bce-8714-07ce439e665e","","null","<div style=""display: flex; justify-content: center; align-items: center;"">
                <img src=""images/semantic/semantic_series_13/semantic_series_13_d.jpg"" style=""width: 300px; height: 300px;"" />
              </div>","null",""
"","","","","","html-keyboard-response","87","5921934","0.0-59.0-1.0-2.0","A77C1C3293F0427E82BBCDC6507C9EC3","bc579300-6e92-4a96-ae29-d71036371a53","23db58b9-63b0-4bce-8714-07ce439e665e","","null","<div style=""display: flex; justify-content: center; align-items: center;"">
                <img src=""images/semantic/semantic_series_14/semantic_series_14_d.jpg"" style=""width: 300px; height: 300px;"" />
              </div>","null",""
"","","","","","html-keyboard-response","88","5924936","0.0-60.0","A77C1C3293F0427E82BBCDC6507C9EC3","bc579300-6e92-4a96-ae29-d71036371a53","23db58b9-63b0-4bce-8714-07ce439e665e","","null","<div style=""display: flex; justify-content: center; align-items: center;"">
                <img src=""images/other/blank.jpg"" style=""width: 300px; height: 300px;"" />
              </div>","null",""
"","","","","","html-keyboard-response","89","5927939","0.0-61.0","A77C1C3293F0427E82BBCDC6507C9EC3","bc579300-6e92-4a96-ae29-d71036371a53","23db58b9-63b0-4bce-8714-07ce439e665e","","null","<div style=""display: flex; justify-content: center; align-items: center;"">
                <img src=""images/causal/causal_series_2/causal_series_2_a.jpg"" style=""width: 300px; height: 300px;"" />
              </div>","null",""
"","","","","","html-button-response","90","5939695","0.0-62.0","A77C1C3293F0427E82BBCDC6507C9EC3","bc579300-6e92-4a96-ae29-d71036371a53","23db58b9-63b0-4bce-8714-07ce439e665e","","11755","
    <div style=""display: flex; justify-content: center; align-items: center;"">
      <img src=""images/red_deck_2.png"" style=""width: 300px; height: 300px; margin-right: 10px;"" />
      <img src=""images/blue_deck_1.png"" style=""width: 300px; height: 300px;"" />
    </div>","1","1"
"","","","","","html-keyboard-response","91","5942697","0.0-63.0-1.0-0.0","A77C1C3293F0427E82BBCDC6507C9EC3","bc579300-6e92-4a96-ae29-d71036371a53","23db58b9-63b0-4bce-8714-07ce439e665e","","null","<div style=""display: flex; justify-content: center; align-items: center;"">
                <img src=""images/semantic/semantic_series_3/semantic_series_3_d.jpg"" style=""width: 300px; height: 300px;"" />
              </div>","null",""
"","","","","","html-keyboard-response","92","5945700","0.0-63.0-1.0-1.0","A77C1C3293F0427E82BBCDC6507C9EC3","bc579300-6e92-4a96-ae29-d71036371a53","23db58b9-63b0-4bce-8714-07ce439e665e","","null","<div style=""display: flex; justify-content: center; align-items: center;"">
                <img src=""images/semantic/semantic_series_4/semantic_series_4_d.jpg"" style=""width: 300px; height: 300px;"" />
              </div>","null",""
"","","","","","html-keyboard-response","93","5948702","0.0-63.0-1.0-2.0","A77C1C3293F0427E82BBCDC6507C9EC3","bc579300-6e92-4a96-ae29-d71036371a53","23db58b9-63b0-4bce-8714-07ce439e665e","","null","<div style=""display: flex; justify-content: center; align-items: center;"">
                <img src=""images/semantic/semantic_series_5/semantic_series_5_d.jpg"" style=""width: 300px; height: 300px;"" />
              </div>","null",""
"","","","","","html-keyboard-response","94","5951705","0.0-64.0","A77C1C3293F0427E82BBCDC6507C9EC3","bc579300-6e92-4a96-ae29-d71036371a53","23db58b9-63b0-4bce-8714-07ce439e665e","","null","<div style=""display: flex; justify-content: center; align-items: center;"">
                <img src=""images/other/blank.jpg"" style=""width: 300px; height: 300px;"" />
              </div>","null",""
"","","","","","html-keyboard-response","95","5954707","0.0-65.0","A77C1C3293F0427E82BBCDC6507C9EC3","bc579300-6e92-4a96-ae29-d71036371a53","23db58b9-63b0-4bce-8714-07ce439e665e","","null","<div style=""display: flex; justify-content: center; align-items: center;"">
                <img src=""images/causal/causal_series_16/causal_series_16_a.jpg"" style=""width: 300px; height: 300px;"" />
              </div>","null",""
"","","","","","html-button-response","96","5957847","0.0-66.0","A77C1C3293F0427E82BBCDC6507C9EC3","bc579300-6e92-4a96-ae29-d71036371a53","23db58b9-63b0-4bce-8714-07ce439e665e","","3138","
    <div style=""display: flex; justify-content: center; align-items: center;"">
      <img src=""images/red_deck_2.png"" style=""width: 300px; height: 300px; margin-right: 10px;"" />
      <img src=""images/blue_deck_1.png"" style=""width: 300px; height: 300px;"" />
    </div>","1","1"
"","","","","","html-keyboard-response","97","5960848","0.0-67.0-1.0-0.0","A77C1C3293F0427E82BBCDC6507C9EC3","bc579300-6e92-4a96-ae29-d71036371a53","23db58b9-63b0-4bce-8714-07ce439e665e","","null","<div style=""display: flex; justify-content: center; align-items: center;"">
                <img src=""images/semantic/semantic_series_9/semantic_series_9_d.jpg"" style=""width: 300px; height: 300px;"" />
              </div>","null",""
"","","","","","html-keyboard-response","98","5963851","0.0-67.0-1.0-1.0","A77C1C3293F0427E82BBCDC6507C9EC3","bc579300-6e92-4a96-ae29-d71036371a53","23db58b9-63b0-4bce-8714-07ce439e665e","","null","<div style=""display: flex; justify-content: center; align-items: center;"">
                <img src=""images/semantic/semantic_series_10/semantic_series_10_d.jpg"" style=""width: 300px; height: 300px;"" />
              </div>","null",""
"","","","","","html-keyboard-response","99","5966853","0.0-67.0-1.0-2.0","A77C1C3293F0427E82BBCDC6507C9EC3","bc579300-6e92-4a96-ae29-d71036371a53","23db58b9-63b0-4bce-8714-07ce439e665e","","null","<div style=""display: flex; justify-content: center; align-items: center;"">
                <img src=""images/semantic/semantic_series_11/semantic_series_11_d.jpg"" style=""width: 300px; height: 300px;"" />
              </div>","null",""
"","","","","","html-keyboard-response","100","5969855","0.0-68.0","A77C1C3293F0427E82BBCDC6507C9EC3","bc579300-6e92-4a96-ae29-d71036371a53","23db58b9-63b0-4bce-8714-07ce439e665e","","null","<div style=""display: flex; justify-content: center; align-items: center;"">
                <img src=""images/other/blank.jpg"" style=""width: 300px; height: 300px;"" />
              </div>","null",""
"","","","","","html-keyboard-response","101","5972857","0.0-69.0","A77C1C3293F0427E82BBCDC6507C9EC3","bc579300-6e92-4a96-ae29-d71036371a53","23db58b9-63b0-4bce-8714-07ce439e665e","","null","<div style=""display: flex; justify-content: center; align-items: center;"">
                <img src=""images/causal/causal_series_7/causal_series_7_a.jpg"" style=""width: 300px; height: 300px;"" />
              </div>","null",""
"","","","","","html-button-response","102","5987245","0.0-70.0","A77C1C3293F0427E82BBCDC6507C9EC3","bc579300-6e92-4a96-ae29-d71036371a53","23db58b9-63b0-4bce-8714-07ce439e665e","","14386","
    <div style=""display: flex; justify-content: center; align-items: center;"">
      <img src=""images/red_deck_2.png"" style=""width: 300px; height: 300px; margin-right: 10px;"" />
      <img src=""images/blue_deck_1.png"" style=""width: 300px; height: 300px;"" />
    </div>","1","1"
"","","","","","html-keyboard-response","103","5990246","0.0-71.0-1.0-0.0","A77C1C3293F0427E82BBCDC6507C9EC3","bc579300-6e92-4a96-ae29-d71036371a53","23db58b9-63b0-4bce-8714-07ce439e665e","","null","<div style=""display: flex; justify-content: center; align-items: center;"">
                <img src=""images/semantic/semantic_series_18/semantic_series_18_d.jpg"" style=""width: 300px; height: 300px;"" />
              </div>","null",""
"","","","","","html-keyboard-response","104","5993248","0.0-71.0-1.0-1.0","A77C1C3293F0427E82BBCDC6507C9EC3","bc579300-6e92-4a96-ae29-d71036371a53","23db58b9-63b0-4bce-8714-07ce439e665e","","null","<div style=""display: flex; justify-content: center; align-items: center;"">
                <img src=""images/semantic/semantic_series_1/semantic_series_1_d.jpg"" style=""width: 300px; height: 300px;"" />
              </div>","null",""
"","","","","","html-keyboard-response","105","5996249","0.0-71.0-1.0-2.0","A77C1C3293F0427E82BBCDC6507C9EC3","bc579300-6e92-4a96-ae29-d71036371a53","23db58b9-63b0-4bce-8714-07ce439e665e","","null","<div style=""display: flex; justify-content: center; align-items: center;"">
                <img src=""images/semantic/semantic_series_2/semantic_series_2_d.jpg"" style=""width: 300px; height: 300px;"" />
              </div>","null",""
"","","","","","html-keyboard-response","106","5999252","0.0-72.0","A77C1C3293F0427E82BBCDC6507C9EC3","bc579300-6e92-4a96-ae29-d71036371a53","23db58b9-63b0-4bce-8714-07ce439e665e","","null","<div style=""display: flex; justify-content: center; align-items: center;"">
                <img src=""images/other/blank.jpg"" style=""width: 300px; height: 300px;"" />
              </div>","null",""
"","","","","","html-keyboard-response","107","6002255","0.0-73.0","A77C1C3293F0427E82BBCDC6507C9EC3","bc579300-6e92-4a96-ae29-d71036371a53","23db58b9-63b0-4bce-8714-07ce439e665e","","null","<div style=""display: flex; justify-content: center; align-items: center;"">
                <img src=""images/causal/causal_series_1/causal_series_1_a.jpg"" style=""width: 300px; height: 300px;"" />
              </div>","null",""
"","","","","","html-button-response","108","6024729","0.0-74.0","A77C1C3293F0427E82BBCDC6507C9EC3","bc579300-6e92-4a96-ae29-d71036371a53","23db58b9-63b0-4bce-8714-07ce439e665e","","22471","
    <div style=""display: flex; justify-content: center; align-items: center;"">
      <img src=""images/red_deck_2.png"" style=""width: 300px; height: 300px; margin-right: 10px;"" />
      <img src=""images/blue_deck_1.png"" style=""width: 300px; height: 300px;"" />
    </div>","1","1"
"","","","","","html-keyboard-response","109","6027731","0.0-75.0-1.0-0.0","A77C1C3293F0427E82BBCDC6507C9EC3","bc579300-6e92-4a96-ae29-d71036371a53","23db58b9-63b0-4bce-8714-07ce439e665e","","null","<div style=""display: flex; justify-content: center; align-items: center;"">
                <img src=""images/semantic/semantic_series_18/semantic_series_18_d.jpg"" style=""width: 300px; height: 300px;"" />
              </div>","null",""
"","","","","","html-keyboard-response","110","6030734","0.0-75.0-1.0-1.0","A77C1C3293F0427E82BBCDC6507C9EC3","bc579300-6e92-4a96-ae29-d71036371a53","23db58b9-63b0-4bce-8714-07ce439e665e","","null","<div style=""display: flex; justify-content: center; align-items: center;"">
                <img src=""images/semantic/semantic_series_1/semantic_series_1_d.jpg"" style=""width: 300px; height: 300px;"" />
              </div>","null",""
"","","","","","html-keyboard-response","111","6033736","0.0-75.0-1.0-2.0","A77C1C3293F0427E82BBCDC6507C9EC3","bc579300-6e92-4a96-ae29-d71036371a53","23db58b9-63b0-4bce-8714-07ce439e665e","","null","<div style=""display: flex; justify-content: center; align-items: center;"">
                <img src=""images/semantic/semantic_series_2/semantic_series_2_d.jpg"" style=""width: 300px; height: 300px;"" />
              </div>","null",""
"","","","","","html-keyboard-response","112","6036739","0.0-76.0","A77C1C3293F0427E82BBCDC6507C9EC3","bc579300-6e92-4a96-ae29-d71036371a53","23db58b9-63b0-4bce-8714-07ce439e665e","","null","<div style=""display: flex; justify-content: center; align-items: center;"">
                <img src=""images/other/blank.jpg"" style=""width: 300px; height: 300px;"" />
              </div>","null",""
"","","","","","survey-text","113","6047815","0.0-77.0","A77C1C3293F0427E82BBCDC6507C9EC3","bc579300-6e92-4a96-ae29-d71036371a53","23db58b9-63b0-4bce-8714-07ce439e665e","","11006","","{""Q0"":""Red seemed to be bad things happening""}",""
"","","","","","survey-text","114","6051762","0.0-78.0","A77C1C3293F0427E82BBCDC6507C9EC3","bc579300-6e92-4a96-ae29-d71036371a53","23db58b9-63b0-4bce-8714-07ce439e665e","","3945","","{""Q0"":""Red""}",""
"","","","","","html-button-response","115","6059346","0.0-79.0","A77C1C3293F0427E82BBCDC6507C9EC3","bc579300-6e92-4a96-ae29-d71036371a53","23db58b9-63b0-4bce-8714-07ce439e665e","","7584","Which color deck does the fourth image continue the story from the series?","0",""
"","","","","","html-button-response","116","6061546","0.0-80.0","A77C1C3293F0427E82BBCDC6507C9EC3","bc579300-6e92-4a96-ae29-d71036371a53","23db58b9-63b0-4bce-8714-07ce439e665e","","2199","Which color deck does the fourth image not follow the story from the series?","1",""
"","","","","","survey-text","117","6066733","0.0-81.0","A77C1C3293F0427E82BBCDC6507C9EC3","bc579300-6e92-4a96-ae29-d71036371a53","23db58b9-63b0-4bce-8714-07ce439e665e","","5184","","{""Q0"":""female"",""Q1"":""30""}",""
"","","","","","instructions","118","6070963","0.0-82.0","A77C1C3293F0427E82BBCDC6507C9EC3","bc579300-6e92-4a96-ae29-d71036371a53","23db58b9-63b0-4bce-8714-07ce439e665e","[{""page_index"":0,""viewing_time"":4230}]","4230","","",""
