"success","timeout","failed_images","failed_audio","failed_video","trial_type","trial_index","time_elapsed","internal_node_id","subject_id","study_id","session_id","view_history","rt","stimulus","response","choice"
"true","false","[]","[]","[]","preload","0","6110","0.0-0.0","8EAD8A9878FF42F698196347AB606A7E","f0e6daf8-5c7a-442d-947b-66d42f0c6bb5","4f03f330-5f91-43fc-aa61-d9dda6d26521","","","","",""
"","","","","","instructions","1","43330","0.0-1.0","8EAD8A9878FF42F698196347AB606A7E","f0e6daf8-5c7a-442d-947b-66d42f0c6bb5","4f03f330-5f91-43fc-aa61-d9dda6d26521","[{""page_index"":0,""viewing_time"":37219}]","37219","","",""
"","","","","","instructions","2","55096","0.0-2.0","8EAD8A9878FF42F698196347AB606A7E","f0e6daf8-5c7a-442d-947b-66d42f0c6bb5","4f03f330-5f91-43fc-aa61-d9dda6d26521","[{""page_index"":0,""viewing_time"":11764}]","11765","","",""
"true","","","","","fullscreen","3","75519","0.0-3.0","8EAD8A9878FF42F698196347AB606A7E","f0e6daf8-5c7a-442d-947b-66d42f0c6bb5","4f03f330-5f91-43fc-aa61-d9dda6d26521","","19419","","",""
"","","","","","instructions","4","146515","0.0-4.0","8EAD8A9878FF42F698196347AB606A7E","f0e6daf8-5c7a-442d-947b-66d42f0c6bb5","4f03f330-5f91-43fc-aa61-d9dda6d26521","[{""page_index"":0,""viewing_time"":70994}]","70994","","",""
"","","","","","html-keyboard-response","5","149519","0.0-5.0","8EAD8A9878FF42F698196347AB606A7E","f0e6daf8-5c7a-442d-947b-66d42f0c6bb5","4f03f330-5f91-43fc-aa61-d9dda6d26521","","null","<div style=""display: flex; justify-content: center; align-items: center;"">
                <img src=""images/causal/causal_series_14/causal_series_14_a.jpg"" style=""width: 300px; height: 300px;"" />
              </div>","null",""
"","","","","","html-button-response","6","152571","0.0-6.0","8EAD8A9878FF42F698196347AB606A7E","f0e6daf8-5c7a-442d-947b-66d42f0c6bb5","4f03f330-5f91-43fc-aa61-d9dda6d26521","","3049","
    <div style=""display: flex; justify-content: center; align-items: center;"">
      <img src=""images/red_deck_2.png"" style=""width: 300px; height: 300px; margin-right: 10px;"" />
      <img src=""images/blue_deck_1.png"" style=""width: 300px; height: 300px;"" />
    </div>","1","1"
"","","","","","html-keyboard-response","7","155573","0.0-7.0-1.0-0.0","8EAD8A9878FF42F698196347AB606A7E","f0e6daf8-5c7a-442d-947b-66d42f0c6bb5","4f03f330-5f91-43fc-aa61-d9dda6d26521","","null","<div style=""display: flex; justify-content: center; align-items: center;"">
                <img src=""images/semantic/semantic_series_3/semantic_series_3_d.jpg"" style=""width: 300px; height: 300px;"" />
              </div>","null",""
"","","","","","html-keyboard-response","8","158576","0.0-7.0-1.0-1.0","8EAD8A9878FF42F698196347AB606A7E","f0e6daf8-5c7a-442d-947b-66d42f0c6bb5","4f03f330-5f91-43fc-aa61-d9dda6d26521","","null","<div style=""display: flex; justify-content: center; align-items: center;"">
                <img src=""images/semantic/semantic_series_4/semantic_series_4_d.jpg"" style=""width: 300px; height: 300px;"" />
              </div>","null",""
"","","","","","html-keyboard-response","9","161578","0.0-7.0-1.0-2.0","8EAD8A9878FF42F698196347AB606A7E","f0e6daf8-5c7a-442d-947b-66d42f0c6bb5","4f03f330-5f91-43fc-aa61-d9dda6d26521","","null","<div style=""display: flex; justify-content: center; align-items: center;"">
                <img src=""images/semantic/semantic_series_5/semantic_series_5_d.jpg"" style=""width: 300px; height: 300px;"" />
              </div>","null",""
"","","","","","html-keyboard-response","10","164580","0.0-8.0","8EAD8A9878FF42F698196347AB606A7E","f0e6daf8-5c7a-442d-947b-66d42f0c6bb5","4f03f330-5f91-43fc-aa61-d9dda6d26521","","null","<div style=""display: flex; justify-content: center; align-items: center;"">
                <img src=""images/other/blank.jpg"" style=""width: 300px; height: 300px;"" />
              </div>","null",""
"","","","","","html-keyboard-response","11","167583","0.0-9.0","8EAD8A9878FF42F698196347AB606A7E","f0e6daf8-5c7a-442d-947b-66d42f0c6bb5","4f03f330-5f91-43fc-aa61-d9dda6d26521","","null","<div style=""display: flex; justify-content: center; align-items: center;"">
                <img src=""images/causal/causal_series_17/causal_series_17_a.jpg"" style=""width: 300px; height: 300px;"" />
              </div>","null",""
"","","","","","html-button-response","12","170253","0.0-10.0","8EAD8A9878FF42F698196347AB606A7E","f0e6daf8-5c7a-442d-947b-66d42f0c6bb5","4f03f330-5f91-43fc-aa61-d9dda6d26521","","2668","
    <div style=""display: flex; justify-content: center; align-items: center;"">
      <img src=""images/red_deck_2.png"" style=""width: 300px; height: 300px; margin-right: 10px;"" />
      <img src=""images/blue_deck_1.png"" style=""width: 300px; height: 300px;"" />
    </div>","0","0"
"","","","","","html-keyboard-response","13","173254","0.0-11.0-0.0-0.0","8EAD8A9878FF42F698196347AB606A7E","f0e6daf8-5c7a-442d-947b-66d42f0c6bb5","4f03f330-5f91-43fc-aa61-d9dda6d26521","","null","<div style=""display: flex; justify-content: center; align-items: center;"">
                <img src=""images/causal/causal_series_17/causal_series_17_b.jpg"" style=""width: 300px; height: 300px;"" />
              </div>","null",""
"","","","","","html-keyboard-response","14","176256","0.0-11.0-0.0-1.0","8EAD8A9878FF42F698196347AB606A7E","f0e6daf8-5c7a-442d-947b-66d42f0c6bb5","4f03f330-5f91-43fc-aa61-d9dda6d26521","","null","<div style=""display: flex; justify-content: center; align-items: center;"">
                <img src=""images/causal/causal_series_17/causal_series_17_c.jpg"" style=""width: 300px; height: 300px;"" />
              </div>","null",""
"","","","","","html-keyboard-response","15","179257","0.0-11.0-0.0-2.0","8EAD8A9878FF42F698196347AB606A7E","f0e6daf8-5c7a-442d-947b-66d42f0c6bb5","4f03f330-5f91-43fc-aa61-d9dda6d26521","","null","<div style=""display: flex; justify-content: center; align-items: center;"">
                <img src=""images/causal/causal_series_17/causal_series_17_d.jpg"" style=""width: 300px; height: 300px;"" />
              </div>","null",""
"","","","","","html-keyboard-response","16","182258","0.0-12.0","8EAD8A9878FF42F698196347AB606A7E","f0e6daf8-5c7a-442d-947b-66d42f0c6bb5","4f03f330-5f91-43fc-aa61-d9dda6d26521","","null","<div style=""display: flex; justify-content: center; align-items: center;"">
                <img src=""images/other/blank.jpg"" style=""width: 300px; height: 300px;"" />
              </div>","null",""
"","","","","","html-keyboard-response","17","185260","0.0-13.0","8EAD8A9878FF42F698196347AB606A7E","f0e6daf8-5c7a-442d-947b-66d42f0c6bb5","4f03f330-5f91-43fc-aa61-d9dda6d26521","","null","<div style=""display: flex; justify-content: center; align-items: center;"">
                <img src=""images/causal/causal_series_10/causal_series_10_a.jpg"" style=""width: 300px; height: 300px;"" />
              </div>","null",""
"","","","","","html-button-response","18","189052","0.0-14.0","8EAD8A9878FF42F698196347AB606A7E","f0e6daf8-5c7a-442d-947b-66d42f0c6bb5","4f03f330-5f91-43fc-aa61-d9dda6d26521","","3790","
    <div style=""display: flex; justify-content: center; align-items: center;"">
      <img src=""images/red_deck_2.png"" style=""width: 300px; height: 300px; margin-right: 10px;"" />
      <img src=""images/blue_deck_1.png"" style=""width: 300px; height: 300px;"" />
    </div>","0","0"
"","","","","","html-keyboard-response","19","192053","0.0-15.0-0.0-0.0","8EAD8A9878FF42F698196347AB606A7E","f0e6daf8-5c7a-442d-947b-66d42f0c6bb5","4f03f330-5f91-43fc-aa61-d9dda6d26521","","null","<div style=""display: flex; justify-content: center; align-items: center;"">
                <img src=""images/causal/causal_series_10/causal_series_10_b.jpg"" style=""width: 300px; height: 300px;"" />
              </div>","null",""
"","","","","","html-keyboard-response","20","195055","0.0-15.0-0.0-1.0","8EAD8A9878FF42F698196347AB606A7E","f0e6daf8-5c7a-442d-947b-66d42f0c6bb5","4f03f330-5f91-43fc-aa61-d9dda6d26521","","null","<div style=""display: flex; justify-content: center; align-items: center;"">
                <img src=""images/causal/causal_series_10/causal_series_10_c.jpg"" style=""width: 300px; height: 300px;"" />
              </div>","null",""
"","","","","","html-keyboard-response","21","198057","0.0-15.0-0.0-2.0","8EAD8A9878FF42F698196347AB606A7E","f0e6daf8-5c7a-442d-947b-66d42f0c6bb5","4f03f330-5f91-43fc-aa61-d9dda6d26521","","null","<div style=""display: flex; justify-content: center; align-items: center;"">
                <img src=""images/causal/causal_series_10/causal_series_10_d.jpg"" style=""width: 300px; height: 300px;"" />
              </div>","null",""
"","","","","","html-keyboard-response","22","201059","0.0-16.0","8EAD8A9878FF42F698196347AB606A7E","f0e6daf8-5c7a-442d-947b-66d42f0c6bb5","4f03f330-5f91-43fc-aa61-d9dda6d26521","","null","<div style=""display: flex; justify-content: center; align-items: center;"">
                <img src=""images/other/blank.jpg"" style=""width: 300px; height: 300px;"" />
              </div>","null",""
"","","","","","html-keyboard-response","23","204061","0.0-17.0","8EAD8A9878FF42F698196347AB606A7E","f0e6daf8-5c7a-442d-947b-66d42f0c6bb5","4f03f330-5f91-43fc-aa61-d9dda6d26521","","null","<div style=""display: flex; justify-content: center; align-items: center;"">
                <img src=""images/causal/causal_series_9/causal_series_9_a.jpg"" style=""width: 300px; height: 300px;"" />
              </div>","null",""
"","","","","","html-button-response","24","205382","0.0-18.0","8EAD8A9878FF42F698196347AB606A7E","f0e6daf8-5c7a-442d-947b-66d42f0c6bb5","4f03f330-5f91-43fc-aa61-d9dda6d26521","","1319","
    <div style=""display: flex; justify-content: center; align-items: center;"">
      <img src=""images/red_deck_2.png"" style=""width: 300px; height: 300px; margin-right: 10px;"" />
      <img src=""images/blue_deck_1.png"" style=""width: 300px; height: 300px;"" />
    </div>","1","1"
"","","","","","html-keyboard-response","25","208384","0.0-19.0-1.0-0.0","8EAD8A9878FF42F698196347AB606A7E","f0e6daf8-5c7a-442d-947b-66d42f0c6bb5","4f03f330-5f91-43fc-aa61-d9dda6d26521","","null","<div style=""display: flex; justify-content: center; align-items: center;"">
                <img src=""images/semantic/semantic_series_6/semantic_series_6_d.jpg"" style=""width: 300px; height: 300px;"" />
              </div>","null",""
"","","","","","html-keyboard-response","26","211386","0.0-19.0-1.0-1.0","8EAD8A9878FF42F698196347AB606A7E","f0e6daf8-5c7a-442d-947b-66d42f0c6bb5","4f03f330-5f91-43fc-aa61-d9dda6d26521","","null","<div style=""display: flex; justify-content: center; align-items: center;"">
                <img src=""images/semantic/semantic_series_7/semantic_series_7_d.jpg"" style=""width: 300px; height: 300px;"" />
              </div>","null",""
"","","","","","html-keyboard-response","27","214388","0.0-19.0-1.0-2.0","8EAD8A9878FF42F698196347AB606A7E","f0e6daf8-5c7a-442d-947b-66d42f0c6bb5","4f03f330-5f91-43fc-aa61-d9dda6d26521","","null","<div style=""display: flex; justify-content: center; align-items: center;"">
                <img src=""images/semantic/semantic_series_8/semantic_series_8_d.jpg"" style=""width: 300px; height: 300px;"" />
              </div>","null",""
"","","","","","html-keyboard-response","28","217391","0.0-20.0","8EAD8A9878FF42F698196347AB606A7E","f0e6daf8-5c7a-442d-947b-66d42f0c6bb5","4f03f330-5f91-43fc-aa61-d9dda6d26521","","null","<div style=""display: flex; justify-content: center; align-items: center;"">
                <img src=""images/other/blank.jpg"" style=""width: 300px; height: 300px;"" />
              </div>","null",""
"","","","","","html-keyboard-response","29","220393","0.0-21.0","8EAD8A9878FF42F698196347AB606A7E","f0e6daf8-5c7a-442d-947b-66d42f0c6bb5","4f03f330-5f91-43fc-aa61-d9dda6d26521","","null","<div style=""display: flex; justify-content: center; align-items: center;"">
                <img src=""images/causal/causal_series_12/causal_series_12_a.jpg"" style=""width: 300px; height: 300px;"" />
              </div>","null",""
"","","","","","html-button-response","30","227479","0.0-22.0","8EAD8A9878FF42F698196347AB606A7E","f0e6daf8-5c7a-442d-947b-66d42f0c6bb5","4f03f330-5f91-43fc-aa61-d9dda6d26521","","7083","
    <div style=""display: flex; justify-content: center; align-items: center;"">
      <img src=""images/red_deck_2.png"" style=""width: 300px; height: 300px; margin-right: 10px;"" />
      <img src=""images/blue_deck_1.png"" style=""width: 300px; height: 300px;"" />
    </div>","1","1"
"","","","","","html-keyboard-response","31","230481","0.0-23.0-1.0-0.0","8EAD8A9878FF42F698196347AB606A7E","f0e6daf8-5c7a-442d-947b-66d42f0c6bb5","4f03f330-5f91-43fc-aa61-d9dda6d26521","","null","<div style=""display: flex; justify-content: center; align-items: center;"">
                <img src=""images/semantic/semantic_series_15/semantic_series_15_d.jpg"" style=""width: 300px; height: 300px;"" />
              </div>","null",""
"","","","","","html-keyboard-response","32","233483","0.0-23.0-1.0-1.0","8EAD8A9878FF42F698196347AB606A7E","f0e6daf8-5c7a-442d-947b-66d42f0c6bb5","4f03f330-5f91-43fc-aa61-d9dda6d26521","","null","<div style=""display: flex; justify-content: center; align-items: center;"">
                <img src=""images/semantic/semantic_series_16/semantic_series_16_d.jpg"" style=""width: 300px; height: 300px;"" />
              </div>","null",""
"","","","","","html-keyboard-response","33","236485","0.0-23.0-1.0-2.0","8EAD8A9878FF42F698196347AB606A7E","f0e6daf8-5c7a-442d-947b-66d42f0c6bb5","4f03f330-5f91-43fc-aa61-d9dda6d26521","","null","<div style=""display: flex; justify-content: center; align-items: center;"">
                <img src=""images/semantic/semantic_series_17/semantic_series_17_d.jpg"" style=""width: 300px; height: 300px;"" />
              </div>","null",""
"","","","","","html-keyboard-response","34","239488","0.0-24.0","8EAD8A9878FF42F698196347AB606A7E","f0e6daf8-5c7a-442d-947b-66d42f0c6bb5","4f03f330-5f91-43fc-aa61-d9dda6d26521","","null","<div style=""display: flex; justify-content: center; align-items: center;"">
                <img src=""images/other/blank.jpg"" style=""width: 300px; height: 300px;"" />
              </div>","null",""
"","","","","","html-keyboard-response","35","242490","0.0-25.0","8EAD8A9878FF42F698196347AB606A7E","f0e6daf8-5c7a-442d-947b-66d42f0c6bb5","4f03f330-5f91-43fc-aa61-d9dda6d26521","","null","<div style=""display: flex; justify-content: center; align-items: center;"">
                <img src=""images/causal/causal_series_15/causal_series_15_a.jpg"" style=""width: 300px; height: 300px;"" />
              </div>","null",""
"","","","","","html-button-response","36","243334","0.0-26.0","8EAD8A9878FF42F698196347AB606A7E","f0e6daf8-5c7a-442d-947b-66d42f0c6bb5","4f03f330-5f91-43fc-aa61-d9dda6d26521","","842","
    <div style=""display: flex; justify-content: center; align-items: center;"">
      <img src=""images/red_deck_2.png"" style=""width: 300px; height: 300px; margin-right: 10px;"" />
      <img src=""images/blue_deck_1.png"" style=""width: 300px; height: 300px;"" />
    </div>","1","1"
"","","","","","html-keyboard-response","37","246335","0.0-27.0-1.0-0.0","8EAD8A9878FF42F698196347AB606A7E","f0e6daf8-5c7a-442d-947b-66d42f0c6bb5","4f03f330-5f91-43fc-aa61-d9dda6d26521","","null","<div style=""display: flex; justify-content: center; align-items: center;"">
                <img src=""images/semantic/semantic_series_6/semantic_series_6_d.jpg"" style=""width: 300px; height: 300px;"" />
              </div>","null",""
"","","","","","html-keyboard-response","38","249338","0.0-27.0-1.0-1.0","8EAD8A9878FF42F698196347AB606A7E","f0e6daf8-5c7a-442d-947b-66d42f0c6bb5","4f03f330-5f91-43fc-aa61-d9dda6d26521","","null","<div style=""display: flex; justify-content: center; align-items: center;"">
                <img src=""images/semantic/semantic_series_7/semantic_series_7_d.jpg"" style=""width: 300px; height: 300px;"" />
              </div>","null",""
"","","","","","html-keyboard-response","39","252339","0.0-27.0-1.0-2.0","8EAD8A9878FF42F698196347AB606A7E","f0e6daf8-5c7a-442d-947b-66d42f0c6bb5","4f03f330-5f91-43fc-aa61-d9dda6d26521","","null","<div style=""display: flex; justify-content: center; align-items: center;"">
                <img src=""images/semantic/semantic_series_8/semantic_series_8_d.jpg"" style=""width: 300px; height: 300px;"" />
              </div>","null",""
"","","","","","html-keyboard-response","40","255341","0.0-28.0","8EAD8A9878FF42F698196347AB606A7E","f0e6daf8-5c7a-442d-947b-66d42f0c6bb5","4f03f330-5f91-43fc-aa61-d9dda6d26521","","null","<div style=""display: flex; justify-content: center; align-items: center;"">
                <img src=""images/other/blank.jpg"" style=""width: 300px; height: 300px;"" />
              </div>","null",""
"","","","","","html-keyboard-response","41","258342","0.0-29.0","8EAD8A9878FF42F698196347AB606A7E","f0e6daf8-5c7a-442d-947b-66d42f0c6bb5","4f03f330-5f91-43fc-aa61-d9dda6d26521","","null","<div style=""display: flex; justify-content: center; align-items: center;"">
                <img src=""images/causal/causal_series_5/causal_series_5_a.jpg"" style=""width: 300px; height: 300px;"" />
              </div>","null",""
"","","","","","html-button-response","42","261090","0.0-30.0","8EAD8A9878FF42F698196347AB606A7E","f0e6daf8-5c7a-442d-947b-66d42f0c6bb5","4f03f330-5f91-43fc-aa61-d9dda6d26521","","2745","
    <div style=""display: flex; justify-content: center; align-items: center;"">
      <img src=""images/red_deck_2.png"" style=""width: 300px; height: 300px; margin-right: 10px;"" />
      <img src=""images/blue_deck_1.png"" style=""width: 300px; height: 300px;"" />
    </div>","1","1"
"","","","","","html-keyboard-response","43","264091","0.0-31.0-1.0-0.0","8EAD8A9878FF42F698196347AB606A7E","f0e6daf8-5c7a-442d-947b-66d42f0c6bb5","4f03f330-5f91-43fc-aa61-d9dda6d26521","","null","<div style=""display: flex; justify-content: center; align-items: center;"">
                <img src=""images/semantic/semantic_series_12/semantic_series_12_d.jpg"" style=""width: 300px; height: 300px;"" />
              </div>","null",""
"","","","","","html-keyboard-response","44","267093","0.0-31.0-1.0-1.0","8EAD8A9878FF42F698196347AB606A7E","f0e6daf8-5c7a-442d-947b-66d42f0c6bb5","4f03f330-5f91-43fc-aa61-d9dda6d26521","","null","<div style=""display: flex; justify-content: center; align-items: center;"">
                <img src=""images/semantic/semantic_series_13/semantic_series_13_d.jpg"" style=""width: 300px; height: 300px;"" />
              </div>","null",""
"","","","","","html-keyboard-response","45","270095","0.0-31.0-1.0-2.0","8EAD8A9878FF42F698196347AB606A7E","f0e6daf8-5c7a-442d-947b-66d42f0c6bb5","4f03f330-5f91-43fc-aa61-d9dda6d26521","","null","<div style=""display: flex; justify-content: center; align-items: center;"">
                <img src=""images/semantic/semantic_series_14/semantic_series_14_d.jpg"" style=""width: 300px; height: 300px;"" />
              </div>","null",""
"","","","","","html-keyboard-response","46","273097","0.0-32.0","8EAD8A9878FF42F698196347AB606A7E","f0e6daf8-5c7a-442d-947b-66d42f0c6bb5","4f03f330-5f91-43fc-aa61-d9dda6d26521","","null","<div style=""display: flex; justify-content: center; align-items: center;"">
                <img src=""images/other/blank.jpg"" style=""width: 300px; height: 300px;"" />
              </div>","null",""
"","","","","","html-keyboard-response","47","276098","0.0-33.0","8EAD8A9878FF42F698196347AB606A7E","f0e6daf8-5c7a-442d-947b-66d42f0c6bb5","4f03f330-5f91-43fc-aa61-d9dda6d26521","","null","<div style=""display: flex; justify-content: center; align-items: center;"">
                <img src=""images/causal/causal_series_11/causal_series_11_a.jpg"" style=""width: 300px; height: 300px;"" />
              </div>","null",""
"","","","","","html-button-response","48","298348","0.0-34.0","8EAD8A9878FF42F698196347AB606A7E","f0e6daf8-5c7a-442d-947b-66d42f0c6bb5","4f03f330-5f91-43fc-aa61-d9dda6d26521","","22247","
    <div style=""display: flex; justify-content: center; align-items: center;"">
      <img src=""images/red_deck_2.png"" style=""width: 300px; height: 300px; margin-right: 10px;"" />
      <img src=""images/blue_deck_1.png"" style=""width: 300px; height: 300px;"" />
    </div>","1","1"
"","","","","","html-keyboard-response","49","301350","0.0-35.0-1.0-0.0","8EAD8A9878FF42F698196347AB606A7E","f0e6daf8-5c7a-442d-947b-66d42f0c6bb5","4f03f330-5f91-43fc-aa61-d9dda6d26521","","null","<div style=""display: flex; justify-content: center; align-items: center;"">
                <img src=""images/semantic/semantic_series_12/semantic_series_12_d.jpg"" style=""width: 300px; height: 300px;"" />
              </div>","null",""
"","","","","","html-keyboard-response","50","304352","0.0-35.0-1.0-1.0","8EAD8A9878FF42F698196347AB606A7E","f0e6daf8-5c7a-442d-947b-66d42f0c6bb5","4f03f330-5f91-43fc-aa61-d9dda6d26521","","null","<div style=""display: flex; justify-content: center; align-items: center;"">
                <img src=""images/semantic/semantic_series_13/semantic_series_13_d.jpg"" style=""width: 300px; height: 300px;"" />
              </div>","null",""
"","","","","","html-keyboard-response","51","307353","0.0-35.0-1.0-2.0","8EAD8A9878FF42F698196347AB606A7E","f0e6daf8-5c7a-442d-947b-66d42f0c6bb5","4f03f330-5f91-43fc-aa61-d9dda6d26521","","null","<div style=""display: flex; justify-content: center; align-items: center;"">
                <img src=""images/semantic/semantic_series_14/semantic_series_14_d.jpg"" style=""width: 300px; height: 300px;"" />
              </div>","null",""
"","","","","","html-keyboard-response","52","310354","0.0-36.0","8EAD8A9878FF42F698196347AB606A7E","f0e6daf8-5c7a-442d-947b-66d42f0c6bb5","4f03f330-5f91-43fc-aa61-d9dda6d26521","","null","<div style=""display: flex; justify-content: center; align-items: center;"">
                <img src=""images/other/blank.jpg"" style=""width: 300px; height: 300px;"" />
              </div>","null",""
"","","","","","html-keyboard-response","53","313356","0.0-37.0","8EAD8A9878FF42F698196347AB606A7E","f0e6daf8-5c7a-442d-947b-66d42f0c6bb5","4f03f330-5f91-43fc-aa61-d9dda6d26521","","null","<div style=""display: flex; justify-content: center; align-items: center;"">
                <img src=""images/causal/causal_series_3/causal_series_3_a.jpg"" style=""width: 300px; height: 300px;"" />
              </div>","null",""
"","","","","","html-button-response","54","314843","0.0-38.0","8EAD8A9878FF42F698196347AB606A7E","f0e6daf8-5c7a-442d-947b-66d42f0c6bb5","4f03f330-5f91-43fc-aa61-d9dda6d26521","","1486","
    <div style=""display: flex; justify-content: center; align-items: center;"">
      <img src=""images/red_deck_2.png"" style=""width: 300px; height: 300px; margin-right: 10px;"" />
      <img src=""images/blue_deck_1.png"" style=""width: 300px; height: 300px;"" />
    </div>","1","1"
"","","","","","html-keyboard-response","55","317844","0.0-39.0-1.0-0.0","8EAD8A9878FF42F698196347AB606A7E","f0e6daf8-5c7a-442d-947b-66d42f0c6bb5","4f03f330-5f91-43fc-aa61-d9dda6d26521","","null","<div style=""display: flex; justify-content: center; align-items: center;"">
                <img src=""images/semantic/semantic_series_6/semantic_series_6_d.jpg"" style=""width: 300px; height: 300px;"" />
              </div>","null",""
"","","","","","html-keyboard-response","56","320846","0.0-39.0-1.0-1.0","8EAD8A9878FF42F698196347AB606A7E","f0e6daf8-5c7a-442d-947b-66d42f0c6bb5","4f03f330-5f91-43fc-aa61-d9dda6d26521","","null","<div style=""display: flex; justify-content: center; align-items: center;"">
                <img src=""images/semantic/semantic_series_7/semantic_series_7_d.jpg"" style=""width: 300px; height: 300px;"" />
              </div>","null",""
"","","","","","html-keyboard-response","57","323848","0.0-39.0-1.0-2.0","8EAD8A9878FF42F698196347AB606A7E","f0e6daf8-5c7a-442d-947b-66d42f0c6bb5","4f03f330-5f91-43fc-aa61-d9dda6d26521","","null","<div style=""display: flex; justify-content: center; align-items: center;"">
                <img src=""images/semantic/semantic_series_8/semantic_series_8_d.jpg"" style=""width: 300px; height: 300px;"" />
              </div>","null",""
"","","","","","html-keyboard-response","58","326849","0.0-40.0","8EAD8A9878FF42F698196347AB606A7E","f0e6daf8-5c7a-442d-947b-66d42f0c6bb5","4f03f330-5f91-43fc-aa61-d9dda6d26521","","null","<div style=""display: flex; justify-content: center; align-items: center;"">
                <img src=""images/other/blank.jpg"" style=""width: 300px; height: 300px;"" />
              </div>","null",""
"","","","","","html-keyboard-response","59","329851","0.0-41.0","8EAD8A9878FF42F698196347AB606A7E","f0e6daf8-5c7a-442d-947b-66d42f0c6bb5","4f03f330-5f91-43fc-aa61-d9dda6d26521","","null","<div style=""display: flex; justify-content: center; align-items: center;"">
                <img src=""images/causal/causal_series_8/causal_series_8_a.jpg"" style=""width: 300px; height: 300px;"" />
              </div>","null",""
"","","","","","html-button-response","60","330740","0.0-42.0","8EAD8A9878FF42F698196347AB606A7E","f0e6daf8-5c7a-442d-947b-66d42f0c6bb5","4f03f330-5f91-43fc-aa61-d9dda6d26521","","888","
    <div style=""display: flex; justify-content: center; align-items: center;"">
      <img src=""images/red_deck_2.png"" style=""width: 300px; height: 300px; margin-right: 10px;"" />
      <img src=""images/blue_deck_1.png"" style=""width: 300px; height: 300px;"" />
    </div>","1","1"
"","","","","","html-keyboard-response","61","333742","0.0-43.0-1.0-0.0","8EAD8A9878FF42F698196347AB606A7E","f0e6daf8-5c7a-442d-947b-66d42f0c6bb5","4f03f330-5f91-43fc-aa61-d9dda6d26521","","null","<div style=""display: flex; justify-content: center; align-items: center;"">
                <img src=""images/semantic/semantic_series_3/semantic_series_3_d.jpg"" style=""width: 300px; height: 300px;"" />
              </div>","null",""
"","","","","","html-keyboard-response","62","336744","0.0-43.0-1.0-1.0","8EAD8A9878FF42F698196347AB606A7E","f0e6daf8-5c7a-442d-947b-66d42f0c6bb5","4f03f330-5f91-43fc-aa61-d9dda6d26521","","null","<div style=""display: flex; justify-content: center; align-items: center;"">
                <img src=""images/semantic/semantic_series_4/semantic_series_4_d.jpg"" style=""width: 300px; height: 300px;"" />
              </div>","null",""
"","","","","","html-keyboard-response","63","339745","0.0-43.0-1.0-2.0","8EAD8A9878FF42F698196347AB606A7E","f0e6daf8-5c7a-442d-947b-66d42f0c6bb5","4f03f330-5f91-43fc-aa61-d9dda6d26521","","null","<div style=""display: flex; justify-content: center; align-items: center;"">
                <img src=""images/semantic/semantic_series_5/semantic_series_5_d.jpg"" style=""width: 300px; height: 300px;"" />
              </div>","null",""
"","","","","","html-keyboard-response","64","342747","0.0-44.0","8EAD8A9878FF42F698196347AB606A7E","f0e6daf8-5c7a-442d-947b-66d42f0c6bb5","4f03f330-5f91-43fc-aa61-d9dda6d26521","","null","<div style=""display: flex; justify-content: center; align-items: center;"">
                <img src=""images/other/blank.jpg"" style=""width: 300px; height: 300px;"" />
              </div>","null",""
"","","","","","html-keyboard-response","65","345748","0.0-45.0","8EAD8A9878FF42F698196347AB606A7E","f0e6daf8-5c7a-442d-947b-66d42f0c6bb5","4f03f330-5f91-43fc-aa61-d9dda6d26521","","null","<div style=""display: flex; justify-content: center; align-items: center;"">
                <img src=""images/causal/causal_series_1/causal_series_1_a.jpg"" style=""width: 300px; height: 300px;"" />
              </div>","null",""
"","","","","","html-button-response","66","346982","0.0-46.0","8EAD8A9878FF42F698196347AB606A7E","f0e6daf8-5c7a-442d-947b-66d42f0c6bb5","4f03f330-5f91-43fc-aa61-d9dda6d26521","","1232","
    <div style=""display: flex; justify-content: center; align-items: center;"">
      <img src=""images/red_deck_2.png"" style=""width: 300px; height: 300px; margin-right: 10px;"" />
      <img src=""images/blue_deck_1.png"" style=""width: 300px; height: 300px;"" />
    </div>","1","1"
"","","","","","html-keyboard-response","67","349984","0.0-47.0-1.0-0.0","8EAD8A9878FF42F698196347AB606A7E","f0e6daf8-5c7a-442d-947b-66d42f0c6bb5","4f03f330-5f91-43fc-aa61-d9dda6d26521","","null","<div style=""display: flex; justify-content: center; align-items: center;"">
                <img src=""images/semantic/semantic_series_18/semantic_series_18_d.jpg"" style=""width: 300px; height: 300px;"" />
              </div>","null",""
"","","","","","html-keyboard-response","68","352986","0.0-47.0-1.0-1.0","8EAD8A9878FF42F698196347AB606A7E","f0e6daf8-5c7a-442d-947b-66d42f0c6bb5","4f03f330-5f91-43fc-aa61-d9dda6d26521","","null","<div style=""display: flex; justify-content: center; align-items: center;"">
                <img src=""images/semantic/semantic_series_1/semantic_series_1_d.jpg"" style=""width: 300px; height: 300px;"" />
              </div>","null",""
"","","","","","html-keyboard-response","69","355988","0.0-47.0-1.0-2.0","8EAD8A9878FF42F698196347AB606A7E","f0e6daf8-5c7a-442d-947b-66d42f0c6bb5","4f03f330-5f91-43fc-aa61-d9dda6d26521","","null","<div style=""display: flex; justify-content: center; align-items: center;"">
                <img src=""images/semantic/semantic_series_2/semantic_series_2_d.jpg"" style=""width: 300px; height: 300px;"" />
              </div>","null",""
"","","","","","html-keyboard-response","70","358989","0.0-48.0","8EAD8A9878FF42F698196347AB606A7E","f0e6daf8-5c7a-442d-947b-66d42f0c6bb5","4f03f330-5f91-43fc-aa61-d9dda6d26521","","null","<div style=""display: flex; justify-content: center; align-items: center;"">
                <img src=""images/other/blank.jpg"" style=""width: 300px; height: 300px;"" />
              </div>","null",""
"","","","","","html-keyboard-response","71","361990","0.0-49.0","8EAD8A9878FF42F698196347AB606A7E","f0e6daf8-5c7a-442d-947b-66d42f0c6bb5","4f03f330-5f91-43fc-aa61-d9dda6d26521","","null","<div style=""display: flex; justify-content: center; align-items: center;"">
                <img src=""images/causal/causal_series_6/causal_series_6_a.jpg"" style=""width: 300px; height: 300px;"" />
              </div>","null",""
"","","","","","html-button-response","72","363168","0.0-50.0","8EAD8A9878FF42F698196347AB606A7E","f0e6daf8-5c7a-442d-947b-66d42f0c6bb5","4f03f330-5f91-43fc-aa61-d9dda6d26521","","1176","
    <div style=""display: flex; justify-content: center; align-items: center;"">
      <img src=""images/red_deck_2.png"" style=""width: 300px; height: 300px; margin-right: 10px;"" />
      <img src=""images/blue_deck_1.png"" style=""width: 300px; height: 300px;"" />
    </div>","1","1"
"","","","","","html-keyboard-response","73","366171","0.0-51.0-1.0-0.0","8EAD8A9878FF42F698196347AB606A7E","f0e6daf8-5c7a-442d-947b-66d42f0c6bb5","4f03f330-5f91-43fc-aa61-d9dda6d26521","","null","<div style=""display: flex; justify-content: center; align-items: center;"">
                <img src=""images/semantic/semantic_series_15/semantic_series_15_d.jpg"" style=""width: 300px; height: 300px;"" />
              </div>","null",""
"","","","","","html-keyboard-response","74","369173","0.0-51.0-1.0-1.0","8EAD8A9878FF42F698196347AB606A7E","f0e6daf8-5c7a-442d-947b-66d42f0c6bb5","4f03f330-5f91-43fc-aa61-d9dda6d26521","","null","<div style=""display: flex; justify-content: center; align-items: center;"">
                <img src=""images/semantic/semantic_series_16/semantic_series_16_d.jpg"" style=""width: 300px; height: 300px;"" />
              </div>","null",""
"","","","","","html-keyboard-response","75","372174","0.0-51.0-1.0-2.0","8EAD8A9878FF42F698196347AB606A7E","f0e6daf8-5c7a-442d-947b-66d42f0c6bb5","4f03f330-5f91-43fc-aa61-d9dda6d26521","","null","<div style=""display: flex; justify-content: center; align-items: center;"">
                <img src=""images/semantic/semantic_series_17/semantic_series_17_d.jpg"" style=""width: 300px; height: 300px;"" />
              </div>","null",""
"","","","","","html-keyboard-response","76","375176","0.0-52.0","8EAD8A9878FF42F698196347AB606A7E","f0e6daf8-5c7a-442d-947b-66d42f0c6bb5","4f03f330-5f91-43fc-aa61-d9dda6d26521","","null","<div style=""display: flex; justify-content: center; align-items: center;"">
                <img src=""images/other/blank.jpg"" style=""width: 300px; height: 300px;"" />
              </div>","null",""
"","","","","","html-keyboard-response","77","378177","0.0-53.0","8EAD8A9878FF42F698196347AB606A7E","f0e6daf8-5c7a-442d-947b-66d42f0c6bb5","4f03f330-5f91-43fc-aa61-d9dda6d26521","","null","<div style=""display: flex; justify-content: center; align-items: center;"">
                <img src=""images/causal/causal_series_18/causal_series_18_a.jpg"" style=""width: 300px; height: 300px;"" />
              </div>","null",""
"","","","","","html-button-response","78","379043","0.0-54.0","8EAD8A9878FF42F698196347AB606A7E","f0e6daf8-5c7a-442d-947b-66d42f0c6bb5","4f03f330-5f91-43fc-aa61-d9dda6d26521","","864","
    <div style=""display: flex; justify-content: center; align-items: center;"">
      <img src=""images/red_deck_2.png"" style=""width: 300px; height: 300px; margin-right: 10px;"" />
      <img src=""images/blue_deck_1.png"" style=""width: 300px; height: 300px;"" />
    </div>","1","1"
"","","","","","html-keyboard-response","79","382046","0.0-55.0-1.0-0.0","8EAD8A9878FF42F698196347AB606A7E","f0e6daf8-5c7a-442d-947b-66d42f0c6bb5","4f03f330-5f91-43fc-aa61-d9dda6d26521","","null","<div style=""display: flex; justify-content: center; align-items: center;"">
                <img src=""images/semantic/semantic_series_15/semantic_series_15_d.jpg"" style=""width: 300px; height: 300px;"" />
              </div>","null",""
"","","","","","html-keyboard-response","80","385047","0.0-55.0-1.0-1.0","8EAD8A9878FF42F698196347AB606A7E","f0e6daf8-5c7a-442d-947b-66d42f0c6bb5","4f03f330-5f91-43fc-aa61-d9dda6d26521","","null","<div style=""display: flex; justify-content: center; align-items: center;"">
                <img src=""images/semantic/semantic_series_16/semantic_series_16_d.jpg"" style=""width: 300px; height: 300px;"" />
              </div>","null",""
"","","","","","html-keyboard-response","81","388049","0.0-55.0-1.0-2.0","8EAD8A9878FF42F698196347AB606A7E","f0e6daf8-5c7a-442d-947b-66d42f0c6bb5","4f03f330-5f91-43fc-aa61-d9dda6d26521","","null","<div style=""display: flex; justify-content: center; align-items: center;"">
                <img src=""images/semantic/semantic_series_17/semantic_series_17_d.jpg"" style=""width: 300px; height: 300px;"" />
              </div>","null",""
"","","","","","html-keyboard-response","82","391051","0.0-56.0","8EAD8A9878FF42F698196347AB606A7E","f0e6daf8-5c7a-442d-947b-66d42f0c6bb5","4f03f330-5f91-43fc-aa61-d9dda6d26521","","null","<div style=""display: flex; justify-content: center; align-items: center;"">
                <img src=""images/other/blank.jpg"" style=""width: 300px; height: 300px;"" />
              </div>","null",""
"","","","","","html-keyboard-response","83","394053","0.0-57.0","8EAD8A9878FF42F698196347AB606A7E","f0e6daf8-5c7a-442d-947b-66d42f0c6bb5","4f03f330-5f91-43fc-aa61-d9dda6d26521","","null","<div style=""display: flex; justify-content: center; align-items: center;"">
                <img src=""images/causal/causal_series_2/causal_series_2_a.jpg"" style=""width: 300px; height: 300px;"" />
              </div>","null",""
"","","","","","html-button-response","84","396355","0.0-58.0","8EAD8A9878FF42F698196347AB606A7E","f0e6daf8-5c7a-442d-947b-66d42f0c6bb5","4f03f330-5f91-43fc-aa61-d9dda6d26521","","2299","
    <div style=""display: flex; justify-content: center; align-items: center;"">
      <img src=""images/red_deck_2.png"" style=""width: 300px; height: 300px; margin-right: 10px;"" />
      <img src=""images/blue_deck_1.png"" style=""width: 300px; height: 300px;"" />
    </div>","1","1"
"","","","","","html-keyboard-response","85","399357","0.0-59.0-1.0-0.0","8EAD8A9878FF42F698196347AB606A7E","f0e6daf8-5c7a-442d-947b-66d42f0c6bb5","4f03f330-5f91-43fc-aa61-d9dda6d26521","","null","<div style=""display: flex; justify-content: center; align-items: center;"">
                <img src=""images/semantic/semantic_series_3/semantic_series_3_d.jpg"" style=""width: 300px; height: 300px;"" />
              </div>","null",""
"","","","","","html-keyboard-response","86","402359","0.0-59.0-1.0-1.0","8EAD8A9878FF42F698196347AB606A7E","f0e6daf8-5c7a-442d-947b-66d42f0c6bb5","4f03f330-5f91-43fc-aa61-d9dda6d26521","","null","<div style=""display: flex; justify-content: center; align-items: center;"">
                <img src=""images/semantic/semantic_series_4/semantic_series_4_d.jpg"" style=""width: 300px; height: 300px;"" />
              </div>","null",""
"","","","","","html-keyboard-response","87","405361","0.0-59.0-1.0-2.0","8EAD8A9878FF42F698196347AB606A7E","f0e6daf8-5c7a-442d-947b-66d42f0c6bb5","4f03f330-5f91-43fc-aa61-d9dda6d26521","","null","<div style=""display: flex; justify-content: center; align-items: center;"">
                <img src=""images/semantic/semantic_series_5/semantic_series_5_d.jpg"" style=""width: 300px; height: 300px;"" />
              </div>","null",""
"","","","","","html-keyboard-response","88","408363","0.0-60.0","8EAD8A9878FF42F698196347AB606A7E","f0e6daf8-5c7a-442d-947b-66d42f0c6bb5","4f03f330-5f91-43fc-aa61-d9dda6d26521","","null","<div style=""display: flex; justify-content: center; align-items: center;"">
                <img src=""images/other/blank.jpg"" style=""width: 300px; height: 300px;"" />
              </div>","null",""
"","","","","","html-keyboard-response","89","411365","0.0-61.0","8EAD8A9878FF42F698196347AB606A7E","f0e6daf8-5c7a-442d-947b-66d42f0c6bb5","4f03f330-5f91-43fc-aa61-d9dda6d26521","","null","<div style=""display: flex; justify-content: center; align-items: center;"">
                <img src=""images/causal/causal_series_16/causal_series_16_a.jpg"" style=""width: 300px; height: 300px;"" />
              </div>","null",""
"","","","","","html-button-response","90","414512","0.0-62.0","8EAD8A9878FF42F698196347AB606A7E","f0e6daf8-5c7a-442d-947b-66d42f0c6bb5","4f03f330-5f91-43fc-aa61-d9dda6d26521","","3144","
    <div style=""display: flex; justify-content: center; align-items: center;"">
      <img src=""images/red_deck_2.png"" style=""width: 300px; height: 300px; margin-right: 10px;"" />
      <img src=""images/blue_deck_1.png"" style=""width: 300px; height: 300px;"" />
    </div>","0","0"
"","","","","","html-keyboard-response","91","417514","0.0-63.0-0.0-0.0","8EAD8A9878FF42F698196347AB606A7E","f0e6daf8-5c7a-442d-947b-66d42f0c6bb5","4f03f330-5f91-43fc-aa61-d9dda6d26521","","null","<div style=""display: flex; justify-content: center; align-items: center;"">
                <img src=""images/causal/causal_series_16/causal_series_16_b.jpg"" style=""width: 300px; height: 300px;"" />
              </div>","null",""
"","","","","","html-keyboard-response","92","420516","0.0-63.0-0.0-1.0","8EAD8A9878FF42F698196347AB606A7E","f0e6daf8-5c7a-442d-947b-66d42f0c6bb5","4f03f330-5f91-43fc-aa61-d9dda6d26521","","null","<div style=""display: flex; justify-content: center; align-items: center;"">
                <img src=""images/causal/causal_series_16/causal_series_16_c.jpg"" style=""width: 300px; height: 300px;"" />
              </div>","null",""
"","","","","","html-keyboard-response","93","423517","0.0-63.0-0.0-2.0","8EAD8A9878FF42F698196347AB606A7E","f0e6daf8-5c7a-442d-947b-66d42f0c6bb5","4f03f330-5f91-43fc-aa61-d9dda6d26521","","null","<div style=""display: flex; justify-content: center; align-items: center;"">
                <img src=""images/causal/causal_series_16/causal_series_16_d.jpg"" style=""width: 300px; height: 300px;"" />
              </div>","null",""
"","","","","","html-keyboard-response","94","426518","0.0-64.0","8EAD8A9878FF42F698196347AB606A7E","f0e6daf8-5c7a-442d-947b-66d42f0c6bb5","4f03f330-5f91-43fc-aa61-d9dda6d26521","","null","<div style=""display: flex; justify-content: center; align-items: center;"">
                <img src=""images/other/blank.jpg"" style=""width: 300px; height: 300px;"" />
              </div>","null",""
"","","","","","html-keyboard-response","95","429519","0.0-65.0","8EAD8A9878FF42F698196347AB606A7E","f0e6daf8-5c7a-442d-947b-66d42f0c6bb5","4f03f330-5f91-43fc-aa61-d9dda6d26521","","null","<div style=""display: flex; justify-content: center; align-items: center;"">
                <img src=""images/causal/causal_series_4/causal_series_4_a.jpg"" style=""width: 300px; height: 300px;"" />
              </div>","null",""
"","","","","","html-button-response","96","431881","0.0-66.0","8EAD8A9878FF42F698196347AB606A7E","f0e6daf8-5c7a-442d-947b-66d42f0c6bb5","4f03f330-5f91-43fc-aa61-d9dda6d26521","","2359","
    <div style=""display: flex; justify-content: center; align-items: center;"">
      <img src=""images/red_deck_2.png"" style=""width: 300px; height: 300px; margin-right: 10px;"" />
      <img src=""images/blue_deck_1.png"" style=""width: 300px; height: 300px;"" />
    </div>","0","0"
"","","","","","html-keyboard-response","97","434882","0.0-67.0-0.0-0.0","8EAD8A9878FF42F698196347AB606A7E","f0e6daf8-5c7a-442d-947b-66d42f0c6bb5","4f03f330-5f91-43fc-aa61-d9dda6d26521","","null","<div style=""display: flex; justify-content: center; align-items: center;"">
                <img src=""images/causal/causal_series_4/causal_series_4_b.jpg"" style=""width: 300px; height: 300px;"" />
              </div>","null",""
"","","","","","html-keyboard-response","98","437885","0.0-67.0-0.0-1.0","8EAD8A9878FF42F698196347AB606A7E","f0e6daf8-5c7a-442d-947b-66d42f0c6bb5","4f03f330-5f91-43fc-aa61-d9dda6d26521","","null","<div style=""display: flex; justify-content: center; align-items: center;"">
                <img src=""images/causal/causal_series_4/causal_series_4_c.jpg"" style=""width: 300px; height: 300px;"" />
              </div>","null",""
"","","","","","html-keyboard-response","99","440887","0.0-67.0-0.0-2.0","8EAD8A9878FF42F698196347AB606A7E","f0e6daf8-5c7a-442d-947b-66d42f0c6bb5","4f03f330-5f91-43fc-aa61-d9dda6d26521","","null","<div style=""display: flex; justify-content: center; align-items: center;"">
                <img src=""images/causal/causal_series_4/causal_series_4_d.jpg"" style=""width: 300px; height: 300px;"" />
              </div>","null",""
"","","","","","html-keyboard-response","100","443889","0.0-68.0","8EAD8A9878FF42F698196347AB606A7E","f0e6daf8-5c7a-442d-947b-66d42f0c6bb5","4f03f330-5f91-43fc-aa61-d9dda6d26521","","null","<div style=""display: flex; justify-content: center; align-items: center;"">
                <img src=""images/other/blank.jpg"" style=""width: 300px; height: 300px;"" />
              </div>","null",""
"","","","","","html-keyboard-response","101","446891","0.0-69.0","8EAD8A9878FF42F698196347AB606A7E","f0e6daf8-5c7a-442d-947b-66d42f0c6bb5","4f03f330-5f91-43fc-aa61-d9dda6d26521","","null","<div style=""display: flex; justify-content: center; align-items: center;"">
                <img src=""images/causal/causal_series_13/causal_series_13_a.jpg"" style=""width: 300px; height: 300px;"" />
              </div>","null",""
"","","","","","html-button-response","102","478688","0.0-70.0","8EAD8A9878FF42F698196347AB606A7E","f0e6daf8-5c7a-442d-947b-66d42f0c6bb5","4f03f330-5f91-43fc-aa61-d9dda6d26521","","31794","
    <div style=""display: flex; justify-content: center; align-items: center;"">
      <img src=""images/red_deck_2.png"" style=""width: 300px; height: 300px; margin-right: 10px;"" />
      <img src=""images/blue_deck_1.png"" style=""width: 300px; height: 300px;"" />
    </div>","0","0"
"","","","","","html-keyboard-response","103","481690","0.0-71.0-0.0-0.0","8EAD8A9878FF42F698196347AB606A7E","f0e6daf8-5c7a-442d-947b-66d42f0c6bb5","4f03f330-5f91-43fc-aa61-d9dda6d26521","","null","<div style=""display: flex; justify-content: center; align-items: center;"">
                <img src=""images/causal/causal_series_13/causal_series_13_b.jpg"" style=""width: 300px; height: 300px;"" />
              </div>","null",""
"","","","","","html-keyboard-response","104","484693","0.0-71.0-0.0-1.0","8EAD8A9878FF42F698196347AB606A7E","f0e6daf8-5c7a-442d-947b-66d42f0c6bb5","4f03f330-5f91-43fc-aa61-d9dda6d26521","","null","<div style=""display: flex; justify-content: center; align-items: center;"">
                <img src=""images/causal/causal_series_13/causal_series_13_c.jpg"" style=""width: 300px; height: 300px;"" />
              </div>","null",""
"","","","","","html-keyboard-response","105","487694","0.0-71.0-0.0-2.0","8EAD8A9878FF42F698196347AB606A7E","f0e6daf8-5c7a-442d-947b-66d42f0c6bb5","4f03f330-5f91-43fc-aa61-d9dda6d26521","","null","<div style=""display: flex; justify-content: center; align-items: center;"">
                <img src=""images/causal/causal_series_13/causal_series_13_d.jpg"" style=""width: 300px; height: 300px;"" />
              </div>","null",""
"","","","","","html-keyboard-response","106","490697","0.0-72.0","8EAD8A9878FF42F698196347AB606A7E","f0e6daf8-5c7a-442d-947b-66d42f0c6bb5","4f03f330-5f91-43fc-aa61-d9dda6d26521","","null","<div style=""display: flex; justify-content: center; align-items: center;"">
                <img src=""images/other/blank.jpg"" style=""width: 300px; height: 300px;"" />
              </div>","null",""
"","","","","","html-keyboard-response","107","493699","0.0-73.0","8EAD8A9878FF42F698196347AB606A7E","f0e6daf8-5c7a-442d-947b-66d42f0c6bb5","4f03f330-5f91-43fc-aa61-d9dda6d26521","","null","<div style=""display: flex; justify-content: center; align-items: center;"">
                <img src=""images/causal/causal_series_7/causal_series_7_a.jpg"" style=""width: 300px; height: 300px;"" />
              </div>","null",""
"","","","","","html-button-response","108","563465","0.0-74.0","8EAD8A9878FF42F698196347AB606A7E","f0e6daf8-5c7a-442d-947b-66d42f0c6bb5","4f03f330-5f91-43fc-aa61-d9dda6d26521","","69763","
    <div style=""display: flex; justify-content: center; align-items: center;"">
      <img src=""images/red_deck_2.png"" style=""width: 300px; height: 300px; margin-right: 10px;"" />
      <img src=""images/blue_deck_1.png"" style=""width: 300px; height: 300px;"" />
    </div>","1","1"
"","","","","","html-keyboard-response","109","566467","0.0-75.0-1.0-0.0","8EAD8A9878FF42F698196347AB606A7E","f0e6daf8-5c7a-442d-947b-66d42f0c6bb5","4f03f330-5f91-43fc-aa61-d9dda6d26521","","null","<div style=""display: flex; justify-content: center; align-items: center;"">
                <img src=""images/semantic/semantic_series_18/semantic_series_18_d.jpg"" style=""width: 300px; height: 300px;"" />
              </div>","null",""
"","","","","","html-keyboard-response","110","569469","0.0-75.0-1.0-1.0","8EAD8A9878FF42F698196347AB606A7E","f0e6daf8-5c7a-442d-947b-66d42f0c6bb5","4f03f330-5f91-43fc-aa61-d9dda6d26521","","null","<div style=""display: flex; justify-content: center; align-items: center;"">
                <img src=""images/semantic/semantic_series_1/semantic_series_1_d.jpg"" style=""width: 300px; height: 300px;"" />
              </div>","null",""
"","","","","","html-keyboard-response","111","572471","0.0-75.0-1.0-2.0","8EAD8A9878FF42F698196347AB606A7E","f0e6daf8-5c7a-442d-947b-66d42f0c6bb5","4f03f330-5f91-43fc-aa61-d9dda6d26521","","null","<div style=""display: flex; justify-content: center; align-items: center;"">
                <img src=""images/semantic/semantic_series_2/semantic_series_2_d.jpg"" style=""width: 300px; height: 300px;"" />
              </div>","null",""
"","","","","","html-keyboard-response","112","575473","0.0-76.0","8EAD8A9878FF42F698196347AB606A7E","f0e6daf8-5c7a-442d-947b-66d42f0c6bb5","4f03f330-5f91-43fc-aa61-d9dda6d26521","","null","<div style=""display: flex; justify-content: center; align-items: center;"">
                <img src=""images/other/blank.jpg"" style=""width: 300px; height: 300px;"" />
              </div>","null",""
"","","","","","survey-text","113","609501","0.0-77.0","8EAD8A9878FF42F698196347AB606A7E","f0e6daf8-5c7a-442d-947b-66d42f0c6bb5","4f03f330-5f91-43fc-aa61-d9dda6d26521","","34022","","{""Q0"":""Not really. i dont remember what the direrence was.""}",""
"","","","","","survey-text","114","620375","0.0-78.0","8EAD8A9878FF42F698196347AB606A7E","f0e6daf8-5c7a-442d-947b-66d42f0c6bb5","4f03f330-5f91-43fc-aa61-d9dda6d26521","","10870","","{""Q0"":""The Blue deck""}",""
"","","","","","html-button-response","115","630688","0.0-79.0","8EAD8A9878FF42F698196347AB606A7E","f0e6daf8-5c7a-442d-947b-66d42f0c6bb5","4f03f330-5f91-43fc-aa61-d9dda6d26521","","10313","Which color deck does the fourth image continue the story from the series?","0",""
"","","","","","html-button-response","116","634803","0.0-80.0","8EAD8A9878FF42F698196347AB606A7E","f0e6daf8-5c7a-442d-947b-66d42f0c6bb5","4f03f330-5f91-43fc-aa61-d9dda6d26521","","4113","Which color deck does the fourth image not follow the story from the series?","1",""
"","","","","","survey-text","117","640787","0.0-81.0","8EAD8A9878FF42F698196347AB606A7E","f0e6daf8-5c7a-442d-947b-66d42f0c6bb5","4f03f330-5f91-43fc-aa61-d9dda6d26521","","5981","","{""Q0"":""Female"",""Q1"":""34""}",""
"","","","","","instructions","118","645904","0.0-82.0","8EAD8A9878FF42F698196347AB606A7E","f0e6daf8-5c7a-442d-947b-66d42f0c6bb5","4f03f330-5f91-43fc-aa61-d9dda6d26521","[{""page_index"":0,""viewing_time"":5116}]","5116","","",""
