"success","timeout","failed_images","failed_audio","failed_video","trial_type","trial_index","time_elapsed","internal_node_id","subject_id","study_id","session_id","view_history","rt","stimulus","response","choice"
"true","false","[]","[]","[]","preload","0","1041","0.0-0.0","8859232175A94E0A9FF1DACD228E8AAB","06d9a0f0-701c-468d-bc2c-feaf34eca82e","23db58b9-63b0-4bce-8714-07ce439e665e","","","","",""
"","","","","","instructions","1","3267","0.0-1.0","8859232175A94E0A9FF1DACD228E8AAB","06d9a0f0-701c-468d-bc2c-feaf34eca82e","23db58b9-63b0-4bce-8714-07ce439e665e","[{""page_index"":0,""viewing_time"":2225}]","2225","","",""
"","","","","","instructions","2","6738","0.0-2.0","8859232175A94E0A9FF1DACD228E8AAB","06d9a0f0-701c-468d-bc2c-feaf34eca82e","23db58b9-63b0-4bce-8714-07ce439e665e","[{""page_index"":0,""viewing_time"":3470}]","3470","","",""
"true","","","","","fullscreen","3","10093","0.0-3.0","8859232175A94E0A9FF1DACD228E8AAB","06d9a0f0-701c-468d-bc2c-feaf34eca82e","23db58b9-63b0-4bce-8714-07ce439e665e","","2349","","",""
"","","","","","instructions","4","21609","0.0-4.0","8859232175A94E0A9FF1DACD228E8AAB","06d9a0f0-701c-468d-bc2c-feaf34eca82e","23db58b9-63b0-4bce-8714-07ce439e665e","[{""page_index"":0,""viewing_time"":11514}]","11514","","",""
"","","","","","html-keyboard-response","5","24616","0.0-5.0","8859232175A94E0A9FF1DACD228E8AAB","06d9a0f0-701c-468d-bc2c-feaf34eca82e","23db58b9-63b0-4bce-8714-07ce439e665e","","null","<div style=""display: flex; justify-content: center; align-items: center;"">
                <img src=""images/causal/causal_series_2/causal_series_2_a.jpg"" style=""width: 300px; height: 300px;"" />
              </div>","null",""
"","","","","","html-button-response","6","28570","0.0-6.0","8859232175A94E0A9FF1DACD228E8AAB","06d9a0f0-701c-468d-bc2c-feaf34eca82e","23db58b9-63b0-4bce-8714-07ce439e665e","","3952","
    <div style=""display: flex; justify-content: center; align-items: center;"">
      <img src=""images/red_deck_2.png"" style=""width: 300px; height: 300px; margin-right: 10px;"" />
      <img src=""images/blue_deck_1.png"" style=""width: 300px; height: 300px;"" />
    </div>","1","1"
"","","","","","html-keyboard-response","7","31630","0.0-7.0-1.0-0.0","8859232175A94E0A9FF1DACD228E8AAB","06d9a0f0-701c-468d-bc2c-feaf34eca82e","23db58b9-63b0-4bce-8714-07ce439e665e","","null","<div style=""display: flex; justify-content: center; align-items: center;"">
                <img src=""images/semantic/semantic_series_3/semantic_series_3_d.jpg"" style=""width: 300px; height: 300px;"" />
              </div>","null",""
"","","","","","html-keyboard-response","8","34632","0.0-7.0-1.0-1.0","8859232175A94E0A9FF1DACD228E8AAB","06d9a0f0-701c-468d-bc2c-feaf34eca82e","23db58b9-63b0-4bce-8714-07ce439e665e","","null","<div style=""display: flex; justify-content: center; align-items: center;"">
                <img src=""images/semantic/semantic_series_4/semantic_series_4_d.jpg"" style=""width: 300px; height: 300px;"" />
              </div>","null",""
"","","","","","html-keyboard-response","9","37638","0.0-7.0-1.0-2.0","8859232175A94E0A9FF1DACD228E8AAB","06d9a0f0-701c-468d-bc2c-feaf34eca82e","23db58b9-63b0-4bce-8714-07ce439e665e","","null","<div style=""display: flex; justify-content: center; align-items: center;"">
                <img src=""images/semantic/semantic_series_5/semantic_series_5_d.jpg"" style=""width: 300px; height: 300px;"" />
              </div>","null",""
"","","","","","html-keyboard-response","10","40642","0.0-8.0","8859232175A94E0A9FF1DACD228E8AAB","06d9a0f0-701c-468d-bc2c-feaf34eca82e","23db58b9-63b0-4bce-8714-07ce439e665e","","null","<div style=""display: flex; justify-content: center; align-items: center;"">
                <img src=""images/other/blank.jpg"" style=""width: 300px; height: 300px;"" />
              </div>","null",""
"","","","","","html-keyboard-response","11","43645","0.0-9.0","8859232175A94E0A9FF1DACD228E8AAB","06d9a0f0-701c-468d-bc2c-feaf34eca82e","23db58b9-63b0-4bce-8714-07ce439e665e","","null","<div style=""display: flex; justify-content: center; align-items: center;"">
                <img src=""images/causal/causal_series_6/causal_series_6_a.jpg"" style=""width: 300px; height: 300px;"" />
              </div>","null",""
"","","","","","html-button-response","12","46805","0.0-10.0","8859232175A94E0A9FF1DACD228E8AAB","06d9a0f0-701c-468d-bc2c-feaf34eca82e","23db58b9-63b0-4bce-8714-07ce439e665e","","3158","
    <div style=""display: flex; justify-content: center; align-items: center;"">
      <img src=""images/red_deck_2.png"" style=""width: 300px; height: 300px; margin-right: 10px;"" />
      <img src=""images/blue_deck_1.png"" style=""width: 300px; height: 300px;"" />
    </div>","0","0"
"","","","","","html-keyboard-response","13","49810","0.0-11.0-0.0-0.0","8859232175A94E0A9FF1DACD228E8AAB","06d9a0f0-701c-468d-bc2c-feaf34eca82e","23db58b9-63b0-4bce-8714-07ce439e665e","","null","<div style=""display: flex; justify-content: center; align-items: center;"">
                <img src=""images/causal/causal_series_6/causal_series_6_b.jpg"" style=""width: 300px; height: 300px;"" />
              </div>","null",""
"","","","","","html-keyboard-response","14","52817","0.0-11.0-0.0-1.0","8859232175A94E0A9FF1DACD228E8AAB","06d9a0f0-701c-468d-bc2c-feaf34eca82e","23db58b9-63b0-4bce-8714-07ce439e665e","","null","<div style=""display: flex; justify-content: center; align-items: center;"">
                <img src=""images/causal/causal_series_6/causal_series_6_c.jpg"" style=""width: 300px; height: 300px;"" />
              </div>","null",""
"","","","","","html-keyboard-response","15","55822","0.0-11.0-0.0-2.0","8859232175A94E0A9FF1DACD228E8AAB","06d9a0f0-701c-468d-bc2c-feaf34eca82e","23db58b9-63b0-4bce-8714-07ce439e665e","","null","<div style=""display: flex; justify-content: center; align-items: center;"">
                <img src=""images/causal/causal_series_6/causal_series_6_d.jpg"" style=""width: 300px; height: 300px;"" />
              </div>","null",""
"","","","","","html-keyboard-response","16","58827","0.0-12.0","8859232175A94E0A9FF1DACD228E8AAB","06d9a0f0-701c-468d-bc2c-feaf34eca82e","23db58b9-63b0-4bce-8714-07ce439e665e","","null","<div style=""display: flex; justify-content: center; align-items: center;"">
                <img src=""images/other/blank.jpg"" style=""width: 300px; height: 300px;"" />
              </div>","null",""
"","","","","","html-keyboard-response","17","61833","0.0-13.0","8859232175A94E0A9FF1DACD228E8AAB","06d9a0f0-701c-468d-bc2c-feaf34eca82e","23db58b9-63b0-4bce-8714-07ce439e665e","","null","<div style=""display: flex; justify-content: center; align-items: center;"">
                <img src=""images/causal/causal_series_18/causal_series_18_a.jpg"" style=""width: 300px; height: 300px;"" />
              </div>","null",""
"","","","","","html-button-response","18","63657","0.0-14.0","8859232175A94E0A9FF1DACD228E8AAB","06d9a0f0-701c-468d-bc2c-feaf34eca82e","23db58b9-63b0-4bce-8714-07ce439e665e","","1822","
    <div style=""display: flex; justify-content: center; align-items: center;"">
      <img src=""images/red_deck_2.png"" style=""width: 300px; height: 300px; margin-right: 10px;"" />
      <img src=""images/blue_deck_1.png"" style=""width: 300px; height: 300px;"" />
    </div>","0","0"
"","","","","","html-keyboard-response","19","66837","0.0-15.0-0.0-0.0","8859232175A94E0A9FF1DACD228E8AAB","06d9a0f0-701c-468d-bc2c-feaf34eca82e","23db58b9-63b0-4bce-8714-07ce439e665e","","null","<div style=""display: flex; justify-content: center; align-items: center;"">
                <img src=""images/causal/causal_series_18/causal_series_18_b.jpg"" style=""width: 300px; height: 300px;"" />
              </div>","null",""
"","","","","","html-keyboard-response","20","69840","0.0-15.0-0.0-1.0","8859232175A94E0A9FF1DACD228E8AAB","06d9a0f0-701c-468d-bc2c-feaf34eca82e","23db58b9-63b0-4bce-8714-07ce439e665e","","null","<div style=""display: flex; justify-content: center; align-items: center;"">
                <img src=""images/causal/causal_series_18/causal_series_18_c.jpg"" style=""width: 300px; height: 300px;"" />
              </div>","null",""
"","","","","","html-keyboard-response","21","72844","0.0-15.0-0.0-2.0","8859232175A94E0A9FF1DACD228E8AAB","06d9a0f0-701c-468d-bc2c-feaf34eca82e","23db58b9-63b0-4bce-8714-07ce439e665e","","null","<div style=""display: flex; justify-content: center; align-items: center;"">
                <img src=""images/causal/causal_series_18/causal_series_18_d.jpg"" style=""width: 300px; height: 300px;"" />
              </div>","null",""
"","","","","","html-keyboard-response","22","75850","0.0-16.0","8859232175A94E0A9FF1DACD228E8AAB","06d9a0f0-701c-468d-bc2c-feaf34eca82e","23db58b9-63b0-4bce-8714-07ce439e665e","","null","<div style=""display: flex; justify-content: center; align-items: center;"">
                <img src=""images/other/blank.jpg"" style=""width: 300px; height: 300px;"" />
              </div>","null",""
"","","","","","html-keyboard-response","23","78856","0.0-17.0","8859232175A94E0A9FF1DACD228E8AAB","06d9a0f0-701c-468d-bc2c-feaf34eca82e","23db58b9-63b0-4bce-8714-07ce439e665e","","null","<div style=""display: flex; justify-content: center; align-items: center;"">
                <img src=""images/causal/causal_series_5/causal_series_5_a.jpg"" style=""width: 300px; height: 300px;"" />
              </div>","null",""
"","","","","","html-button-response","24","80721","0.0-18.0","8859232175A94E0A9FF1DACD228E8AAB","06d9a0f0-701c-468d-bc2c-feaf34eca82e","23db58b9-63b0-4bce-8714-07ce439e665e","","1863","
    <div style=""display: flex; justify-content: center; align-items: center;"">
      <img src=""images/red_deck_2.png"" style=""width: 300px; height: 300px; margin-right: 10px;"" />
      <img src=""images/blue_deck_1.png"" style=""width: 300px; height: 300px;"" />
    </div>","1","1"
"","","","","","html-keyboard-response","25","83726","0.0-19.0-1.0-0.0","8859232175A94E0A9FF1DACD228E8AAB","06d9a0f0-701c-468d-bc2c-feaf34eca82e","23db58b9-63b0-4bce-8714-07ce439e665e","","null","<div style=""display: flex; justify-content: center; align-items: center;"">
                <img src=""images/semantic/semantic_series_12/semantic_series_12_d.jpg"" style=""width: 300px; height: 300px;"" />
              </div>","null",""
"","","","","","html-keyboard-response","26","87079","0.0-19.0-1.0-1.0","8859232175A94E0A9FF1DACD228E8AAB","06d9a0f0-701c-468d-bc2c-feaf34eca82e","23db58b9-63b0-4bce-8714-07ce439e665e","","null","<div style=""display: flex; justify-content: center; align-items: center;"">
                <img src=""images/semantic/semantic_series_13/semantic_series_13_d.jpg"" style=""width: 300px; height: 300px;"" />
              </div>","null",""
"","","","","","html-keyboard-response","27","90083","0.0-19.0-1.0-2.0","8859232175A94E0A9FF1DACD228E8AAB","06d9a0f0-701c-468d-bc2c-feaf34eca82e","23db58b9-63b0-4bce-8714-07ce439e665e","","null","<div style=""display: flex; justify-content: center; align-items: center;"">
                <img src=""images/semantic/semantic_series_14/semantic_series_14_d.jpg"" style=""width: 300px; height: 300px;"" />
              </div>","null",""
"","","","","","html-keyboard-response","28","93089","0.0-20.0","8859232175A94E0A9FF1DACD228E8AAB","06d9a0f0-701c-468d-bc2c-feaf34eca82e","23db58b9-63b0-4bce-8714-07ce439e665e","","null","<div style=""display: flex; justify-content: center; align-items: center;"">
                <img src=""images/other/blank.jpg"" style=""width: 300px; height: 300px;"" />
              </div>","null",""
"","","","","","html-keyboard-response","29","96095","0.0-21.0","8859232175A94E0A9FF1DACD228E8AAB","06d9a0f0-701c-468d-bc2c-feaf34eca82e","23db58b9-63b0-4bce-8714-07ce439e665e","","null","<div style=""display: flex; justify-content: center; align-items: center;"">
                <img src=""images/causal/causal_series_1/causal_series_1_a.jpg"" style=""width: 300px; height: 300px;"" />
              </div>","null",""
"","","","","","html-button-response","30","98681","0.0-22.0","8859232175A94E0A9FF1DACD228E8AAB","06d9a0f0-701c-468d-bc2c-feaf34eca82e","23db58b9-63b0-4bce-8714-07ce439e665e","","2585","
    <div style=""display: flex; justify-content: center; align-items: center;"">
      <img src=""images/red_deck_2.png"" style=""width: 300px; height: 300px; margin-right: 10px;"" />
      <img src=""images/blue_deck_1.png"" style=""width: 300px; height: 300px;"" />
    </div>","1","1"
"","","","","","html-keyboard-response","31","101688","0.0-23.0-1.0-0.0","8859232175A94E0A9FF1DACD228E8AAB","06d9a0f0-701c-468d-bc2c-feaf34eca82e","23db58b9-63b0-4bce-8714-07ce439e665e","","null","<div style=""display: flex; justify-content: center; align-items: center;"">
                <img src=""images/semantic/semantic_series_18/semantic_series_18_d.jpg"" style=""width: 300px; height: 300px;"" />
              </div>","null",""
"","","","","","html-keyboard-response","32","104693","0.0-23.0-1.0-1.0","8859232175A94E0A9FF1DACD228E8AAB","06d9a0f0-701c-468d-bc2c-feaf34eca82e","23db58b9-63b0-4bce-8714-07ce439e665e","","null","<div style=""display: flex; justify-content: center; align-items: center;"">
                <img src=""images/semantic/semantic_series_1/semantic_series_1_d.jpg"" style=""width: 300px; height: 300px;"" />
              </div>","null",""
"","","","","","html-keyboard-response","33","107699","0.0-23.0-1.0-2.0","8859232175A94E0A9FF1DACD228E8AAB","06d9a0f0-701c-468d-bc2c-feaf34eca82e","23db58b9-63b0-4bce-8714-07ce439e665e","","null","<div style=""display: flex; justify-content: center; align-items: center;"">
                <img src=""images/semantic/semantic_series_2/semantic_series_2_d.jpg"" style=""width: 300px; height: 300px;"" />
              </div>","null",""
"","","","","","html-keyboard-response","34","110705","0.0-24.0","8859232175A94E0A9FF1DACD228E8AAB","06d9a0f0-701c-468d-bc2c-feaf34eca82e","23db58b9-63b0-4bce-8714-07ce439e665e","","null","<div style=""display: flex; justify-content: center; align-items: center;"">
                <img src=""images/other/blank.jpg"" style=""width: 300px; height: 300px;"" />
              </div>","null",""
"","","","","","html-keyboard-response","35","113710","0.0-25.0","8859232175A94E0A9FF1DACD228E8AAB","06d9a0f0-701c-468d-bc2c-feaf34eca82e","23db58b9-63b0-4bce-8714-07ce439e665e","","null","<div style=""display: flex; justify-content: center; align-items: center;"">
                <img src=""images/causal/causal_series_9/causal_series_9_a.jpg"" style=""width: 300px; height: 300px;"" />
              </div>","null",""
"","","","","","html-button-response","36","115797","0.0-26.0","8859232175A94E0A9FF1DACD228E8AAB","06d9a0f0-701c-468d-bc2c-feaf34eca82e","23db58b9-63b0-4bce-8714-07ce439e665e","","2086","
    <div style=""display: flex; justify-content: center; align-items: center;"">
      <img src=""images/red_deck_2.png"" style=""width: 300px; height: 300px; margin-right: 10px;"" />
      <img src=""images/blue_deck_1.png"" style=""width: 300px; height: 300px;"" />
    </div>","0","0"
"","","","","","html-keyboard-response","37","118798","0.0-27.0-0.0-0.0","8859232175A94E0A9FF1DACD228E8AAB","06d9a0f0-701c-468d-bc2c-feaf34eca82e","23db58b9-63b0-4bce-8714-07ce439e665e","","null","<div style=""display: flex; justify-content: center; align-items: center;"">
                <img src=""images/causal/causal_series_9/causal_series_9_b.jpg"" style=""width: 300px; height: 300px;"" />
              </div>","null",""
"","","","","","html-keyboard-response","38","121802","0.0-27.0-0.0-1.0","8859232175A94E0A9FF1DACD228E8AAB","06d9a0f0-701c-468d-bc2c-feaf34eca82e","23db58b9-63b0-4bce-8714-07ce439e665e","","null","<div style=""display: flex; justify-content: center; align-items: center;"">
                <img src=""images/causal/causal_series_9/causal_series_9_c.jpg"" style=""width: 300px; height: 300px;"" />
              </div>","null",""
"","","","","","html-keyboard-response","39","124807","0.0-27.0-0.0-2.0","8859232175A94E0A9FF1DACD228E8AAB","06d9a0f0-701c-468d-bc2c-feaf34eca82e","23db58b9-63b0-4bce-8714-07ce439e665e","","null","<div style=""display: flex; justify-content: center; align-items: center;"">
                <img src=""images/causal/causal_series_9/causal_series_9_d.jpg"" style=""width: 300px; height: 300px;"" />
              </div>","null",""
"","","","","","html-keyboard-response","40","127812","0.0-28.0","8859232175A94E0A9FF1DACD228E8AAB","06d9a0f0-701c-468d-bc2c-feaf34eca82e","23db58b9-63b0-4bce-8714-07ce439e665e","","null","<div style=""display: flex; justify-content: center; align-items: center;"">
                <img src=""images/other/blank.jpg"" style=""width: 300px; height: 300px;"" />
              </div>","null",""
"","","","","","html-keyboard-response","41","130818","0.0-29.0","8859232175A94E0A9FF1DACD228E8AAB","06d9a0f0-701c-468d-bc2c-feaf34eca82e","23db58b9-63b0-4bce-8714-07ce439e665e","","null","<div style=""display: flex; justify-content: center; align-items: center;"">
                <img src=""images/causal/causal_series_4/causal_series_4_a.jpg"" style=""width: 300px; height: 300px;"" />
              </div>","null",""
"","","","","","html-button-response","42","133053","0.0-30.0","8859232175A94E0A9FF1DACD228E8AAB","06d9a0f0-701c-468d-bc2c-feaf34eca82e","23db58b9-63b0-4bce-8714-07ce439e665e","","2233","
    <div style=""display: flex; justify-content: center; align-items: center;"">
      <img src=""images/red_deck_2.png"" style=""width: 300px; height: 300px; margin-right: 10px;"" />
      <img src=""images/blue_deck_1.png"" style=""width: 300px; height: 300px;"" />
    </div>","1","1"
"","","","","","html-keyboard-response","43","136058","0.0-31.0-1.0-0.0","8859232175A94E0A9FF1DACD228E8AAB","06d9a0f0-701c-468d-bc2c-feaf34eca82e","23db58b9-63b0-4bce-8714-07ce439e665e","","null","<div style=""display: flex; justify-content: center; align-items: center;"">
                <img src=""images/semantic/semantic_series_9/semantic_series_9_d.jpg"" style=""width: 300px; height: 300px;"" />
              </div>","null",""
"","","","","","html-keyboard-response","44","139063","0.0-31.0-1.0-1.0","8859232175A94E0A9FF1DACD228E8AAB","06d9a0f0-701c-468d-bc2c-feaf34eca82e","23db58b9-63b0-4bce-8714-07ce439e665e","","null","<div style=""display: flex; justify-content: center; align-items: center;"">
                <img src=""images/semantic/semantic_series_10/semantic_series_10_d.jpg"" style=""width: 300px; height: 300px;"" />
              </div>","null",""
"","","","","","html-keyboard-response","45","142066","0.0-31.0-1.0-2.0","8859232175A94E0A9FF1DACD228E8AAB","06d9a0f0-701c-468d-bc2c-feaf34eca82e","23db58b9-63b0-4bce-8714-07ce439e665e","","null","<div style=""display: flex; justify-content: center; align-items: center;"">
                <img src=""images/semantic/semantic_series_11/semantic_series_11_d.jpg"" style=""width: 300px; height: 300px;"" />
              </div>","null",""
"","","","","","html-keyboard-response","46","145070","0.0-32.0","8859232175A94E0A9FF1DACD228E8AAB","06d9a0f0-701c-468d-bc2c-feaf34eca82e","23db58b9-63b0-4bce-8714-07ce439e665e","","null","<div style=""display: flex; justify-content: center; align-items: center;"">
                <img src=""images/other/blank.jpg"" style=""width: 300px; height: 300px;"" />
              </div>","null",""
"","","","","","html-keyboard-response","47","148296","0.0-33.0","8859232175A94E0A9FF1DACD228E8AAB","06d9a0f0-701c-468d-bc2c-feaf34eca82e","23db58b9-63b0-4bce-8714-07ce439e665e","","null","<div style=""display: flex; justify-content: center; align-items: center;"">
                <img src=""images/causal/causal_series_12/causal_series_12_a.jpg"" style=""width: 300px; height: 300px;"" />
              </div>","null",""
"","","","","","html-button-response","48","149629","0.0-34.0","8859232175A94E0A9FF1DACD228E8AAB","06d9a0f0-701c-468d-bc2c-feaf34eca82e","23db58b9-63b0-4bce-8714-07ce439e665e","","1331","
    <div style=""display: flex; justify-content: center; align-items: center;"">
      <img src=""images/red_deck_2.png"" style=""width: 300px; height: 300px; margin-right: 10px;"" />
      <img src=""images/blue_deck_1.png"" style=""width: 300px; height: 300px;"" />
    </div>","0","0"
"","","","","","html-keyboard-response","49","152634","0.0-35.0-0.0-0.0","8859232175A94E0A9FF1DACD228E8AAB","06d9a0f0-701c-468d-bc2c-feaf34eca82e","23db58b9-63b0-4bce-8714-07ce439e665e","","null","<div style=""display: flex; justify-content: center; align-items: center;"">
                <img src=""images/causal/causal_series_12/causal_series_12_b.jpg"" style=""width: 300px; height: 300px;"" />
              </div>","null",""
"","","","","","html-keyboard-response","50","155640","0.0-35.0-0.0-1.0","8859232175A94E0A9FF1DACD228E8AAB","06d9a0f0-701c-468d-bc2c-feaf34eca82e","23db58b9-63b0-4bce-8714-07ce439e665e","","null","<div style=""display: flex; justify-content: center; align-items: center;"">
                <img src=""images/causal/causal_series_12/causal_series_12_c.jpg"" style=""width: 300px; height: 300px;"" />
              </div>","null",""
"","","","","","html-keyboard-response","51","158646","0.0-35.0-0.0-2.0","8859232175A94E0A9FF1DACD228E8AAB","06d9a0f0-701c-468d-bc2c-feaf34eca82e","23db58b9-63b0-4bce-8714-07ce439e665e","","null","<div style=""display: flex; justify-content: center; align-items: center;"">
                <img src=""images/causal/causal_series_12/causal_series_12_d.jpg"" style=""width: 300px; height: 300px;"" />
              </div>","null",""
"","","","","","html-keyboard-response","52","161712","0.0-36.0","8859232175A94E0A9FF1DACD228E8AAB","06d9a0f0-701c-468d-bc2c-feaf34eca82e","23db58b9-63b0-4bce-8714-07ce439e665e","","null","<div style=""display: flex; justify-content: center; align-items: center;"">
                <img src=""images/other/blank.jpg"" style=""width: 300px; height: 300px;"" />
              </div>","null",""
"","","","","","html-keyboard-response","53","164722","0.0-37.0","8859232175A94E0A9FF1DACD228E8AAB","06d9a0f0-701c-468d-bc2c-feaf34eca82e","23db58b9-63b0-4bce-8714-07ce439e665e","","null","<div style=""display: flex; justify-content: center; align-items: center;"">
                <img src=""images/causal/causal_series_15/causal_series_15_a.jpg"" style=""width: 300px; height: 300px;"" />
              </div>","null",""
"","","","","","html-button-response","54","166192","0.0-38.0","8859232175A94E0A9FF1DACD228E8AAB","06d9a0f0-701c-468d-bc2c-feaf34eca82e","23db58b9-63b0-4bce-8714-07ce439e665e","","1468","
    <div style=""display: flex; justify-content: center; align-items: center;"">
      <img src=""images/red_deck_2.png"" style=""width: 300px; height: 300px; margin-right: 10px;"" />
      <img src=""images/blue_deck_1.png"" style=""width: 300px; height: 300px;"" />
    </div>","0","0"
"","","","","","html-keyboard-response","55","169196","0.0-39.0-0.0-0.0","8859232175A94E0A9FF1DACD228E8AAB","06d9a0f0-701c-468d-bc2c-feaf34eca82e","23db58b9-63b0-4bce-8714-07ce439e665e","","null","<div style=""display: flex; justify-content: center; align-items: center;"">
                <img src=""images/causal/causal_series_15/causal_series_15_b.jpg"" style=""width: 300px; height: 300px;"" />
              </div>","null",""
"","","","","","html-keyboard-response","56","172201","0.0-39.0-0.0-1.0","8859232175A94E0A9FF1DACD228E8AAB","06d9a0f0-701c-468d-bc2c-feaf34eca82e","23db58b9-63b0-4bce-8714-07ce439e665e","","null","<div style=""display: flex; justify-content: center; align-items: center;"">
                <img src=""images/causal/causal_series_15/causal_series_15_c.jpg"" style=""width: 300px; height: 300px;"" />
              </div>","null",""
"","","","","","html-keyboard-response","57","175205","0.0-39.0-0.0-2.0","8859232175A94E0A9FF1DACD228E8AAB","06d9a0f0-701c-468d-bc2c-feaf34eca82e","23db58b9-63b0-4bce-8714-07ce439e665e","","null","<div style=""display: flex; justify-content: center; align-items: center;"">
                <img src=""images/causal/causal_series_15/causal_series_15_d.jpg"" style=""width: 300px; height: 300px;"" />
              </div>","null",""
"","","","","","html-keyboard-response","58","178209","0.0-40.0","8859232175A94E0A9FF1DACD228E8AAB","06d9a0f0-701c-468d-bc2c-feaf34eca82e","23db58b9-63b0-4bce-8714-07ce439e665e","","null","<div style=""display: flex; justify-content: center; align-items: center;"">
                <img src=""images/other/blank.jpg"" style=""width: 300px; height: 300px;"" />
              </div>","null",""
"","","","","","html-keyboard-response","59","181219","0.0-41.0","8859232175A94E0A9FF1DACD228E8AAB","06d9a0f0-701c-468d-bc2c-feaf34eca82e","23db58b9-63b0-4bce-8714-07ce439e665e","","null","<div style=""display: flex; justify-content: center; align-items: center;"">
                <img src=""images/causal/causal_series_10/causal_series_10_a.jpg"" style=""width: 300px; height: 300px;"" />
              </div>","null",""
"","","","","","html-button-response","60","182236","0.0-42.0","8859232175A94E0A9FF1DACD228E8AAB","06d9a0f0-701c-468d-bc2c-feaf34eca82e","23db58b9-63b0-4bce-8714-07ce439e665e","","1017","
    <div style=""display: flex; justify-content: center; align-items: center;"">
      <img src=""images/red_deck_2.png"" style=""width: 300px; height: 300px; margin-right: 10px;"" />
      <img src=""images/blue_deck_1.png"" style=""width: 300px; height: 300px;"" />
    </div>","1","1"
"","","","","","html-keyboard-response","61","185471","0.0-43.0-1.0-0.0","8859232175A94E0A9FF1DACD228E8AAB","06d9a0f0-701c-468d-bc2c-feaf34eca82e","23db58b9-63b0-4bce-8714-07ce439e665e","","null","<div style=""display: flex; justify-content: center; align-items: center;"">
                <img src=""images/semantic/semantic_series_9/semantic_series_9_d.jpg"" style=""width: 300px; height: 300px;"" />
              </div>","null",""
"","","","","","html-keyboard-response","62","188477","0.0-43.0-1.0-1.0","8859232175A94E0A9FF1DACD228E8AAB","06d9a0f0-701c-468d-bc2c-feaf34eca82e","23db58b9-63b0-4bce-8714-07ce439e665e","","null","<div style=""display: flex; justify-content: center; align-items: center;"">
                <img src=""images/semantic/semantic_series_10/semantic_series_10_d.jpg"" style=""width: 300px; height: 300px;"" />
              </div>","null",""
"","","","","","html-keyboard-response","63","191482","0.0-43.0-1.0-2.0","8859232175A94E0A9FF1DACD228E8AAB","06d9a0f0-701c-468d-bc2c-feaf34eca82e","23db58b9-63b0-4bce-8714-07ce439e665e","","null","<div style=""display: flex; justify-content: center; align-items: center;"">
                <img src=""images/semantic/semantic_series_11/semantic_series_11_d.jpg"" style=""width: 300px; height: 300px;"" />
              </div>","null",""
"","","","","","html-keyboard-response","64","194483","0.0-44.0","8859232175A94E0A9FF1DACD228E8AAB","06d9a0f0-701c-468d-bc2c-feaf34eca82e","23db58b9-63b0-4bce-8714-07ce439e665e","","null","<div style=""display: flex; justify-content: center; align-items: center;"">
                <img src=""images/other/blank.jpg"" style=""width: 300px; height: 300px;"" />
              </div>","null",""
"","","","","","html-keyboard-response","65","197487","0.0-45.0","8859232175A94E0A9FF1DACD228E8AAB","06d9a0f0-701c-468d-bc2c-feaf34eca82e","23db58b9-63b0-4bce-8714-07ce439e665e","","null","<div style=""display: flex; justify-content: center; align-items: center;"">
                <img src=""images/causal/causal_series_8/causal_series_8_a.jpg"" style=""width: 300px; height: 300px;"" />
              </div>","null",""
"","","","","","html-button-response","66","198543","0.0-46.0","8859232175A94E0A9FF1DACD228E8AAB","06d9a0f0-701c-468d-bc2c-feaf34eca82e","23db58b9-63b0-4bce-8714-07ce439e665e","","1054","
    <div style=""display: flex; justify-content: center; align-items: center;"">
      <img src=""images/red_deck_2.png"" style=""width: 300px; height: 300px; margin-right: 10px;"" />
      <img src=""images/blue_deck_1.png"" style=""width: 300px; height: 300px;"" />
    </div>","0","0"
"","","","","","html-keyboard-response","67","201549","0.0-47.0-0.0-0.0","8859232175A94E0A9FF1DACD228E8AAB","06d9a0f0-701c-468d-bc2c-feaf34eca82e","23db58b9-63b0-4bce-8714-07ce439e665e","","null","<div style=""display: flex; justify-content: center; align-items: center;"">
                <img src=""images/causal/causal_series_8/causal_series_8_b.jpg"" style=""width: 300px; height: 300px;"" />
              </div>","null",""
"","","","","","html-keyboard-response","68","204555","0.0-47.0-0.0-1.0","8859232175A94E0A9FF1DACD228E8AAB","06d9a0f0-701c-468d-bc2c-feaf34eca82e","23db58b9-63b0-4bce-8714-07ce439e665e","","null","<div style=""display: flex; justify-content: center; align-items: center;"">
                <img src=""images/causal/causal_series_8/causal_series_8_c.jpg"" style=""width: 300px; height: 300px;"" />
              </div>","null",""
"","","","","","html-keyboard-response","69","207560","0.0-47.0-0.0-2.0","8859232175A94E0A9FF1DACD228E8AAB","06d9a0f0-701c-468d-bc2c-feaf34eca82e","23db58b9-63b0-4bce-8714-07ce439e665e","","null","<div style=""display: flex; justify-content: center; align-items: center;"">
                <img src=""images/causal/causal_series_8/causal_series_8_d.jpg"" style=""width: 300px; height: 300px;"" />
              </div>","null",""
"","","","","","html-keyboard-response","70","210567","0.0-48.0","8859232175A94E0A9FF1DACD228E8AAB","06d9a0f0-701c-468d-bc2c-feaf34eca82e","23db58b9-63b0-4bce-8714-07ce439e665e","","null","<div style=""display: flex; justify-content: center; align-items: center;"">
                <img src=""images/other/blank.jpg"" style=""width: 300px; height: 300px;"" />
              </div>","null",""
"","","","","","html-keyboard-response","71","213572","0.0-49.0","8859232175A94E0A9FF1DACD228E8AAB","06d9a0f0-701c-468d-bc2c-feaf34eca82e","23db58b9-63b0-4bce-8714-07ce439e665e","","null","<div style=""display: flex; justify-content: center; align-items: center;"">
                <img src=""images/causal/causal_series_3/causal_series_3_a.jpg"" style=""width: 300px; height: 300px;"" />
              </div>","null",""
"","","","","","html-button-response","72","215222","0.0-50.0","8859232175A94E0A9FF1DACD228E8AAB","06d9a0f0-701c-468d-bc2c-feaf34eca82e","23db58b9-63b0-4bce-8714-07ce439e665e","","1649","
    <div style=""display: flex; justify-content: center; align-items: center;"">
      <img src=""images/red_deck_2.png"" style=""width: 300px; height: 300px; margin-right: 10px;"" />
      <img src=""images/blue_deck_1.png"" style=""width: 300px; height: 300px;"" />
    </div>","1","1"
"","","","","","html-keyboard-response","73","218227","0.0-51.0-1.0-0.0","8859232175A94E0A9FF1DACD228E8AAB","06d9a0f0-701c-468d-bc2c-feaf34eca82e","23db58b9-63b0-4bce-8714-07ce439e665e","","null","<div style=""display: flex; justify-content: center; align-items: center;"">
                <img src=""images/semantic/semantic_series_6/semantic_series_6_d.jpg"" style=""width: 300px; height: 300px;"" />
              </div>","null",""
"","","","","","html-keyboard-response","74","221229","0.0-51.0-1.0-1.0","8859232175A94E0A9FF1DACD228E8AAB","06d9a0f0-701c-468d-bc2c-feaf34eca82e","23db58b9-63b0-4bce-8714-07ce439e665e","","null","<div style=""display: flex; justify-content: center; align-items: center;"">
                <img src=""images/semantic/semantic_series_7/semantic_series_7_d.jpg"" style=""width: 300px; height: 300px;"" />
              </div>","null",""
"","","","","","html-keyboard-response","75","224578","0.0-51.0-1.0-2.0","8859232175A94E0A9FF1DACD228E8AAB","06d9a0f0-701c-468d-bc2c-feaf34eca82e","23db58b9-63b0-4bce-8714-07ce439e665e","","null","<div style=""display: flex; justify-content: center; align-items: center;"">
                <img src=""images/semantic/semantic_series_8/semantic_series_8_d.jpg"" style=""width: 300px; height: 300px;"" />
              </div>","null",""
"","","","","","html-keyboard-response","76","227580","0.0-52.0","8859232175A94E0A9FF1DACD228E8AAB","06d9a0f0-701c-468d-bc2c-feaf34eca82e","23db58b9-63b0-4bce-8714-07ce439e665e","","null","<div style=""display: flex; justify-content: center; align-items: center;"">
                <img src=""images/other/blank.jpg"" style=""width: 300px; height: 300px;"" />
              </div>","null",""
"","","","","","html-keyboard-response","77","230879","0.0-53.0","8859232175A94E0A9FF1DACD228E8AAB","06d9a0f0-701c-468d-bc2c-feaf34eca82e","23db58b9-63b0-4bce-8714-07ce439e665e","","null","<div style=""display: flex; justify-content: center; align-items: center;"">
                <img src=""images/causal/causal_series_11/causal_series_11_a.jpg"" style=""width: 300px; height: 300px;"" />
              </div>","null",""
"","","","","","html-button-response","78","231902","0.0-54.0","8859232175A94E0A9FF1DACD228E8AAB","06d9a0f0-701c-468d-bc2c-feaf34eca82e","23db58b9-63b0-4bce-8714-07ce439e665e","","1022","
    <div style=""display: flex; justify-content: center; align-items: center;"">
      <img src=""images/red_deck_2.png"" style=""width: 300px; height: 300px; margin-right: 10px;"" />
      <img src=""images/blue_deck_1.png"" style=""width: 300px; height: 300px;"" />
    </div>","1","1"
"","","","","","html-keyboard-response","79","235233","0.0-55.0-1.0-0.0","8859232175A94E0A9FF1DACD228E8AAB","06d9a0f0-701c-468d-bc2c-feaf34eca82e","23db58b9-63b0-4bce-8714-07ce439e665e","","null","<div style=""display: flex; justify-content: center; align-items: center;"">
                <img src=""images/semantic/semantic_series_12/semantic_series_12_d.jpg"" style=""width: 300px; height: 300px;"" />
              </div>","null",""
"","","","","","html-keyboard-response","80","238233","0.0-55.0-1.0-1.0","8859232175A94E0A9FF1DACD228E8AAB","06d9a0f0-701c-468d-bc2c-feaf34eca82e","23db58b9-63b0-4bce-8714-07ce439e665e","","null","<div style=""display: flex; justify-content: center; align-items: center;"">
                <img src=""images/semantic/semantic_series_13/semantic_series_13_d.jpg"" style=""width: 300px; height: 300px;"" />
              </div>","null",""
"","","","","","html-keyboard-response","81","241239","0.0-55.0-1.0-2.0","8859232175A94E0A9FF1DACD228E8AAB","06d9a0f0-701c-468d-bc2c-feaf34eca82e","23db58b9-63b0-4bce-8714-07ce439e665e","","null","<div style=""display: flex; justify-content: center; align-items: center;"">
                <img src=""images/semantic/semantic_series_14/semantic_series_14_d.jpg"" style=""width: 300px; height: 300px;"" />
              </div>","null",""
"","","","","","html-keyboard-response","82","244249","0.0-56.0","8859232175A94E0A9FF1DACD228E8AAB","06d9a0f0-701c-468d-bc2c-feaf34eca82e","23db58b9-63b0-4bce-8714-07ce439e665e","","null","<div style=""display: flex; justify-content: center; align-items: center;"">
                <img src=""images/other/blank.jpg"" style=""width: 300px; height: 300px;"" />
              </div>","null",""
"","","","","","html-keyboard-response","83","247253","0.0-57.0","8859232175A94E0A9FF1DACD228E8AAB","06d9a0f0-701c-468d-bc2c-feaf34eca82e","23db58b9-63b0-4bce-8714-07ce439e665e","","null","<div style=""display: flex; justify-content: center; align-items: center;"">
                <img src=""images/causal/causal_series_16/causal_series_16_a.jpg"" style=""width: 300px; height: 300px;"" />
              </div>","null",""
"","","","","","html-button-response","84","248402","0.0-58.0","8859232175A94E0A9FF1DACD228E8AAB","06d9a0f0-701c-468d-bc2c-feaf34eca82e","23db58b9-63b0-4bce-8714-07ce439e665e","","1148","
    <div style=""display: flex; justify-content: center; align-items: center;"">
      <img src=""images/red_deck_2.png"" style=""width: 300px; height: 300px; margin-right: 10px;"" />
      <img src=""images/blue_deck_1.png"" style=""width: 300px; height: 300px;"" />
    </div>","0","0"
"","","","","","html-keyboard-response","85","251408","0.0-59.0-0.0-0.0","8859232175A94E0A9FF1DACD228E8AAB","06d9a0f0-701c-468d-bc2c-feaf34eca82e","23db58b9-63b0-4bce-8714-07ce439e665e","","null","<div style=""display: flex; justify-content: center; align-items: center;"">
                <img src=""images/causal/causal_series_16/causal_series_16_b.jpg"" style=""width: 300px; height: 300px;"" />
              </div>","null",""
"","","","","","html-keyboard-response","86","254409","0.0-59.0-0.0-1.0","8859232175A94E0A9FF1DACD228E8AAB","06d9a0f0-701c-468d-bc2c-feaf34eca82e","23db58b9-63b0-4bce-8714-07ce439e665e","","null","<div style=""display: flex; justify-content: center; align-items: center;"">
                <img src=""images/causal/causal_series_16/causal_series_16_c.jpg"" style=""width: 300px; height: 300px;"" />
              </div>","null",""
"","","","","","html-keyboard-response","87","257409","0.0-59.0-0.0-2.0","8859232175A94E0A9FF1DACD228E8AAB","06d9a0f0-701c-468d-bc2c-feaf34eca82e","23db58b9-63b0-4bce-8714-07ce439e665e","","null","<div style=""display: flex; justify-content: center; align-items: center;"">
                <img src=""images/causal/causal_series_16/causal_series_16_d.jpg"" style=""width: 300px; height: 300px;"" />
              </div>","null",""
"","","","","","html-keyboard-response","88","260766","0.0-60.0","8859232175A94E0A9FF1DACD228E8AAB","06d9a0f0-701c-468d-bc2c-feaf34eca82e","23db58b9-63b0-4bce-8714-07ce439e665e","","null","<div style=""display: flex; justify-content: center; align-items: center;"">
                <img src=""images/other/blank.jpg"" style=""width: 300px; height: 300px;"" />
              </div>","null",""
"","","","","","html-keyboard-response","89","263767","0.0-61.0","8859232175A94E0A9FF1DACD228E8AAB","06d9a0f0-701c-468d-bc2c-feaf34eca82e","23db58b9-63b0-4bce-8714-07ce439e665e","","null","<div style=""display: flex; justify-content: center; align-items: center;"">
                <img src=""images/causal/causal_series_7/causal_series_7_a.jpg"" style=""width: 300px; height: 300px;"" />
              </div>","null",""
"","","","","","html-button-response","90","264735","0.0-62.0","8859232175A94E0A9FF1DACD228E8AAB","06d9a0f0-701c-468d-bc2c-feaf34eca82e","23db58b9-63b0-4bce-8714-07ce439e665e","","968","
    <div style=""display: flex; justify-content: center; align-items: center;"">
      <img src=""images/red_deck_2.png"" style=""width: 300px; height: 300px; margin-right: 10px;"" />
      <img src=""images/blue_deck_1.png"" style=""width: 300px; height: 300px;"" />
    </div>","0","0"
"","","","","","html-keyboard-response","91","267740","0.0-63.0-0.0-0.0","8859232175A94E0A9FF1DACD228E8AAB","06d9a0f0-701c-468d-bc2c-feaf34eca82e","23db58b9-63b0-4bce-8714-07ce439e665e","","null","<div style=""display: flex; justify-content: center; align-items: center;"">
                <img src=""images/causal/causal_series_7/causal_series_7_b.jpg"" style=""width: 300px; height: 300px;"" />
              </div>","null",""
"","","","","","html-keyboard-response","92","270774","0.0-63.0-0.0-1.0","8859232175A94E0A9FF1DACD228E8AAB","06d9a0f0-701c-468d-bc2c-feaf34eca82e","23db58b9-63b0-4bce-8714-07ce439e665e","","null","<div style=""display: flex; justify-content: center; align-items: center;"">
                <img src=""images/causal/causal_series_7/causal_series_7_c.jpg"" style=""width: 300px; height: 300px;"" />
              </div>","null",""
"","","","","","html-keyboard-response","93","273777","0.0-63.0-0.0-2.0","8859232175A94E0A9FF1DACD228E8AAB","06d9a0f0-701c-468d-bc2c-feaf34eca82e","23db58b9-63b0-4bce-8714-07ce439e665e","","null","<div style=""display: flex; justify-content: center; align-items: center;"">
                <img src=""images/causal/causal_series_7/causal_series_7_d.jpg"" style=""width: 300px; height: 300px;"" />
              </div>","null",""
"","","","","","html-keyboard-response","94","276782","0.0-64.0","8859232175A94E0A9FF1DACD228E8AAB","06d9a0f0-701c-468d-bc2c-feaf34eca82e","23db58b9-63b0-4bce-8714-07ce439e665e","","null","<div style=""display: flex; justify-content: center; align-items: center;"">
                <img src=""images/other/blank.jpg"" style=""width: 300px; height: 300px;"" />
              </div>","null",""
"","","","","","html-keyboard-response","95","279787","0.0-65.0","8859232175A94E0A9FF1DACD228E8AAB","06d9a0f0-701c-468d-bc2c-feaf34eca82e","23db58b9-63b0-4bce-8714-07ce439e665e","","null","<div style=""display: flex; justify-content: center; align-items: center;"">
                <img src=""images/causal/causal_series_13/causal_series_13_a.jpg"" style=""width: 300px; height: 300px;"" />
              </div>","null",""
"","","","","","html-button-response","96","280898","0.0-66.0","8859232175A94E0A9FF1DACD228E8AAB","06d9a0f0-701c-468d-bc2c-feaf34eca82e","23db58b9-63b0-4bce-8714-07ce439e665e","","1109","
    <div style=""display: flex; justify-content: center; align-items: center;"">
      <img src=""images/red_deck_2.png"" style=""width: 300px; height: 300px; margin-right: 10px;"" />
      <img src=""images/blue_deck_1.png"" style=""width: 300px; height: 300px;"" />
    </div>","0","0"
"","","","","","html-keyboard-response","97","283901","0.0-67.0-0.0-0.0","8859232175A94E0A9FF1DACD228E8AAB","06d9a0f0-701c-468d-bc2c-feaf34eca82e","23db58b9-63b0-4bce-8714-07ce439e665e","","null","<div style=""display: flex; justify-content: center; align-items: center;"">
                <img src=""images/causal/causal_series_13/causal_series_13_b.jpg"" style=""width: 300px; height: 300px;"" />
              </div>","null",""
"","","","","","html-keyboard-response","98","286907","0.0-67.0-0.0-1.0","8859232175A94E0A9FF1DACD228E8AAB","06d9a0f0-701c-468d-bc2c-feaf34eca82e","23db58b9-63b0-4bce-8714-07ce439e665e","","null","<div style=""display: flex; justify-content: center; align-items: center;"">
                <img src=""images/causal/causal_series_13/causal_series_13_c.jpg"" style=""width: 300px; height: 300px;"" />
              </div>","null",""
"","","","","","html-keyboard-response","99","289913","0.0-67.0-0.0-2.0","8859232175A94E0A9FF1DACD228E8AAB","06d9a0f0-701c-468d-bc2c-feaf34eca82e","23db58b9-63b0-4bce-8714-07ce439e665e","","null","<div style=""display: flex; justify-content: center; align-items: center;"">
                <img src=""images/causal/causal_series_13/causal_series_13_d.jpg"" style=""width: 300px; height: 300px;"" />
              </div>","null",""
"","","","","","html-keyboard-response","100","293109","0.0-68.0","8859232175A94E0A9FF1DACD228E8AAB","06d9a0f0-701c-468d-bc2c-feaf34eca82e","23db58b9-63b0-4bce-8714-07ce439e665e","","null","<div style=""display: flex; justify-content: center; align-items: center;"">
                <img src=""images/other/blank.jpg"" style=""width: 300px; height: 300px;"" />
              </div>","null",""
"","","","","","html-keyboard-response","101","296114","0.0-69.0","8859232175A94E0A9FF1DACD228E8AAB","06d9a0f0-701c-468d-bc2c-feaf34eca82e","23db58b9-63b0-4bce-8714-07ce439e665e","","null","<div style=""display: flex; justify-content: center; align-items: center;"">
                <img src=""images/causal/causal_series_14/causal_series_14_a.jpg"" style=""width: 300px; height: 300px;"" />
              </div>","null",""
"","","","","","html-button-response","102","297109","0.0-70.0","8859232175A94E0A9FF1DACD228E8AAB","06d9a0f0-701c-468d-bc2c-feaf34eca82e","23db58b9-63b0-4bce-8714-07ce439e665e","","994","
    <div style=""display: flex; justify-content: center; align-items: center;"">
      <img src=""images/red_deck_2.png"" style=""width: 300px; height: 300px; margin-right: 10px;"" />
      <img src=""images/blue_deck_1.png"" style=""width: 300px; height: 300px;"" />
    </div>","0","0"
"","","","","","html-keyboard-response","103","300114","0.0-71.0-0.0-0.0","8859232175A94E0A9FF1DACD228E8AAB","06d9a0f0-701c-468d-bc2c-feaf34eca82e","23db58b9-63b0-4bce-8714-07ce439e665e","","null","<div style=""display: flex; justify-content: center; align-items: center;"">
                <img src=""images/causal/causal_series_14/causal_series_14_b.jpg"" style=""width: 300px; height: 300px;"" />
              </div>","null",""
"","","","","","html-keyboard-response","104","303293","0.0-71.0-0.0-1.0","8859232175A94E0A9FF1DACD228E8AAB","06d9a0f0-701c-468d-bc2c-feaf34eca82e","23db58b9-63b0-4bce-8714-07ce439e665e","","null","<div style=""display: flex; justify-content: center; align-items: center;"">
                <img src=""images/causal/causal_series_14/causal_series_14_c.jpg"" style=""width: 300px; height: 300px;"" />
              </div>","null",""
"","","","","","html-keyboard-response","105","306299","0.0-71.0-0.0-2.0","8859232175A94E0A9FF1DACD228E8AAB","06d9a0f0-701c-468d-bc2c-feaf34eca82e","23db58b9-63b0-4bce-8714-07ce439e665e","","null","<div style=""display: flex; justify-content: center; align-items: center;"">
                <img src=""images/causal/causal_series_14/causal_series_14_d.jpg"" style=""width: 300px; height: 300px;"" />
              </div>","null",""
"","","","","","html-keyboard-response","106","309504","0.0-72.0","8859232175A94E0A9FF1DACD228E8AAB","06d9a0f0-701c-468d-bc2c-feaf34eca82e","23db58b9-63b0-4bce-8714-07ce439e665e","","null","<div style=""display: flex; justify-content: center; align-items: center;"">
                <img src=""images/other/blank.jpg"" style=""width: 300px; height: 300px;"" />
              </div>","null",""
"","","","","","html-keyboard-response","107","312733","0.0-73.0","8859232175A94E0A9FF1DACD228E8AAB","06d9a0f0-701c-468d-bc2c-feaf34eca82e","23db58b9-63b0-4bce-8714-07ce439e665e","","null","<div style=""display: flex; justify-content: center; align-items: center;"">
                <img src=""images/causal/causal_series_17/causal_series_17_a.jpg"" style=""width: 300px; height: 300px;"" />
              </div>","null",""
"","","","","","html-button-response","108","313645","0.0-74.0","8859232175A94E0A9FF1DACD228E8AAB","06d9a0f0-701c-468d-bc2c-feaf34eca82e","23db58b9-63b0-4bce-8714-07ce439e665e","","911","
    <div style=""display: flex; justify-content: center; align-items: center;"">
      <img src=""images/red_deck_2.png"" style=""width: 300px; height: 300px; margin-right: 10px;"" />
      <img src=""images/blue_deck_1.png"" style=""width: 300px; height: 300px;"" />
    </div>","1","1"
"","","","","","html-keyboard-response","109","316649","0.0-75.0-1.0-0.0","8859232175A94E0A9FF1DACD228E8AAB","06d9a0f0-701c-468d-bc2c-feaf34eca82e","23db58b9-63b0-4bce-8714-07ce439e665e","","null","<div style=""display: flex; justify-content: center; align-items: center;"">
                <img src=""images/semantic/semantic_series_12/semantic_series_12_d.jpg"" style=""width: 300px; height: 300px;"" />
              </div>","null",""
"","","","","","html-keyboard-response","110","319653","0.0-75.0-1.0-1.0","8859232175A94E0A9FF1DACD228E8AAB","06d9a0f0-701c-468d-bc2c-feaf34eca82e","23db58b9-63b0-4bce-8714-07ce439e665e","","null","<div style=""display: flex; justify-content: center; align-items: center;"">
                <img src=""images/semantic/semantic_series_13/semantic_series_13_d.jpg"" style=""width: 300px; height: 300px;"" />
              </div>","null",""
"","","","","","html-keyboard-response","111","322656","0.0-75.0-1.0-2.0","8859232175A94E0A9FF1DACD228E8AAB","06d9a0f0-701c-468d-bc2c-feaf34eca82e","23db58b9-63b0-4bce-8714-07ce439e665e","","null","<div style=""display: flex; justify-content: center; align-items: center;"">
                <img src=""images/semantic/semantic_series_14/semantic_series_14_d.jpg"" style=""width: 300px; height: 300px;"" />
              </div>","null",""
"","","","","","html-keyboard-response","112","325658","0.0-76.0","8859232175A94E0A9FF1DACD228E8AAB","06d9a0f0-701c-468d-bc2c-feaf34eca82e","23db58b9-63b0-4bce-8714-07ce439e665e","","null","<div style=""display: flex; justify-content: center; align-items: center;"">
                <img src=""images/other/blank.jpg"" style=""width: 300px; height: 300px;"" />
              </div>","null",""
"","","","","","survey-text","113","361816","0.0-77.0","8859232175A94E0A9FF1DACD228E8AAB","06d9a0f0-701c-468d-bc2c-feaf34eca82e","23db58b9-63b0-4bce-8714-07ce439e665e","","36101","","{""Q0"":""The left deck's slides were drawn in an order or sequence, the right deck's were all random.""}",""
"","","","","","survey-text","114","374265","0.0-78.0","8859232175A94E0A9FF1DACD228E8AAB","06d9a0f0-701c-468d-bc2c-feaf34eca82e","23db58b9-63b0-4bce-8714-07ce439e665e","","12443","","{""Q0"":""The left since it followed a loose narrative.""}",""
"","","","","","html-button-response","115","383182","0.0-79.0","8859232175A94E0A9FF1DACD228E8AAB","06d9a0f0-701c-468d-bc2c-feaf34eca82e","23db58b9-63b0-4bce-8714-07ce439e665e","","8915","Which color deck does the fourth image continue the story from the series?","0",""
"","","","","","html-button-response","116","385592","0.0-80.0","8859232175A94E0A9FF1DACD228E8AAB","06d9a0f0-701c-468d-bc2c-feaf34eca82e","23db58b9-63b0-4bce-8714-07ce439e665e","","2408","Which color deck does the fourth image not follow the story from the series?","1",""
"","","","","","survey-text","117","390408","0.0-81.0","8859232175A94E0A9FF1DACD228E8AAB","06d9a0f0-701c-468d-bc2c-feaf34eca82e","23db58b9-63b0-4bce-8714-07ce439e665e","","4797","","{""Q0"":""Male"",""Q1"":""33""}",""
"","","","","","instructions","118","394655","0.0-82.0","8859232175A94E0A9FF1DACD228E8AAB","06d9a0f0-701c-468d-bc2c-feaf34eca82e","23db58b9-63b0-4bce-8714-07ce439e665e","[{""page_index"":0,""viewing_time"":4246}]","4247","","",""
