"success","timeout","failed_images","failed_audio","failed_video","trial_type","trial_index","time_elapsed","internal_node_id","subject_id","study_id","session_id","view_history","rt","stimulus","response","series","repetition","phase","choice","question_order"
"true","false","[]","[]","[]","preload","0","766","0.0-0.0","94A944252CFB4144A16F5870BF0B7D5E","0199d686-194f-7c1b-a032-420058b05039","0199d675-8795-765b-adc2-c813de8cd3d1","","","","","","","","",""
"","","","","","instructions","1","2470","0.0-1.0","94A944252CFB4144A16F5870BF0B7D5E","0199d686-194f-7c1b-a032-420058b05039","0199d675-8795-765b-adc2-c813de8cd3d1","[{""page_index"":0,""viewing_time"":1703}]","1704","","","","","","",""
"","","","","","instructions","2","113809","0.0-2.0","94A944252CFB4144A16F5870BF0B7D5E","0199d686-194f-7c1b-a032-420058b05039","0199d675-8795-765b-adc2-c813de8cd3d1","[{""page_index"":0,""viewing_time"":111338}]","111339","","","","","","",""
"true","","","","","fullscreen","3","141038","0.0-3.0","94A944252CFB4144A16F5870BF0B7D5E","0199d686-194f-7c1b-a032-420058b05039","0199d675-8795-765b-adc2-c813de8cd3d1","","26227","","","","","","",""
"","","","","","instructions","4","161477","0.0-4.0","94A944252CFB4144A16F5870BF0B7D5E","0199d686-194f-7c1b-a032-420058b05039","0199d675-8795-765b-adc2-c813de8cd3d1","[{""page_index"":0,""viewing_time"":20439}]","20439","","","","","","",""
"","","","","","html-keyboard-response","5","167478","0.0-5.0","94A944252CFB4144A16F5870BF0B7D5E","0199d686-194f-7c1b-a032-420058b05039","0199d675-8795-765b-adc2-c813de8cd3d1","","null","<div style=""display: flex; justify-content: center; align-items: center;"">
                     <img src=""images/causal/causal_series_4/causal_series_4_a.png"" style=""width: 300px; height: 300px;"" />
                   </div>","null","4","2","A","",""
"","","","","","html-button-response","6","170189","0.0-6.0","94A944252CFB4144A16F5870BF0B7D5E","0199d686-194f-7c1b-a032-420058b05039","0199d675-8795-765b-adc2-c813de8cd3d1","","2710","
        <div style=""display: flex; justify-content: center; align-items: center;"">
          <img src=""images/red_deck_2.png"" style=""width: 300px; height: 300px; margin-right: 10px;"" />
          <img src=""images/blue_deck_1.png"" style=""width: 300px; height: 300px;"" />
        </div>","0","4","2","choice","0",""
"","","","","","html-keyboard-response","7","176190","0.0-7.0-0.0-0.0","94A944252CFB4144A16F5870BF0B7D5E","0199d686-194f-7c1b-a032-420058b05039","0199d675-8795-765b-adc2-c813de8cd3d1","","null","<div style=""display: flex; justify-content: center; align-items: center;"">
                     <img src=""images/causal/causal_series_4/causal_series_4_b.png"" style=""width: 300px; height: 300px;"" />
                   </div>","null","4","2","B","",""
"","","","","","html-keyboard-response","8","182191","0.0-7.0-0.0-1.0","94A944252CFB4144A16F5870BF0B7D5E","0199d686-194f-7c1b-a032-420058b05039","0199d675-8795-765b-adc2-c813de8cd3d1","","null","<div style=""display: flex; justify-content: center; align-items: center;"">
                     <img src=""images/causal/causal_series_4/causal_series_4_c.png"" style=""width: 300px; height: 300px;"" />
                   </div>","null","4","2","C","",""
"","","","","","html-keyboard-response","9","188193","0.0-7.0-0.0-2.0","94A944252CFB4144A16F5870BF0B7D5E","0199d686-194f-7c1b-a032-420058b05039","0199d675-8795-765b-adc2-c813de8cd3d1","","null","<div style=""display: flex; justify-content: center; align-items: center;"">
                     <img src=""images/causal/causal_series_4/causal_series_4_d.png"" style=""width: 300px; height: 300px;"" />
                   </div>","null","4","2","D","",""
"","","","","","survey-likert","10","191222","0.0-8.0","94A944252CFB4144A16F5870BF0B7D5E","0199d686-194f-7c1b-a032-420058b05039","0199d675-8795-765b-adc2-c813de8cd3d1","","3028","","{""Q0"":1}","4","2","surprise_rating","","[0]"
"","","","","","survey-likert","11","193654","0.0-9.0","94A944252CFB4144A16F5870BF0B7D5E","0199d686-194f-7c1b-a032-420058b05039","0199d675-8795-765b-adc2-c813de8cd3d1","","2431","","{""Q0"":1}","4","2","enjoyment_rating","","[0]"
"","","","","","html-keyboard-response","12","199655","0.0-10.0","94A944252CFB4144A16F5870BF0B7D5E","0199d686-194f-7c1b-a032-420058b05039","0199d675-8795-765b-adc2-c813de8cd3d1","","null","<div style=""display: flex; justify-content: center; align-items: center;"">
                     <img src=""images/other/blank.png"" style=""width: 300px; height: 300px;"" />
                   </div>","null","0","0","blank","",""
"","","","","","html-keyboard-response","13","205658","0.0-11.0","94A944252CFB4144A16F5870BF0B7D5E","0199d686-194f-7c1b-a032-420058b05039","0199d675-8795-765b-adc2-c813de8cd3d1","","null","<div style=""display: flex; justify-content: center; align-items: center;"">
                     <img src=""images/causal/causal_series_5/causal_series_5_a.png"" style=""width: 300px; height: 300px;"" />
                   </div>","null","5","1","A","",""
"","","","","","html-button-response","14","206795","0.0-12.0","94A944252CFB4144A16F5870BF0B7D5E","0199d686-194f-7c1b-a032-420058b05039","0199d675-8795-765b-adc2-c813de8cd3d1","","1137","
        <div style=""display: flex; justify-content: center; align-items: center;"">
          <img src=""images/red_deck_2.png"" style=""width: 300px; height: 300px; margin-right: 10px;"" />
          <img src=""images/blue_deck_1.png"" style=""width: 300px; height: 300px;"" />
        </div>","1","5","1","choice","1",""
"","","","","","html-keyboard-response","15","212797","0.0-13.0-1.0-0.0","94A944252CFB4144A16F5870BF0B7D5E","0199d686-194f-7c1b-a032-420058b05039","0199d675-8795-765b-adc2-c813de8cd3d1","","null","<div style=""display: flex; justify-content: center; align-items: center;"">
                     <img src=""images/semantic/semantic_series_5/semantic_series_5_b.png"" style=""width: 300px; height: 300px;"" />
                   </div>","null","5","1","B","",""
"","","","","","html-keyboard-response","16","218799","0.0-13.0-1.0-1.0","94A944252CFB4144A16F5870BF0B7D5E","0199d686-194f-7c1b-a032-420058b05039","0199d675-8795-765b-adc2-c813de8cd3d1","","null","<div style=""display: flex; justify-content: center; align-items: center;"">
                     <img src=""images/semantic/semantic_series_5/semantic_series_5_c.png"" style=""width: 300px; height: 300px;"" />
                   </div>","null","5","1","C","",""
"","","","","","html-keyboard-response","17","224800","0.0-13.0-1.0-2.0","94A944252CFB4144A16F5870BF0B7D5E","0199d686-194f-7c1b-a032-420058b05039","0199d675-8795-765b-adc2-c813de8cd3d1","","null","<div style=""display: flex; justify-content: center; align-items: center;"">
                     <img src=""images/semantic/semantic_series_5/semantic_series_5_d.png"" style=""width: 300px; height: 300px;"" />
                   </div>","null","5","1","D","",""
"","","","","","survey-likert","18","348982","0.0-14.0","94A944252CFB4144A16F5870BF0B7D5E","0199d686-194f-7c1b-a032-420058b05039","0199d675-8795-765b-adc2-c813de8cd3d1","","124181","","{""Q0"":2}","5","1","surprise_rating","","[0]"
"","","","","","survey-likert","19","351653","0.0-15.0","94A944252CFB4144A16F5870BF0B7D5E","0199d686-194f-7c1b-a032-420058b05039","0199d675-8795-765b-adc2-c813de8cd3d1","","2670","","{""Q0"":2}","5","1","enjoyment_rating","","[0]"
"","","","","","html-keyboard-response","20","357655","0.0-16.0","94A944252CFB4144A16F5870BF0B7D5E","0199d686-194f-7c1b-a032-420058b05039","0199d675-8795-765b-adc2-c813de8cd3d1","","null","<div style=""display: flex; justify-content: center; align-items: center;"">
                     <img src=""images/other/blank.png"" style=""width: 300px; height: 300px;"" />
                   </div>","null","0","0","blank","",""
"","","","","","html-keyboard-response","21","363656","0.0-17.0","94A944252CFB4144A16F5870BF0B7D5E","0199d686-194f-7c1b-a032-420058b05039","0199d675-8795-765b-adc2-c813de8cd3d1","","null","<div style=""display: flex; justify-content: center; align-items: center;"">
                     <img src=""images/causal/causal_series_3/causal_series_3_a.png"" style=""width: 300px; height: 300px;"" />
                   </div>","null","3","2","A","",""
"","","","","","html-button-response","22","365113","0.0-18.0","94A944252CFB4144A16F5870BF0B7D5E","0199d686-194f-7c1b-a032-420058b05039","0199d675-8795-765b-adc2-c813de8cd3d1","","1455","
        <div style=""display: flex; justify-content: center; align-items: center;"">
          <img src=""images/red_deck_2.png"" style=""width: 300px; height: 300px; margin-right: 10px;"" />
          <img src=""images/blue_deck_1.png"" style=""width: 300px; height: 300px;"" />
        </div>","1","3","2","choice","1",""
"","","","","","html-keyboard-response","23","371114","0.0-19.0-1.0-0.0","94A944252CFB4144A16F5870BF0B7D5E","0199d686-194f-7c1b-a032-420058b05039","0199d675-8795-765b-adc2-c813de8cd3d1","","null","<div style=""display: flex; justify-content: center; align-items: center;"">
                     <img src=""images/semantic/semantic_series_3/semantic_series_3_b.png"" style=""width: 300px; height: 300px;"" />
                   </div>","null","3","2","B","",""
"","","","","","html-keyboard-response","24","377115","0.0-19.0-1.0-1.0","94A944252CFB4144A16F5870BF0B7D5E","0199d686-194f-7c1b-a032-420058b05039","0199d675-8795-765b-adc2-c813de8cd3d1","","null","<div style=""display: flex; justify-content: center; align-items: center;"">
                     <img src=""images/semantic/semantic_series_3/semantic_series_3_c.png"" style=""width: 300px; height: 300px;"" />
                   </div>","null","3","2","C","",""
"","","","","","html-keyboard-response","25","383116","0.0-19.0-1.0-2.0","94A944252CFB4144A16F5870BF0B7D5E","0199d686-194f-7c1b-a032-420058b05039","0199d675-8795-765b-adc2-c813de8cd3d1","","null","<div style=""display: flex; justify-content: center; align-items: center;"">
                     <img src=""images/semantic/semantic_series_3/semantic_series_3_d.png"" style=""width: 300px; height: 300px;"" />
                   </div>","null","3","2","D","",""
"","","","","","survey-likert","26","386540","0.0-20.0","94A944252CFB4144A16F5870BF0B7D5E","0199d686-194f-7c1b-a032-420058b05039","0199d675-8795-765b-adc2-c813de8cd3d1","","3424","","{""Q0"":3}","3","2","surprise_rating","","[0]"
"","","","","","survey-likert","27","390287","0.0-21.0","94A944252CFB4144A16F5870BF0B7D5E","0199d686-194f-7c1b-a032-420058b05039","0199d675-8795-765b-adc2-c813de8cd3d1","","3746","","{""Q0"":2}","3","2","enjoyment_rating","","[0]"
"","","","","","html-keyboard-response","28","396287","0.0-22.0","94A944252CFB4144A16F5870BF0B7D5E","0199d686-194f-7c1b-a032-420058b05039","0199d675-8795-765b-adc2-c813de8cd3d1","","null","<div style=""display: flex; justify-content: center; align-items: center;"">
                     <img src=""images/other/blank.png"" style=""width: 300px; height: 300px;"" />
                   </div>","null","0","0","blank","",""
"","","","","","html-keyboard-response","29","402289","0.0-23.0","94A944252CFB4144A16F5870BF0B7D5E","0199d686-194f-7c1b-a032-420058b05039","0199d675-8795-765b-adc2-c813de8cd3d1","","null","<div style=""display: flex; justify-content: center; align-items: center;"">
                     <img src=""images/causal/causal_series_6/causal_series_6_a.png"" style=""width: 300px; height: 300px;"" />
                   </div>","null","6","2","A","",""
"","","","","","html-button-response","30","403687","0.0-24.0","94A944252CFB4144A16F5870BF0B7D5E","0199d686-194f-7c1b-a032-420058b05039","0199d675-8795-765b-adc2-c813de8cd3d1","","1398","
        <div style=""display: flex; justify-content: center; align-items: center;"">
          <img src=""images/red_deck_2.png"" style=""width: 300px; height: 300px; margin-right: 10px;"" />
          <img src=""images/blue_deck_1.png"" style=""width: 300px; height: 300px;"" />
        </div>","0","6","2","choice","0",""
"","","","","","html-keyboard-response","31","409690","0.0-25.0-0.0-0.0","94A944252CFB4144A16F5870BF0B7D5E","0199d686-194f-7c1b-a032-420058b05039","0199d675-8795-765b-adc2-c813de8cd3d1","","null","<div style=""display: flex; justify-content: center; align-items: center;"">
                     <img src=""images/causal/causal_series_6/causal_series_6_b.png"" style=""width: 300px; height: 300px;"" />
                   </div>","null","6","2","B","",""
"","","","","","html-keyboard-response","32","415691","0.0-25.0-0.0-1.0","94A944252CFB4144A16F5870BF0B7D5E","0199d686-194f-7c1b-a032-420058b05039","0199d675-8795-765b-adc2-c813de8cd3d1","","null","<div style=""display: flex; justify-content: center; align-items: center;"">
                     <img src=""images/causal/causal_series_6/causal_series_6_c.png"" style=""width: 300px; height: 300px;"" />
                   </div>","null","6","2","C","",""
"","","","","","html-keyboard-response","33","421693","0.0-25.0-0.0-2.0","94A944252CFB4144A16F5870BF0B7D5E","0199d686-194f-7c1b-a032-420058b05039","0199d675-8795-765b-adc2-c813de8cd3d1","","null","<div style=""display: flex; justify-content: center; align-items: center;"">
                     <img src=""images/causal/causal_series_6/causal_series_6_d.png"" style=""width: 300px; height: 300px;"" />
                   </div>","null","6","2","D","",""
"","","","","","survey-likert","34","424993","0.0-26.0","94A944252CFB4144A16F5870BF0B7D5E","0199d686-194f-7c1b-a032-420058b05039","0199d675-8795-765b-adc2-c813de8cd3d1","","3300","","{""Q0"":2}","6","2","surprise_rating","","[0]"
"","","","","","survey-likert","35","426209","0.0-27.0","94A944252CFB4144A16F5870BF0B7D5E","0199d686-194f-7c1b-a032-420058b05039","0199d675-8795-765b-adc2-c813de8cd3d1","","1215","","{""Q0"":2}","6","2","enjoyment_rating","","[0]"
"","","","","","html-keyboard-response","36","432210","0.0-28.0","94A944252CFB4144A16F5870BF0B7D5E","0199d686-194f-7c1b-a032-420058b05039","0199d675-8795-765b-adc2-c813de8cd3d1","","null","<div style=""display: flex; justify-content: center; align-items: center;"">
                     <img src=""images/other/blank.png"" style=""width: 300px; height: 300px;"" />
                   </div>","null","0","0","blank","",""
"","","","","","html-keyboard-response","37","438212","0.0-29.0","94A944252CFB4144A16F5870BF0B7D5E","0199d686-194f-7c1b-a032-420058b05039","0199d675-8795-765b-adc2-c813de8cd3d1","","null","<div style=""display: flex; justify-content: center; align-items: center;"">
                     <img src=""images/causal/causal_series_4/causal_series_4_a.png"" style=""width: 300px; height: 300px;"" />
                   </div>","null","4","1","A","",""
"","","","","","html-button-response","38","440454","0.0-30.0","94A944252CFB4144A16F5870BF0B7D5E","0199d686-194f-7c1b-a032-420058b05039","0199d675-8795-765b-adc2-c813de8cd3d1","","2241","
        <div style=""display: flex; justify-content: center; align-items: center;"">
          <img src=""images/red_deck_2.png"" style=""width: 300px; height: 300px; margin-right: 10px;"" />
          <img src=""images/blue_deck_1.png"" style=""width: 300px; height: 300px;"" />
        </div>","1","4","1","choice","1",""
"","","","","","html-keyboard-response","39","446455","0.0-31.0-1.0-0.0","94A944252CFB4144A16F5870BF0B7D5E","0199d686-194f-7c1b-a032-420058b05039","0199d675-8795-765b-adc2-c813de8cd3d1","","null","<div style=""display: flex; justify-content: center; align-items: center;"">
                     <img src=""images/semantic/semantic_series_4/semantic_series_4_b.png"" style=""width: 300px; height: 300px;"" />
                   </div>","null","4","1","B","",""
"","","","","","html-keyboard-response","40","452456","0.0-31.0-1.0-1.0","94A944252CFB4144A16F5870BF0B7D5E","0199d686-194f-7c1b-a032-420058b05039","0199d675-8795-765b-adc2-c813de8cd3d1","","null","<div style=""display: flex; justify-content: center; align-items: center;"">
                     <img src=""images/semantic/semantic_series_4/semantic_series_4_c.png"" style=""width: 300px; height: 300px;"" />
                   </div>","null","4","1","C","",""
"","","","","","html-keyboard-response","41","458458","0.0-31.0-1.0-2.0","94A944252CFB4144A16F5870BF0B7D5E","0199d686-194f-7c1b-a032-420058b05039","0199d675-8795-765b-adc2-c813de8cd3d1","","null","<div style=""display: flex; justify-content: center; align-items: center;"">
                     <img src=""images/semantic/semantic_series_4/semantic_series_4_d.png"" style=""width: 300px; height: 300px;"" />
                   </div>","null","4","1","D","",""
"","","","","","survey-likert","42","464985","0.0-32.0","94A944252CFB4144A16F5870BF0B7D5E","0199d686-194f-7c1b-a032-420058b05039","0199d675-8795-765b-adc2-c813de8cd3d1","","6526","","{""Q0"":1}","4","1","surprise_rating","","[0]"
"","","","","","survey-likert","43","467536","0.0-33.0","94A944252CFB4144A16F5870BF0B7D5E","0199d686-194f-7c1b-a032-420058b05039","0199d675-8795-765b-adc2-c813de8cd3d1","","2550","","{""Q0"":2}","4","1","enjoyment_rating","","[0]"
"","","","","","html-keyboard-response","44","473537","0.0-34.0","94A944252CFB4144A16F5870BF0B7D5E","0199d686-194f-7c1b-a032-420058b05039","0199d675-8795-765b-adc2-c813de8cd3d1","","null","<div style=""display: flex; justify-content: center; align-items: center;"">
                     <img src=""images/other/blank.png"" style=""width: 300px; height: 300px;"" />
                   </div>","null","0","0","blank","",""
"","","","","","html-keyboard-response","45","479539","0.0-35.0","94A944252CFB4144A16F5870BF0B7D5E","0199d686-194f-7c1b-a032-420058b05039","0199d675-8795-765b-adc2-c813de8cd3d1","","null","<div style=""display: flex; justify-content: center; align-items: center;"">
                     <img src=""images/causal/causal_series_10/causal_series_10_a.png"" style=""width: 300px; height: 300px;"" />
                   </div>","null","10","1","A","",""
"","","","","","html-button-response","46","482282","0.0-36.0","94A944252CFB4144A16F5870BF0B7D5E","0199d686-194f-7c1b-a032-420058b05039","0199d675-8795-765b-adc2-c813de8cd3d1","","2743","
        <div style=""display: flex; justify-content: center; align-items: center;"">
          <img src=""images/red_deck_2.png"" style=""width: 300px; height: 300px; margin-right: 10px;"" />
          <img src=""images/blue_deck_1.png"" style=""width: 300px; height: 300px;"" />
        </div>","1","10","1","choice","1",""
"","","","","","html-keyboard-response","47","488284","0.0-37.0-1.0-0.0","94A944252CFB4144A16F5870BF0B7D5E","0199d686-194f-7c1b-a032-420058b05039","0199d675-8795-765b-adc2-c813de8cd3d1","","null","<div style=""display: flex; justify-content: center; align-items: center;"">
                     <img src=""images/semantic/semantic_series_10/semantic_series_10_b.png"" style=""width: 300px; height: 300px;"" />
                   </div>","null","10","1","B","",""
"","","","","","html-keyboard-response","48","494285","0.0-37.0-1.0-1.0","94A944252CFB4144A16F5870BF0B7D5E","0199d686-194f-7c1b-a032-420058b05039","0199d675-8795-765b-adc2-c813de8cd3d1","","null","<div style=""display: flex; justify-content: center; align-items: center;"">
                     <img src=""images/semantic/semantic_series_10/semantic_series_10_c.png"" style=""width: 300px; height: 300px;"" />
                   </div>","null","10","1","C","",""
"","","","","","html-keyboard-response","49","500287","0.0-37.0-1.0-2.0","94A944252CFB4144A16F5870BF0B7D5E","0199d686-194f-7c1b-a032-420058b05039","0199d675-8795-765b-adc2-c813de8cd3d1","","null","<div style=""display: flex; justify-content: center; align-items: center;"">
                     <img src=""images/semantic/semantic_series_10/semantic_series_10_d.png"" style=""width: 300px; height: 300px;"" />
                   </div>","null","10","1","D","",""
"","","","","","survey-likert","50","501938","0.0-38.0","94A944252CFB4144A16F5870BF0B7D5E","0199d686-194f-7c1b-a032-420058b05039","0199d675-8795-765b-adc2-c813de8cd3d1","","1651","","{""Q0"":3}","10","1","surprise_rating","","[0]"
"","","","","","survey-likert","51","503559","0.0-39.0","94A944252CFB4144A16F5870BF0B7D5E","0199d686-194f-7c1b-a032-420058b05039","0199d675-8795-765b-adc2-c813de8cd3d1","","1620","","{""Q0"":3}","10","1","enjoyment_rating","","[0]"
"","","","","","html-keyboard-response","52","509560","0.0-40.0","94A944252CFB4144A16F5870BF0B7D5E","0199d686-194f-7c1b-a032-420058b05039","0199d675-8795-765b-adc2-c813de8cd3d1","","null","<div style=""display: flex; justify-content: center; align-items: center;"">
                     <img src=""images/other/blank.png"" style=""width: 300px; height: 300px;"" />
                   </div>","null","0","0","blank","",""
"","","","","","html-keyboard-response","53","515561","0.0-41.0","94A944252CFB4144A16F5870BF0B7D5E","0199d686-194f-7c1b-a032-420058b05039","0199d675-8795-765b-adc2-c813de8cd3d1","","null","<div style=""display: flex; justify-content: center; align-items: center;"">
                     <img src=""images/causal/causal_series_9/causal_series_9_a.png"" style=""width: 300px; height: 300px;"" />
                   </div>","null","9","2","A","",""
"","","","","","html-button-response","54","516831","0.0-42.0","94A944252CFB4144A16F5870BF0B7D5E","0199d686-194f-7c1b-a032-420058b05039","0199d675-8795-765b-adc2-c813de8cd3d1","","1269","
        <div style=""display: flex; justify-content: center; align-items: center;"">
          <img src=""images/red_deck_2.png"" style=""width: 300px; height: 300px; margin-right: 10px;"" />
          <img src=""images/blue_deck_1.png"" style=""width: 300px; height: 300px;"" />
        </div>","0","9","2","choice","0",""
"","","","","","html-keyboard-response","55","522832","0.0-43.0-0.0-0.0","94A944252CFB4144A16F5870BF0B7D5E","0199d686-194f-7c1b-a032-420058b05039","0199d675-8795-765b-adc2-c813de8cd3d1","","null","<div style=""display: flex; justify-content: center; align-items: center;"">
                     <img src=""images/causal/causal_series_9/causal_series_9_b.png"" style=""width: 300px; height: 300px;"" />
                   </div>","null","9","2","B","",""
"","","","","","html-keyboard-response","56","528834","0.0-43.0-0.0-1.0","94A944252CFB4144A16F5870BF0B7D5E","0199d686-194f-7c1b-a032-420058b05039","0199d675-8795-765b-adc2-c813de8cd3d1","","null","<div style=""display: flex; justify-content: center; align-items: center;"">
                     <img src=""images/causal/causal_series_9/causal_series_9_c.png"" style=""width: 300px; height: 300px;"" />
                   </div>","null","9","2","C","",""
"","","","","","html-keyboard-response","57","534835","0.0-43.0-0.0-2.0","94A944252CFB4144A16F5870BF0B7D5E","0199d686-194f-7c1b-a032-420058b05039","0199d675-8795-765b-adc2-c813de8cd3d1","","null","<div style=""display: flex; justify-content: center; align-items: center;"">
                     <img src=""images/causal/causal_series_9/causal_series_9_d.png"" style=""width: 300px; height: 300px;"" />
                   </div>","null","9","2","D","",""
"","","","","","survey-likert","58","540283","0.0-44.0","94A944252CFB4144A16F5870BF0B7D5E","0199d686-194f-7c1b-a032-420058b05039","0199d675-8795-765b-adc2-c813de8cd3d1","","5447","","{""Q0"":4}","9","2","surprise_rating","","[0]"
"","","","","","survey-likert","59","542352","0.0-45.0","94A944252CFB4144A16F5870BF0B7D5E","0199d686-194f-7c1b-a032-420058b05039","0199d675-8795-765b-adc2-c813de8cd3d1","","2069","","{""Q0"":0}","9","2","enjoyment_rating","","[0]"
"","","","","","html-keyboard-response","60","548366","0.0-46.0","94A944252CFB4144A16F5870BF0B7D5E","0199d686-194f-7c1b-a032-420058b05039","0199d675-8795-765b-adc2-c813de8cd3d1","","null","<div style=""display: flex; justify-content: center; align-items: center;"">
                     <img src=""images/other/blank.png"" style=""width: 300px; height: 300px;"" />
                   </div>","null","0","0","blank","",""
"","","","","","html-keyboard-response","61","554367","0.0-47.0","94A944252CFB4144A16F5870BF0B7D5E","0199d686-194f-7c1b-a032-420058b05039","0199d675-8795-765b-adc2-c813de8cd3d1","","null","<div style=""display: flex; justify-content: center; align-items: center;"">
                     <img src=""images/causal/causal_series_2/causal_series_2_a.png"" style=""width: 300px; height: 300px;"" />
                   </div>","null","2","1","A","",""
"","","","","","html-button-response","62","555313","0.0-48.0","94A944252CFB4144A16F5870BF0B7D5E","0199d686-194f-7c1b-a032-420058b05039","0199d675-8795-765b-adc2-c813de8cd3d1","","946","
        <div style=""display: flex; justify-content: center; align-items: center;"">
          <img src=""images/red_deck_2.png"" style=""width: 300px; height: 300px; margin-right: 10px;"" />
          <img src=""images/blue_deck_1.png"" style=""width: 300px; height: 300px;"" />
        </div>","1","2","1","choice","1",""
"","","","","","html-keyboard-response","63","561315","0.0-49.0-1.0-0.0","94A944252CFB4144A16F5870BF0B7D5E","0199d686-194f-7c1b-a032-420058b05039","0199d675-8795-765b-adc2-c813de8cd3d1","","null","<div style=""display: flex; justify-content: center; align-items: center;"">
                     <img src=""images/semantic/semantic_series_2/semantic_series_2_b.png"" style=""width: 300px; height: 300px;"" />
                   </div>","null","2","1","B","",""
"","","","","","html-keyboard-response","64","567316","0.0-49.0-1.0-1.0","94A944252CFB4144A16F5870BF0B7D5E","0199d686-194f-7c1b-a032-420058b05039","0199d675-8795-765b-adc2-c813de8cd3d1","","null","<div style=""display: flex; justify-content: center; align-items: center;"">
                     <img src=""images/semantic/semantic_series_2/semantic_series_2_c.png"" style=""width: 300px; height: 300px;"" />
                   </div>","null","2","1","C","",""
"","","","","","html-keyboard-response","65","573319","0.0-49.0-1.0-2.0","94A944252CFB4144A16F5870BF0B7D5E","0199d686-194f-7c1b-a032-420058b05039","0199d675-8795-765b-adc2-c813de8cd3d1","","null","<div style=""display: flex; justify-content: center; align-items: center;"">
                     <img src=""images/semantic/semantic_series_2/semantic_series_2_d.png"" style=""width: 300px; height: 300px;"" />
                   </div>","null","2","1","D","",""
"","","","","","survey-likert","66","575447","0.0-50.0","94A944252CFB4144A16F5870BF0B7D5E","0199d686-194f-7c1b-a032-420058b05039","0199d675-8795-765b-adc2-c813de8cd3d1","","2128","","{""Q0"":3}","2","1","surprise_rating","","[0]"
"","","","","","survey-likert","67","576761","0.0-51.0","94A944252CFB4144A16F5870BF0B7D5E","0199d686-194f-7c1b-a032-420058b05039","0199d675-8795-765b-adc2-c813de8cd3d1","","1313","","{""Q0"":4}","2","1","enjoyment_rating","","[0]"
"","","","","","html-keyboard-response","68","582762","0.0-52.0","94A944252CFB4144A16F5870BF0B7D5E","0199d686-194f-7c1b-a032-420058b05039","0199d675-8795-765b-adc2-c813de8cd3d1","","null","<div style=""display: flex; justify-content: center; align-items: center;"">
                     <img src=""images/other/blank.png"" style=""width: 300px; height: 300px;"" />
                   </div>","null","0","0","blank","",""
"","","","","","html-keyboard-response","69","588763","0.0-53.0","94A944252CFB4144A16F5870BF0B7D5E","0199d686-194f-7c1b-a032-420058b05039","0199d675-8795-765b-adc2-c813de8cd3d1","","null","<div style=""display: flex; justify-content: center; align-items: center;"">
                     <img src=""images/causal/causal_series_5/causal_series_5_a.png"" style=""width: 300px; height: 300px;"" />
                   </div>","null","5","2","A","",""
"","","","","","html-button-response","70","590073","0.0-54.0","94A944252CFB4144A16F5870BF0B7D5E","0199d686-194f-7c1b-a032-420058b05039","0199d675-8795-765b-adc2-c813de8cd3d1","","1309","
        <div style=""display: flex; justify-content: center; align-items: center;"">
          <img src=""images/red_deck_2.png"" style=""width: 300px; height: 300px; margin-right: 10px;"" />
          <img src=""images/blue_deck_1.png"" style=""width: 300px; height: 300px;"" />
        </div>","0","5","2","choice","0",""
"","","","","","html-keyboard-response","71","596074","0.0-55.0-0.0-0.0","94A944252CFB4144A16F5870BF0B7D5E","0199d686-194f-7c1b-a032-420058b05039","0199d675-8795-765b-adc2-c813de8cd3d1","","null","<div style=""display: flex; justify-content: center; align-items: center;"">
                     <img src=""images/causal/causal_series_5/causal_series_5_b.png"" style=""width: 300px; height: 300px;"" />
                   </div>","null","5","2","B","",""
"","","","","","html-keyboard-response","72","602074","0.0-55.0-0.0-1.0","94A944252CFB4144A16F5870BF0B7D5E","0199d686-194f-7c1b-a032-420058b05039","0199d675-8795-765b-adc2-c813de8cd3d1","","null","<div style=""display: flex; justify-content: center; align-items: center;"">
                     <img src=""images/causal/causal_series_5/causal_series_5_c.png"" style=""width: 300px; height: 300px;"" />
                   </div>","null","5","2","C","",""
"","","","","","html-keyboard-response","73","608075","0.0-55.0-0.0-2.0","94A944252CFB4144A16F5870BF0B7D5E","0199d686-194f-7c1b-a032-420058b05039","0199d675-8795-765b-adc2-c813de8cd3d1","","null","<div style=""display: flex; justify-content: center; align-items: center;"">
                     <img src=""images/causal/causal_series_5/causal_series_5_d.png"" style=""width: 300px; height: 300px;"" />
                   </div>","null","5","2","D","",""
"","","","","","survey-likert","74","611384","0.0-56.0","94A944252CFB4144A16F5870BF0B7D5E","0199d686-194f-7c1b-a032-420058b05039","0199d675-8795-765b-adc2-c813de8cd3d1","","3309","","{""Q0"":3}","5","2","surprise_rating","","[0]"
"","","","","","survey-likert","75","612748","0.0-57.0","94A944252CFB4144A16F5870BF0B7D5E","0199d686-194f-7c1b-a032-420058b05039","0199d675-8795-765b-adc2-c813de8cd3d1","","1363","","{""Q0"":2}","5","2","enjoyment_rating","","[0]"
"","","","","","html-keyboard-response","76","618749","0.0-58.0","94A944252CFB4144A16F5870BF0B7D5E","0199d686-194f-7c1b-a032-420058b05039","0199d675-8795-765b-adc2-c813de8cd3d1","","null","<div style=""display: flex; justify-content: center; align-items: center;"">
                     <img src=""images/other/blank.png"" style=""width: 300px; height: 300px;"" />
                   </div>","null","0","0","blank","",""
"","","","","","html-keyboard-response","77","624750","0.0-59.0","94A944252CFB4144A16F5870BF0B7D5E","0199d686-194f-7c1b-a032-420058b05039","0199d675-8795-765b-adc2-c813de8cd3d1","","null","<div style=""display: flex; justify-content: center; align-items: center;"">
                     <img src=""images/causal/causal_series_2/causal_series_2_a.png"" style=""width: 300px; height: 300px;"" />
                   </div>","null","2","2","A","",""
"","","","","","html-button-response","78","632209","0.0-60.0","94A944252CFB4144A16F5870BF0B7D5E","0199d686-194f-7c1b-a032-420058b05039","0199d675-8795-765b-adc2-c813de8cd3d1","","7458","
        <div style=""display: flex; justify-content: center; align-items: center;"">
          <img src=""images/red_deck_2.png"" style=""width: 300px; height: 300px; margin-right: 10px;"" />
          <img src=""images/blue_deck_1.png"" style=""width: 300px; height: 300px;"" />
        </div>","1","2","2","choice","1",""
"","","","","","html-keyboard-response","79","638210","0.0-61.0-1.0-0.0","94A944252CFB4144A16F5870BF0B7D5E","0199d686-194f-7c1b-a032-420058b05039","0199d675-8795-765b-adc2-c813de8cd3d1","","null","<div style=""display: flex; justify-content: center; align-items: center;"">
                     <img src=""images/semantic/semantic_series_2/semantic_series_2_b.png"" style=""width: 300px; height: 300px;"" />
                   </div>","null","2","2","B","",""
"","","","","","html-keyboard-response","80","644211","0.0-61.0-1.0-1.0","94A944252CFB4144A16F5870BF0B7D5E","0199d686-194f-7c1b-a032-420058b05039","0199d675-8795-765b-adc2-c813de8cd3d1","","null","<div style=""display: flex; justify-content: center; align-items: center;"">
                     <img src=""images/semantic/semantic_series_2/semantic_series_2_c.png"" style=""width: 300px; height: 300px;"" />
                   </div>","null","2","2","C","",""
"","","","","","html-keyboard-response","81","650212","0.0-61.0-1.0-2.0","94A944252CFB4144A16F5870BF0B7D5E","0199d686-194f-7c1b-a032-420058b05039","0199d675-8795-765b-adc2-c813de8cd3d1","","null","<div style=""display: flex; justify-content: center; align-items: center;"">
                     <img src=""images/semantic/semantic_series_2/semantic_series_2_d.png"" style=""width: 300px; height: 300px;"" />
                   </div>","null","2","2","D","",""
"","","","","","survey-likert","82","653619","0.0-62.0","94A944252CFB4144A16F5870BF0B7D5E","0199d686-194f-7c1b-a032-420058b05039","0199d675-8795-765b-adc2-c813de8cd3d1","","3406","","{""Q0"":0}","2","2","surprise_rating","","[0]"
"","","","","","survey-likert","83","654726","0.0-63.0","94A944252CFB4144A16F5870BF0B7D5E","0199d686-194f-7c1b-a032-420058b05039","0199d675-8795-765b-adc2-c813de8cd3d1","","1107","","{""Q0"":2}","2","2","enjoyment_rating","","[0]"
"","","","","","html-keyboard-response","84","660728","0.0-64.0","94A944252CFB4144A16F5870BF0B7D5E","0199d686-194f-7c1b-a032-420058b05039","0199d675-8795-765b-adc2-c813de8cd3d1","","null","<div style=""display: flex; justify-content: center; align-items: center;"">
                     <img src=""images/other/blank.png"" style=""width: 300px; height: 300px;"" />
                   </div>","null","0","0","blank","",""
"","","","","","html-keyboard-response","85","666730","0.0-65.0","94A944252CFB4144A16F5870BF0B7D5E","0199d686-194f-7c1b-a032-420058b05039","0199d675-8795-765b-adc2-c813de8cd3d1","","null","<div style=""display: flex; justify-content: center; align-items: center;"">
                     <img src=""images/causal/causal_series_1/causal_series_1_a.png"" style=""width: 300px; height: 300px;"" />
                   </div>","null","1","2","A","",""
"","","","","","html-button-response","86","669740","0.0-66.0","94A944252CFB4144A16F5870BF0B7D5E","0199d686-194f-7c1b-a032-420058b05039","0199d675-8795-765b-adc2-c813de8cd3d1","","3010","
        <div style=""display: flex; justify-content: center; align-items: center;"">
          <img src=""images/red_deck_2.png"" style=""width: 300px; height: 300px; margin-right: 10px;"" />
          <img src=""images/blue_deck_1.png"" style=""width: 300px; height: 300px;"" />
        </div>","0","1","2","choice","0",""
"","","","","","html-keyboard-response","87","675741","0.0-67.0-0.0-0.0","94A944252CFB4144A16F5870BF0B7D5E","0199d686-194f-7c1b-a032-420058b05039","0199d675-8795-765b-adc2-c813de8cd3d1","","null","<div style=""display: flex; justify-content: center; align-items: center;"">
                     <img src=""images/causal/causal_series_1/causal_series_1_b.png"" style=""width: 300px; height: 300px;"" />
                   </div>","null","1","2","B","",""
"","","","","","html-keyboard-response","88","681742","0.0-67.0-0.0-1.0","94A944252CFB4144A16F5870BF0B7D5E","0199d686-194f-7c1b-a032-420058b05039","0199d675-8795-765b-adc2-c813de8cd3d1","","null","<div style=""display: flex; justify-content: center; align-items: center;"">
                     <img src=""images/causal/causal_series_1/causal_series_1_c.png"" style=""width: 300px; height: 300px;"" />
                   </div>","null","1","2","C","",""
"","","","","","html-keyboard-response","89","687743","0.0-67.0-0.0-2.0","94A944252CFB4144A16F5870BF0B7D5E","0199d686-194f-7c1b-a032-420058b05039","0199d675-8795-765b-adc2-c813de8cd3d1","","null","<div style=""display: flex; justify-content: center; align-items: center;"">
                     <img src=""images/causal/causal_series_1/causal_series_1_d.png"" style=""width: 300px; height: 300px;"" />
                   </div>","null","1","2","D","",""
"","","","","","survey-likert","90","691607","0.0-68.0","94A944252CFB4144A16F5870BF0B7D5E","0199d686-194f-7c1b-a032-420058b05039","0199d675-8795-765b-adc2-c813de8cd3d1","","3864","","{""Q0"":2}","1","2","surprise_rating","","[0]"
"","","","","","survey-likert","91","692512","0.0-69.0","94A944252CFB4144A16F5870BF0B7D5E","0199d686-194f-7c1b-a032-420058b05039","0199d675-8795-765b-adc2-c813de8cd3d1","","904","","{""Q0"":2}","1","2","enjoyment_rating","","[0]"
"","","","","","html-keyboard-response","92","698514","0.0-70.0","94A944252CFB4144A16F5870BF0B7D5E","0199d686-194f-7c1b-a032-420058b05039","0199d675-8795-765b-adc2-c813de8cd3d1","","null","<div style=""display: flex; justify-content: center; align-items: center;"">
                     <img src=""images/other/blank.png"" style=""width: 300px; height: 300px;"" />
                   </div>","null","0","0","blank","",""
"","","","","","html-keyboard-response","93","704515","0.0-71.0","94A944252CFB4144A16F5870BF0B7D5E","0199d686-194f-7c1b-a032-420058b05039","0199d675-8795-765b-adc2-c813de8cd3d1","","null","<div style=""display: flex; justify-content: center; align-items: center;"">
                     <img src=""images/causal/causal_series_7/causal_series_7_a.png"" style=""width: 300px; height: 300px;"" />
                   </div>","null","7","2","A","",""
"","","","","","html-button-response","94","718853","0.0-72.0","94A944252CFB4144A16F5870BF0B7D5E","0199d686-194f-7c1b-a032-420058b05039","0199d675-8795-765b-adc2-c813de8cd3d1","","14337","
        <div style=""display: flex; justify-content: center; align-items: center;"">
          <img src=""images/red_deck_2.png"" style=""width: 300px; height: 300px; margin-right: 10px;"" />
          <img src=""images/blue_deck_1.png"" style=""width: 300px; height: 300px;"" />
        </div>","1","7","2","choice","1",""
"","","","","","html-keyboard-response","95","724855","0.0-73.0-1.0-0.0","94A944252CFB4144A16F5870BF0B7D5E","0199d686-194f-7c1b-a032-420058b05039","0199d675-8795-765b-adc2-c813de8cd3d1","","null","<div style=""display: flex; justify-content: center; align-items: center;"">
                     <img src=""images/semantic/semantic_series_7/semantic_series_7_b.png"" style=""width: 300px; height: 300px;"" />
                   </div>","null","7","2","B","",""
"","","","","","html-keyboard-response","96","730857","0.0-73.0-1.0-1.0","94A944252CFB4144A16F5870BF0B7D5E","0199d686-194f-7c1b-a032-420058b05039","0199d675-8795-765b-adc2-c813de8cd3d1","","null","<div style=""display: flex; justify-content: center; align-items: center;"">
                     <img src=""images/semantic/semantic_series_7/semantic_series_7_c.png"" style=""width: 300px; height: 300px;"" />
                   </div>","null","7","2","C","",""
"","","","","","html-keyboard-response","97","736857","0.0-73.0-1.0-2.0","94A944252CFB4144A16F5870BF0B7D5E","0199d686-194f-7c1b-a032-420058b05039","0199d675-8795-765b-adc2-c813de8cd3d1","","null","<div style=""display: flex; justify-content: center; align-items: center;"">
                     <img src=""images/semantic/semantic_series_7/semantic_series_7_d.png"" style=""width: 300px; height: 300px;"" />
                   </div>","null","7","2","D","",""
"","","","","","survey-likert","98","740302","0.0-74.0","94A944252CFB4144A16F5870BF0B7D5E","0199d686-194f-7c1b-a032-420058b05039","0199d675-8795-765b-adc2-c813de8cd3d1","","3444","","{""Q0"":2}","7","2","surprise_rating","","[0]"
"","","","","","survey-likert","99","741311","0.0-75.0","94A944252CFB4144A16F5870BF0B7D5E","0199d686-194f-7c1b-a032-420058b05039","0199d675-8795-765b-adc2-c813de8cd3d1","","1008","","{""Q0"":2}","7","2","enjoyment_rating","","[0]"
"","","","","","html-keyboard-response","100","747313","0.0-76.0","94A944252CFB4144A16F5870BF0B7D5E","0199d686-194f-7c1b-a032-420058b05039","0199d675-8795-765b-adc2-c813de8cd3d1","","null","<div style=""display: flex; justify-content: center; align-items: center;"">
                     <img src=""images/other/blank.png"" style=""width: 300px; height: 300px;"" />
                   </div>","null","0","0","blank","",""
"","","","","","html-keyboard-response","101","753315","0.0-77.0","94A944252CFB4144A16F5870BF0B7D5E","0199d686-194f-7c1b-a032-420058b05039","0199d675-8795-765b-adc2-c813de8cd3d1","","null","<div style=""display: flex; justify-content: center; align-items: center;"">
                     <img src=""images/causal/causal_series_1/causal_series_1_a.png"" style=""width: 300px; height: 300px;"" />
                   </div>","null","1","1","A","",""
"","","","","","html-button-response","102","756950","0.0-78.0","94A944252CFB4144A16F5870BF0B7D5E","0199d686-194f-7c1b-a032-420058b05039","0199d675-8795-765b-adc2-c813de8cd3d1","","3634","
        <div style=""display: flex; justify-content: center; align-items: center;"">
          <img src=""images/red_deck_2.png"" style=""width: 300px; height: 300px; margin-right: 10px;"" />
          <img src=""images/blue_deck_1.png"" style=""width: 300px; height: 300px;"" />
        </div>","1","1","1","choice","1",""
"","","","","","html-keyboard-response","103","762951","0.0-79.0-1.0-0.0","94A944252CFB4144A16F5870BF0B7D5E","0199d686-194f-7c1b-a032-420058b05039","0199d675-8795-765b-adc2-c813de8cd3d1","","null","<div style=""display: flex; justify-content: center; align-items: center;"">
                     <img src=""images/semantic/semantic_series_1/semantic_series_1_b.png"" style=""width: 300px; height: 300px;"" />
                   </div>","null","1","1","B","",""
"","","","","","html-keyboard-response","104","768952","0.0-79.0-1.0-1.0","94A944252CFB4144A16F5870BF0B7D5E","0199d686-194f-7c1b-a032-420058b05039","0199d675-8795-765b-adc2-c813de8cd3d1","","null","<div style=""display: flex; justify-content: center; align-items: center;"">
                     <img src=""images/semantic/semantic_series_1/semantic_series_1_c.png"" style=""width: 300px; height: 300px;"" />
                   </div>","null","1","1","C","",""
"","","","","","html-keyboard-response","105","774953","0.0-79.0-1.0-2.0","94A944252CFB4144A16F5870BF0B7D5E","0199d686-194f-7c1b-a032-420058b05039","0199d675-8795-765b-adc2-c813de8cd3d1","","null","<div style=""display: flex; justify-content: center; align-items: center;"">
                     <img src=""images/semantic/semantic_series_1/semantic_series_1_d.png"" style=""width: 300px; height: 300px;"" />
                   </div>","null","1","1","D","",""
"","","","","","survey-likert","106","777659","0.0-80.0","94A944252CFB4144A16F5870BF0B7D5E","0199d686-194f-7c1b-a032-420058b05039","0199d675-8795-765b-adc2-c813de8cd3d1","","2706","","{""Q0"":3}","1","1","surprise_rating","","[0]"
"","","","","","survey-likert","107","779011","0.0-81.0","94A944252CFB4144A16F5870BF0B7D5E","0199d686-194f-7c1b-a032-420058b05039","0199d675-8795-765b-adc2-c813de8cd3d1","","1351","","{""Q0"":2}","1","1","enjoyment_rating","","[0]"
"","","","","","html-keyboard-response","108","785013","0.0-82.0","94A944252CFB4144A16F5870BF0B7D5E","0199d686-194f-7c1b-a032-420058b05039","0199d675-8795-765b-adc2-c813de8cd3d1","","null","<div style=""display: flex; justify-content: center; align-items: center;"">
                     <img src=""images/other/blank.png"" style=""width: 300px; height: 300px;"" />
                   </div>","null","0","0","blank","",""
"","","","","","html-keyboard-response","109","791014","0.0-83.0","94A944252CFB4144A16F5870BF0B7D5E","0199d686-194f-7c1b-a032-420058b05039","0199d675-8795-765b-adc2-c813de8cd3d1","","null","<div style=""display: flex; justify-content: center; align-items: center;"">
                     <img src=""images/causal/causal_series_9/causal_series_9_a.png"" style=""width: 300px; height: 300px;"" />
                   </div>","null","9","1","A","",""
"","","","","","html-button-response","110","793439","0.0-84.0","94A944252CFB4144A16F5870BF0B7D5E","0199d686-194f-7c1b-a032-420058b05039","0199d675-8795-765b-adc2-c813de8cd3d1","","2425","
        <div style=""display: flex; justify-content: center; align-items: center;"">
          <img src=""images/red_deck_2.png"" style=""width: 300px; height: 300px; margin-right: 10px;"" />
          <img src=""images/blue_deck_1.png"" style=""width: 300px; height: 300px;"" />
        </div>","0","9","1","choice","0",""
"","","","","","html-keyboard-response","111","799440","0.0-85.0-0.0-0.0","94A944252CFB4144A16F5870BF0B7D5E","0199d686-194f-7c1b-a032-420058b05039","0199d675-8795-765b-adc2-c813de8cd3d1","","null","<div style=""display: flex; justify-content: center; align-items: center;"">
                     <img src=""images/causal/causal_series_9/causal_series_9_b.png"" style=""width: 300px; height: 300px;"" />
                   </div>","null","9","1","B","",""
"","","","","","html-keyboard-response","112","805442","0.0-85.0-0.0-1.0","94A944252CFB4144A16F5870BF0B7D5E","0199d686-194f-7c1b-a032-420058b05039","0199d675-8795-765b-adc2-c813de8cd3d1","","null","<div style=""display: flex; justify-content: center; align-items: center;"">
                     <img src=""images/causal/causal_series_9/causal_series_9_c.png"" style=""width: 300px; height: 300px;"" />
                   </div>","null","9","1","C","",""
"","","","","","html-keyboard-response","113","811444","0.0-85.0-0.0-2.0","94A944252CFB4144A16F5870BF0B7D5E","0199d686-194f-7c1b-a032-420058b05039","0199d675-8795-765b-adc2-c813de8cd3d1","","null","<div style=""display: flex; justify-content: center; align-items: center;"">
                     <img src=""images/causal/causal_series_9/causal_series_9_d.png"" style=""width: 300px; height: 300px;"" />
                   </div>","null","9","1","D","",""
"","","","","","survey-likert","114","819813","0.0-86.0","94A944252CFB4144A16F5870BF0B7D5E","0199d686-194f-7c1b-a032-420058b05039","0199d675-8795-765b-adc2-c813de8cd3d1","","8369","","{""Q0"":0}","9","1","surprise_rating","","[0]"
"","","","","","survey-likert","115","820994","0.0-87.0","94A944252CFB4144A16F5870BF0B7D5E","0199d686-194f-7c1b-a032-420058b05039","0199d675-8795-765b-adc2-c813de8cd3d1","","1180","","{""Q0"":0}","9","1","enjoyment_rating","","[0]"
"","","","","","html-keyboard-response","116","826996","0.0-88.0","94A944252CFB4144A16F5870BF0B7D5E","0199d686-194f-7c1b-a032-420058b05039","0199d675-8795-765b-adc2-c813de8cd3d1","","null","<div style=""display: flex; justify-content: center; align-items: center;"">
                     <img src=""images/other/blank.png"" style=""width: 300px; height: 300px;"" />
                   </div>","null","0","0","blank","",""
"","","","","","html-keyboard-response","117","832996","0.0-89.0","94A944252CFB4144A16F5870BF0B7D5E","0199d686-194f-7c1b-a032-420058b05039","0199d675-8795-765b-adc2-c813de8cd3d1","","null","<div style=""display: flex; justify-content: center; align-items: center;"">
                     <img src=""images/causal/causal_series_8/causal_series_8_a.png"" style=""width: 300px; height: 300px;"" />
                   </div>","null","8","2","A","",""
"","","","","","html-button-response","118","838945","0.0-90.0","94A944252CFB4144A16F5870BF0B7D5E","0199d686-194f-7c1b-a032-420058b05039","0199d675-8795-765b-adc2-c813de8cd3d1","","5948","
        <div style=""display: flex; justify-content: center; align-items: center;"">
          <img src=""images/red_deck_2.png"" style=""width: 300px; height: 300px; margin-right: 10px;"" />
          <img src=""images/blue_deck_1.png"" style=""width: 300px; height: 300px;"" />
        </div>","1","8","2","choice","1",""
"","","","","","html-keyboard-response","119","844947","0.0-91.0-1.0-0.0","94A944252CFB4144A16F5870BF0B7D5E","0199d686-194f-7c1b-a032-420058b05039","0199d675-8795-765b-adc2-c813de8cd3d1","","null","<div style=""display: flex; justify-content: center; align-items: center;"">
                     <img src=""images/semantic/semantic_series_8/semantic_series_8_b.png"" style=""width: 300px; height: 300px;"" />
                   </div>","null","8","2","B","",""
"","","","","","html-keyboard-response","120","850948","0.0-91.0-1.0-1.0","94A944252CFB4144A16F5870BF0B7D5E","0199d686-194f-7c1b-a032-420058b05039","0199d675-8795-765b-adc2-c813de8cd3d1","","null","<div style=""display: flex; justify-content: center; align-items: center;"">
                     <img src=""images/semantic/semantic_series_8/semantic_series_8_c.png"" style=""width: 300px; height: 300px;"" />
                   </div>","null","8","2","C","",""
"","","","","","html-keyboard-response","121","856949","0.0-91.0-1.0-2.0","94A944252CFB4144A16F5870BF0B7D5E","0199d686-194f-7c1b-a032-420058b05039","0199d675-8795-765b-adc2-c813de8cd3d1","","null","<div style=""display: flex; justify-content: center; align-items: center;"">
                     <img src=""images/semantic/semantic_series_8/semantic_series_8_d.png"" style=""width: 300px; height: 300px;"" />
                   </div>","null","8","2","D","",""
"","","","","","survey-likert","122","864550","0.0-92.0","94A944252CFB4144A16F5870BF0B7D5E","0199d686-194f-7c1b-a032-420058b05039","0199d675-8795-765b-adc2-c813de8cd3d1","","7601","","{""Q0"":2}","8","2","surprise_rating","","[0]"
"","","","","","survey-likert","123","865454","0.0-93.0","94A944252CFB4144A16F5870BF0B7D5E","0199d686-194f-7c1b-a032-420058b05039","0199d675-8795-765b-adc2-c813de8cd3d1","","903","","{""Q0"":2}","8","2","enjoyment_rating","","[0]"
"","","","","","html-keyboard-response","124","871465","0.0-94.0","94A944252CFB4144A16F5870BF0B7D5E","0199d686-194f-7c1b-a032-420058b05039","0199d675-8795-765b-adc2-c813de8cd3d1","","null","<div style=""display: flex; justify-content: center; align-items: center;"">
                     <img src=""images/other/blank.png"" style=""width: 300px; height: 300px;"" />
                   </div>","null","0","0","blank","",""
"","","","","","html-keyboard-response","125","877467","0.0-95.0","94A944252CFB4144A16F5870BF0B7D5E","0199d686-194f-7c1b-a032-420058b05039","0199d675-8795-765b-adc2-c813de8cd3d1","","null","<div style=""display: flex; justify-content: center; align-items: center;"">
                     <img src=""images/causal/causal_series_8/causal_series_8_a.png"" style=""width: 300px; height: 300px;"" />
                   </div>","null","8","1","A","",""
"","","","","","html-button-response","126","897168","0.0-96.0","94A944252CFB4144A16F5870BF0B7D5E","0199d686-194f-7c1b-a032-420058b05039","0199d675-8795-765b-adc2-c813de8cd3d1","","19700","
        <div style=""display: flex; justify-content: center; align-items: center;"">
          <img src=""images/red_deck_2.png"" style=""width: 300px; height: 300px; margin-right: 10px;"" />
          <img src=""images/blue_deck_1.png"" style=""width: 300px; height: 300px;"" />
        </div>","0","8","1","choice","0",""
"","","","","","html-keyboard-response","127","903169","0.0-97.0-0.0-0.0","94A944252CFB4144A16F5870BF0B7D5E","0199d686-194f-7c1b-a032-420058b05039","0199d675-8795-765b-adc2-c813de8cd3d1","","null","<div style=""display: flex; justify-content: center; align-items: center;"">
                     <img src=""images/causal/causal_series_8/causal_series_8_b.png"" style=""width: 300px; height: 300px;"" />
                   </div>","null","8","1","B","",""
"","","","","","html-keyboard-response","128","909169","0.0-97.0-0.0-1.0","94A944252CFB4144A16F5870BF0B7D5E","0199d686-194f-7c1b-a032-420058b05039","0199d675-8795-765b-adc2-c813de8cd3d1","","null","<div style=""display: flex; justify-content: center; align-items: center;"">
                     <img src=""images/causal/causal_series_8/causal_series_8_c.png"" style=""width: 300px; height: 300px;"" />
                   </div>","null","8","1","C","",""
"","","","","","html-keyboard-response","129","915171","0.0-97.0-0.0-2.0","94A944252CFB4144A16F5870BF0B7D5E","0199d686-194f-7c1b-a032-420058b05039","0199d675-8795-765b-adc2-c813de8cd3d1","","null","<div style=""display: flex; justify-content: center; align-items: center;"">
                     <img src=""images/causal/causal_series_8/causal_series_8_d.png"" style=""width: 300px; height: 300px;"" />
                   </div>","null","8","1","D","",""
"","","","","","survey-likert","130","917773","0.0-98.0","94A944252CFB4144A16F5870BF0B7D5E","0199d686-194f-7c1b-a032-420058b05039","0199d675-8795-765b-adc2-c813de8cd3d1","","2602","","{""Q0"":3}","8","1","surprise_rating","","[0]"
"","","","","","survey-likert","131","919397","0.0-99.0","94A944252CFB4144A16F5870BF0B7D5E","0199d686-194f-7c1b-a032-420058b05039","0199d675-8795-765b-adc2-c813de8cd3d1","","1623","","{""Q0"":3}","8","1","enjoyment_rating","","[0]"
"","","","","","html-keyboard-response","132","925398","0.0-100.0","94A944252CFB4144A16F5870BF0B7D5E","0199d686-194f-7c1b-a032-420058b05039","0199d675-8795-765b-adc2-c813de8cd3d1","","null","<div style=""display: flex; justify-content: center; align-items: center;"">
                     <img src=""images/other/blank.png"" style=""width: 300px; height: 300px;"" />
                   </div>","null","0","0","blank","",""
"","","","","","html-keyboard-response","133","931399","0.0-101.0","94A944252CFB4144A16F5870BF0B7D5E","0199d686-194f-7c1b-a032-420058b05039","0199d675-8795-765b-adc2-c813de8cd3d1","","null","<div style=""display: flex; justify-content: center; align-items: center;"">
                     <img src=""images/causal/causal_series_7/causal_series_7_a.png"" style=""width: 300px; height: 300px;"" />
                   </div>","null","7","1","A","",""
"","","","","","html-button-response","134","933425","0.0-102.0","94A944252CFB4144A16F5870BF0B7D5E","0199d686-194f-7c1b-a032-420058b05039","0199d675-8795-765b-adc2-c813de8cd3d1","","2025","
        <div style=""display: flex; justify-content: center; align-items: center;"">
          <img src=""images/red_deck_2.png"" style=""width: 300px; height: 300px; margin-right: 10px;"" />
          <img src=""images/blue_deck_1.png"" style=""width: 300px; height: 300px;"" />
        </div>","0","7","1","choice","0",""
"","","","","","html-keyboard-response","135","939426","0.0-103.0-0.0-0.0","94A944252CFB4144A16F5870BF0B7D5E","0199d686-194f-7c1b-a032-420058b05039","0199d675-8795-765b-adc2-c813de8cd3d1","","null","<div style=""display: flex; justify-content: center; align-items: center;"">
                     <img src=""images/causal/causal_series_7/causal_series_7_b.png"" style=""width: 300px; height: 300px;"" />
                   </div>","null","7","1","B","",""
"","","","","","html-keyboard-response","136","945427","0.0-103.0-0.0-1.0","94A944252CFB4144A16F5870BF0B7D5E","0199d686-194f-7c1b-a032-420058b05039","0199d675-8795-765b-adc2-c813de8cd3d1","","null","<div style=""display: flex; justify-content: center; align-items: center;"">
                     <img src=""images/causal/causal_series_7/causal_series_7_c.png"" style=""width: 300px; height: 300px;"" />
                   </div>","null","7","1","C","",""
"","","","","","html-keyboard-response","137","951429","0.0-103.0-0.0-2.0","94A944252CFB4144A16F5870BF0B7D5E","0199d686-194f-7c1b-a032-420058b05039","0199d675-8795-765b-adc2-c813de8cd3d1","","null","<div style=""display: flex; justify-content: center; align-items: center;"">
                     <img src=""images/causal/causal_series_7/causal_series_7_d.png"" style=""width: 300px; height: 300px;"" />
                   </div>","null","7","1","D","",""
"","","","","","survey-likert","138","953772","0.0-104.0","94A944252CFB4144A16F5870BF0B7D5E","0199d686-194f-7c1b-a032-420058b05039","0199d675-8795-765b-adc2-c813de8cd3d1","","2343","","{""Q0"":2}","7","1","surprise_rating","","[0]"
"","","","","","survey-likert","139","954892","0.0-105.0","94A944252CFB4144A16F5870BF0B7D5E","0199d686-194f-7c1b-a032-420058b05039","0199d675-8795-765b-adc2-c813de8cd3d1","","1119","","{""Q0"":2}","7","1","enjoyment_rating","","[0]"
"","","","","","html-keyboard-response","140","960893","0.0-106.0","94A944252CFB4144A16F5870BF0B7D5E","0199d686-194f-7c1b-a032-420058b05039","0199d675-8795-765b-adc2-c813de8cd3d1","","null","<div style=""display: flex; justify-content: center; align-items: center;"">
                     <img src=""images/other/blank.png"" style=""width: 300px; height: 300px;"" />
                   </div>","null","0","0","blank","",""
"","","","","","html-keyboard-response","141","966894","0.0-107.0","94A944252CFB4144A16F5870BF0B7D5E","0199d686-194f-7c1b-a032-420058b05039","0199d675-8795-765b-adc2-c813de8cd3d1","","null","<div style=""display: flex; justify-content: center; align-items: center;"">
                     <img src=""images/causal/causal_series_3/causal_series_3_a.png"" style=""width: 300px; height: 300px;"" />
                   </div>","null","3","1","A","",""
"","","","","","html-button-response","142","971183","0.0-108.0","94A944252CFB4144A16F5870BF0B7D5E","0199d686-194f-7c1b-a032-420058b05039","0199d675-8795-765b-adc2-c813de8cd3d1","","4288","
        <div style=""display: flex; justify-content: center; align-items: center;"">
          <img src=""images/red_deck_2.png"" style=""width: 300px; height: 300px; margin-right: 10px;"" />
          <img src=""images/blue_deck_1.png"" style=""width: 300px; height: 300px;"" />
        </div>","0","3","1","choice","0",""
"","","","","","html-keyboard-response","143","977185","0.0-109.0-0.0-0.0","94A944252CFB4144A16F5870BF0B7D5E","0199d686-194f-7c1b-a032-420058b05039","0199d675-8795-765b-adc2-c813de8cd3d1","","null","<div style=""display: flex; justify-content: center; align-items: center;"">
                     <img src=""images/causal/causal_series_3/causal_series_3_b.png"" style=""width: 300px; height: 300px;"" />
                   </div>","null","3","1","B","",""
"","","","","","html-keyboard-response","144","983187","0.0-109.0-0.0-1.0","94A944252CFB4144A16F5870BF0B7D5E","0199d686-194f-7c1b-a032-420058b05039","0199d675-8795-765b-adc2-c813de8cd3d1","","null","<div style=""display: flex; justify-content: center; align-items: center;"">
                     <img src=""images/causal/causal_series_3/causal_series_3_c.png"" style=""width: 300px; height: 300px;"" />
                   </div>","null","3","1","C","",""
"","","","","","html-keyboard-response","145","989187","0.0-109.0-0.0-2.0","94A944252CFB4144A16F5870BF0B7D5E","0199d686-194f-7c1b-a032-420058b05039","0199d675-8795-765b-adc2-c813de8cd3d1","","null","<div style=""display: flex; justify-content: center; align-items: center;"">
                     <img src=""images/causal/causal_series_3/causal_series_3_d.png"" style=""width: 300px; height: 300px;"" />
                   </div>","null","3","1","D","",""
"","","","","","survey-likert","146","991889","0.0-110.0","94A944252CFB4144A16F5870BF0B7D5E","0199d686-194f-7c1b-a032-420058b05039","0199d675-8795-765b-adc2-c813de8cd3d1","","2701","","{""Q0"":2}","3","1","surprise_rating","","[0]"
"","","","","","survey-likert","147","992901","0.0-111.0","94A944252CFB4144A16F5870BF0B7D5E","0199d686-194f-7c1b-a032-420058b05039","0199d675-8795-765b-adc2-c813de8cd3d1","","1012","","{""Q0"":2}","3","1","enjoyment_rating","","[0]"
"","","","","","html-keyboard-response","148","998903","0.0-112.0","94A944252CFB4144A16F5870BF0B7D5E","0199d686-194f-7c1b-a032-420058b05039","0199d675-8795-765b-adc2-c813de8cd3d1","","null","<div style=""display: flex; justify-content: center; align-items: center;"">
                     <img src=""images/other/blank.png"" style=""width: 300px; height: 300px;"" />
                   </div>","null","0","0","blank","",""
"","","","","","html-keyboard-response","149","1004904","0.0-113.0","94A944252CFB4144A16F5870BF0B7D5E","0199d686-194f-7c1b-a032-420058b05039","0199d675-8795-765b-adc2-c813de8cd3d1","","null","<div style=""display: flex; justify-content: center; align-items: center;"">
                     <img src=""images/causal/causal_series_6/causal_series_6_a.png"" style=""width: 300px; height: 300px;"" />
                   </div>","null","6","1","A","",""
"","","","","","html-button-response","150","1006986","0.0-114.0","94A944252CFB4144A16F5870BF0B7D5E","0199d686-194f-7c1b-a032-420058b05039","0199d675-8795-765b-adc2-c813de8cd3d1","","2081","
        <div style=""display: flex; justify-content: center; align-items: center;"">
          <img src=""images/red_deck_2.png"" style=""width: 300px; height: 300px; margin-right: 10px;"" />
          <img src=""images/blue_deck_1.png"" style=""width: 300px; height: 300px;"" />
        </div>","1","6","1","choice","1",""
"","","","","","html-keyboard-response","151","1012987","0.0-115.0-1.0-0.0","94A944252CFB4144A16F5870BF0B7D5E","0199d686-194f-7c1b-a032-420058b05039","0199d675-8795-765b-adc2-c813de8cd3d1","","null","<div style=""display: flex; justify-content: center; align-items: center;"">
                     <img src=""images/semantic/semantic_series_6/semantic_series_6_b.png"" style=""width: 300px; height: 300px;"" />
                   </div>","null","6","1","B","",""
"","","","","","html-keyboard-response","152","1018989","0.0-115.0-1.0-1.0","94A944252CFB4144A16F5870BF0B7D5E","0199d686-194f-7c1b-a032-420058b05039","0199d675-8795-765b-adc2-c813de8cd3d1","","null","<div style=""display: flex; justify-content: center; align-items: center;"">
                     <img src=""images/semantic/semantic_series_6/semantic_series_6_c.png"" style=""width: 300px; height: 300px;"" />
                   </div>","null","6","1","C","",""
"","","","","","html-keyboard-response","153","1024990","0.0-115.0-1.0-2.0","94A944252CFB4144A16F5870BF0B7D5E","0199d686-194f-7c1b-a032-420058b05039","0199d675-8795-765b-adc2-c813de8cd3d1","","null","<div style=""display: flex; justify-content: center; align-items: center;"">
                     <img src=""images/semantic/semantic_series_6/semantic_series_6_d.png"" style=""width: 300px; height: 300px;"" />
                   </div>","null","6","1","D","",""
"","","","","","survey-likert","154","1027576","0.0-116.0","94A944252CFB4144A16F5870BF0B7D5E","0199d686-194f-7c1b-a032-420058b05039","0199d675-8795-765b-adc2-c813de8cd3d1","","2585","","{""Q0"":2}","6","1","surprise_rating","","[0]"
"","","","","","survey-likert","155","1028639","0.0-117.0","94A944252CFB4144A16F5870BF0B7D5E","0199d686-194f-7c1b-a032-420058b05039","0199d675-8795-765b-adc2-c813de8cd3d1","","1062","","{""Q0"":2}","6","1","enjoyment_rating","","[0]"
"","","","","","html-keyboard-response","156","1034640","0.0-118.0","94A944252CFB4144A16F5870BF0B7D5E","0199d686-194f-7c1b-a032-420058b05039","0199d675-8795-765b-adc2-c813de8cd3d1","","null","<div style=""display: flex; justify-content: center; align-items: center;"">
                     <img src=""images/other/blank.png"" style=""width: 300px; height: 300px;"" />
                   </div>","null","0","0","blank","",""
"","","","","","html-keyboard-response","157","1040642","0.0-119.0","94A944252CFB4144A16F5870BF0B7D5E","0199d686-194f-7c1b-a032-420058b05039","0199d675-8795-765b-adc2-c813de8cd3d1","","null","<div style=""display: flex; justify-content: center; align-items: center;"">
                     <img src=""images/causal/causal_series_10/causal_series_10_a.png"" style=""width: 300px; height: 300px;"" />
                   </div>","null","10","2","A","",""
"","","","","","html-button-response","158","1053122","0.0-120.0","94A944252CFB4144A16F5870BF0B7D5E","0199d686-194f-7c1b-a032-420058b05039","0199d675-8795-765b-adc2-c813de8cd3d1","","12479","
        <div style=""display: flex; justify-content: center; align-items: center;"">
          <img src=""images/red_deck_2.png"" style=""width: 300px; height: 300px; margin-right: 10px;"" />
          <img src=""images/blue_deck_1.png"" style=""width: 300px; height: 300px;"" />
        </div>","1","10","2","choice","1",""
"","","","","","html-keyboard-response","159","1059123","0.0-121.0-1.0-0.0","94A944252CFB4144A16F5870BF0B7D5E","0199d686-194f-7c1b-a032-420058b05039","0199d675-8795-765b-adc2-c813de8cd3d1","","null","<div style=""display: flex; justify-content: center; align-items: center;"">
                     <img src=""images/semantic/semantic_series_10/semantic_series_10_b.png"" style=""width: 300px; height: 300px;"" />
                   </div>","null","10","2","B","",""
"","","","","","html-keyboard-response","160","1065125","0.0-121.0-1.0-1.0","94A944252CFB4144A16F5870BF0B7D5E","0199d686-194f-7c1b-a032-420058b05039","0199d675-8795-765b-adc2-c813de8cd3d1","","null","<div style=""display: flex; justify-content: center; align-items: center;"">
                     <img src=""images/semantic/semantic_series_10/semantic_series_10_c.png"" style=""width: 300px; height: 300px;"" />
                   </div>","null","10","2","C","",""
"","","","","","html-keyboard-response","161","1071125","0.0-121.0-1.0-2.0","94A944252CFB4144A16F5870BF0B7D5E","0199d686-194f-7c1b-a032-420058b05039","0199d675-8795-765b-adc2-c813de8cd3d1","","null","<div style=""display: flex; justify-content: center; align-items: center;"">
                     <img src=""images/semantic/semantic_series_10/semantic_series_10_d.png"" style=""width: 300px; height: 300px;"" />
                   </div>","null","10","2","D","",""
"","","","","","survey-likert","162","1076669","0.0-122.0","94A944252CFB4144A16F5870BF0B7D5E","0199d686-194f-7c1b-a032-420058b05039","0199d675-8795-765b-adc2-c813de8cd3d1","","5544","","{""Q0"":0}","10","2","surprise_rating","","[0]"
"","","","","","survey-likert","163","1077881","0.0-123.0","94A944252CFB4144A16F5870BF0B7D5E","0199d686-194f-7c1b-a032-420058b05039","0199d675-8795-765b-adc2-c813de8cd3d1","","1211","","{""Q0"":3}","10","2","enjoyment_rating","","[0]"
"","","","","","html-keyboard-response","164","1083883","0.0-124.0","94A944252CFB4144A16F5870BF0B7D5E","0199d686-194f-7c1b-a032-420058b05039","0199d675-8795-765b-adc2-c813de8cd3d1","","null","<div style=""display: flex; justify-content: center; align-items: center;"">
                     <img src=""images/other/blank.png"" style=""width: 300px; height: 300px;"" />
                   </div>","null","0","0","blank","",""
"","","","","","survey-text","165","1102117","0.0-125.0","94A944252CFB4144A16F5870BF0B7D5E","0199d686-194f-7c1b-a032-420058b05039","0199d675-8795-765b-adc2-c813de8cd3d1","","18232","","{""Q0"":""One was very plain and the other was more random""}","","","","",""
"","","","","","html-button-response","166","1108123","0.0-126.0","94A944252CFB4144A16F5870BF0B7D5E","0199d686-194f-7c1b-a032-420058b05039","0199d675-8795-765b-adc2-c813de8cd3d1","","6005","Which color deck do the following sentences continue the story from?","0","","","","",""
"","","","","","html-button-response","167","1109420","0.0-127.0","94A944252CFB4144A16F5870BF0B7D5E","0199d686-194f-7c1b-a032-420058b05039","0199d675-8795-765b-adc2-c813de8cd3d1","","1297","Which color deck do the following sentences NOT follow the story from?","1","","","","",""
"","","","","","html-button-response","168","1113385","0.0-128.0","94A944252CFB4144A16F5870BF0B7D5E","0199d686-194f-7c1b-a032-420058b05039","0199d675-8795-765b-adc2-c813de8cd3d1","","3964","Which type of deck did you prefer overall?","0","","","","",""
"","","","","","survey-text","169","1119251","0.0-129.0","94A944252CFB4144A16F5870BF0B7D5E","0199d686-194f-7c1b-a032-420058b05039","0199d675-8795-765b-adc2-c813de8cd3d1","","5863","","{""Q0"":""FEMALE"",""Q1"":""24""}","","","","",""
"","","","","","instructions","170","1123047","0.0-130.0","94A944252CFB4144A16F5870BF0B7D5E","0199d686-194f-7c1b-a032-420058b05039","0199d675-8795-765b-adc2-c813de8cd3d1","[{""page_index"":0,""viewing_time"":3795}]","3795","","","","","","",""
