"success","timeout","failed_images","failed_audio","failed_video","trial_type","trial_index","time_elapsed","internal_node_id","subject_id","study_id","session_id","view_history","rt","stimulus","response","choice"
"true","false","[]","[]","[]","preload","0","5633","0.0-0.0","E64CD767B60A44B3AD2ADED7AE7B102E","09787da6-1bf7-4ebe-9a32-b46096316415","4f03f330-5f91-43fc-aa61-d9dda6d26521","","","","",""
"","","","","","instructions","1","10302","0.0-1.0","E64CD767B60A44B3AD2ADED7AE7B102E","09787da6-1bf7-4ebe-9a32-b46096316415","4f03f330-5f91-43fc-aa61-d9dda6d26521","[{""page_index"":0,""viewing_time"":4668}]","4668","","",""
"","","","","","instructions","2","22283","0.0-2.0","E64CD767B60A44B3AD2ADED7AE7B102E","09787da6-1bf7-4ebe-9a32-b46096316415","4f03f330-5f91-43fc-aa61-d9dda6d26521","[{""page_index"":0,""viewing_time"":11981}]","11981","","",""
"true","","","","","fullscreen","3","25369","0.0-3.0","E64CD767B60A44B3AD2ADED7AE7B102E","09787da6-1bf7-4ebe-9a32-b46096316415","4f03f330-5f91-43fc-aa61-d9dda6d26521","","2082","","",""
"","","","","","instructions","4","38993","0.0-4.0","E64CD767B60A44B3AD2ADED7AE7B102E","09787da6-1bf7-4ebe-9a32-b46096316415","4f03f330-5f91-43fc-aa61-d9dda6d26521","[{""page_index"":0,""viewing_time"":13623}]","13624","","",""
"","","","","","html-keyboard-response","5","42001","0.0-5.0","E64CD767B60A44B3AD2ADED7AE7B102E","09787da6-1bf7-4ebe-9a32-b46096316415","4f03f330-5f91-43fc-aa61-d9dda6d26521","","null","<div style=""display: flex; justify-content: center; align-items: center;"">
                <img src=""images/causal/causal_series_9/causal_series_9_a.jpg"" style=""width: 300px; height: 300px;"" />
              </div>","null",""
"","","","","","html-button-response","6","46465","0.0-6.0","E64CD767B60A44B3AD2ADED7AE7B102E","09787da6-1bf7-4ebe-9a32-b46096316415","4f03f330-5f91-43fc-aa61-d9dda6d26521","","4462","
    <div style=""display: flex; justify-content: center; align-items: center;"">
      <img src=""images/red_deck_2.png"" style=""width: 300px; height: 300px; margin-right: 10px;"" />
      <img src=""images/blue_deck_1.png"" style=""width: 300px; height: 300px;"" />
    </div>","0","0"
"","","","","","html-keyboard-response","7","49465","0.0-7.0-0.0-0.0","E64CD767B60A44B3AD2ADED7AE7B102E","09787da6-1bf7-4ebe-9a32-b46096316415","4f03f330-5f91-43fc-aa61-d9dda6d26521","","null","<div style=""display: flex; justify-content: center; align-items: center;"">
                <img src=""images/causal/causal_series_9/causal_series_9_b.jpg"" style=""width: 300px; height: 300px;"" />
              </div>","null",""
"","","","","","html-keyboard-response","8","52476","0.0-7.0-0.0-1.0","E64CD767B60A44B3AD2ADED7AE7B102E","09787da6-1bf7-4ebe-9a32-b46096316415","4f03f330-5f91-43fc-aa61-d9dda6d26521","","null","<div style=""display: flex; justify-content: center; align-items: center;"">
                <img src=""images/causal/causal_series_9/causal_series_9_c.jpg"" style=""width: 300px; height: 300px;"" />
              </div>","null",""
"","","","","","html-keyboard-response","9","55478","0.0-7.0-0.0-2.0","E64CD767B60A44B3AD2ADED7AE7B102E","09787da6-1bf7-4ebe-9a32-b46096316415","4f03f330-5f91-43fc-aa61-d9dda6d26521","","null","<div style=""display: flex; justify-content: center; align-items: center;"">
                <img src=""images/causal/causal_series_9/causal_series_9_d.jpg"" style=""width: 300px; height: 300px;"" />
              </div>","null",""
"","","","","","html-keyboard-response","10","58486","0.0-8.0","E64CD767B60A44B3AD2ADED7AE7B102E","09787da6-1bf7-4ebe-9a32-b46096316415","4f03f330-5f91-43fc-aa61-d9dda6d26521","","null","<div style=""display: flex; justify-content: center; align-items: center;"">
                <img src=""images/other/blank.jpg"" style=""width: 300px; height: 300px;"" />
              </div>","null",""
"","","","","","html-keyboard-response","11","61489","0.0-9.0","E64CD767B60A44B3AD2ADED7AE7B102E","09787da6-1bf7-4ebe-9a32-b46096316415","4f03f330-5f91-43fc-aa61-d9dda6d26521","","null","<div style=""display: flex; justify-content: center; align-items: center;"">
                <img src=""images/causal/causal_series_11/causal_series_11_a.jpg"" style=""width: 300px; height: 300px;"" />
              </div>","null",""
"","","","","","html-button-response","12","62712","0.0-10.0","E64CD767B60A44B3AD2ADED7AE7B102E","09787da6-1bf7-4ebe-9a32-b46096316415","4f03f330-5f91-43fc-aa61-d9dda6d26521","","1221","
    <div style=""display: flex; justify-content: center; align-items: center;"">
      <img src=""images/red_deck_2.png"" style=""width: 300px; height: 300px; margin-right: 10px;"" />
      <img src=""images/blue_deck_1.png"" style=""width: 300px; height: 300px;"" />
    </div>","1","1"
"","","","","","html-keyboard-response","13","65722","0.0-11.0-1.0-0.0","E64CD767B60A44B3AD2ADED7AE7B102E","09787da6-1bf7-4ebe-9a32-b46096316415","4f03f330-5f91-43fc-aa61-d9dda6d26521","","null","<div style=""display: flex; justify-content: center; align-items: center;"">
                <img src=""images/semantic/semantic_series_12/semantic_series_12_d.jpg"" style=""width: 300px; height: 300px;"" />
              </div>","null",""
"","","","","","html-keyboard-response","14","68728","0.0-11.0-1.0-1.0","E64CD767B60A44B3AD2ADED7AE7B102E","09787da6-1bf7-4ebe-9a32-b46096316415","4f03f330-5f91-43fc-aa61-d9dda6d26521","","null","<div style=""display: flex; justify-content: center; align-items: center;"">
                <img src=""images/semantic/semantic_series_13/semantic_series_13_d.jpg"" style=""width: 300px; height: 300px;"" />
              </div>","null",""
"","","","","","html-keyboard-response","15","71733","0.0-11.0-1.0-2.0","E64CD767B60A44B3AD2ADED7AE7B102E","09787da6-1bf7-4ebe-9a32-b46096316415","4f03f330-5f91-43fc-aa61-d9dda6d26521","","null","<div style=""display: flex; justify-content: center; align-items: center;"">
                <img src=""images/semantic/semantic_series_14/semantic_series_14_d.jpg"" style=""width: 300px; height: 300px;"" />
              </div>","null",""
"","","","","","html-keyboard-response","16","74736","0.0-12.0","E64CD767B60A44B3AD2ADED7AE7B102E","09787da6-1bf7-4ebe-9a32-b46096316415","4f03f330-5f91-43fc-aa61-d9dda6d26521","","null","<div style=""display: flex; justify-content: center; align-items: center;"">
                <img src=""images/other/blank.jpg"" style=""width: 300px; height: 300px;"" />
              </div>","null",""
"","","","","","html-keyboard-response","17","77749","0.0-13.0","E64CD767B60A44B3AD2ADED7AE7B102E","09787da6-1bf7-4ebe-9a32-b46096316415","4f03f330-5f91-43fc-aa61-d9dda6d26521","","null","<div style=""display: flex; justify-content: center; align-items: center;"">
                <img src=""images/causal/causal_series_15/causal_series_15_a.jpg"" style=""width: 300px; height: 300px;"" />
              </div>","null",""
"","","","","","html-button-response","18","79241","0.0-14.0","E64CD767B60A44B3AD2ADED7AE7B102E","09787da6-1bf7-4ebe-9a32-b46096316415","4f03f330-5f91-43fc-aa61-d9dda6d26521","","1492","
    <div style=""display: flex; justify-content: center; align-items: center;"">
      <img src=""images/red_deck_2.png"" style=""width: 300px; height: 300px; margin-right: 10px;"" />
      <img src=""images/blue_deck_1.png"" style=""width: 300px; height: 300px;"" />
    </div>","0","0"
"","","","","","html-keyboard-response","19","82251","0.0-15.0-0.0-0.0","E64CD767B60A44B3AD2ADED7AE7B102E","09787da6-1bf7-4ebe-9a32-b46096316415","4f03f330-5f91-43fc-aa61-d9dda6d26521","","null","<div style=""display: flex; justify-content: center; align-items: center;"">
                <img src=""images/causal/causal_series_15/causal_series_15_b.jpg"" style=""width: 300px; height: 300px;"" />
              </div>","null",""
"","","","","","html-keyboard-response","20","85266","0.0-15.0-0.0-1.0","E64CD767B60A44B3AD2ADED7AE7B102E","09787da6-1bf7-4ebe-9a32-b46096316415","4f03f330-5f91-43fc-aa61-d9dda6d26521","","null","<div style=""display: flex; justify-content: center; align-items: center;"">
                <img src=""images/causal/causal_series_15/causal_series_15_c.jpg"" style=""width: 300px; height: 300px;"" />
              </div>","null",""
"","","","","","html-keyboard-response","21","88281","0.0-15.0-0.0-2.0","E64CD767B60A44B3AD2ADED7AE7B102E","09787da6-1bf7-4ebe-9a32-b46096316415","4f03f330-5f91-43fc-aa61-d9dda6d26521","","null","<div style=""display: flex; justify-content: center; align-items: center;"">
                <img src=""images/causal/causal_series_15/causal_series_15_d.jpg"" style=""width: 300px; height: 300px;"" />
              </div>","null",""
"","","","","","html-keyboard-response","22","91288","0.0-16.0","E64CD767B60A44B3AD2ADED7AE7B102E","09787da6-1bf7-4ebe-9a32-b46096316415","4f03f330-5f91-43fc-aa61-d9dda6d26521","","null","<div style=""display: flex; justify-content: center; align-items: center;"">
                <img src=""images/other/blank.jpg"" style=""width: 300px; height: 300px;"" />
              </div>","null",""
"","","","","","html-keyboard-response","23","94293","0.0-17.0","E64CD767B60A44B3AD2ADED7AE7B102E","09787da6-1bf7-4ebe-9a32-b46096316415","4f03f330-5f91-43fc-aa61-d9dda6d26521","","null","<div style=""display: flex; justify-content: center; align-items: center;"">
                <img src=""images/causal/causal_series_1/causal_series_1_a.jpg"" style=""width: 300px; height: 300px;"" />
              </div>","null",""
"","","","","","html-button-response","24","94999","0.0-18.0","E64CD767B60A44B3AD2ADED7AE7B102E","09787da6-1bf7-4ebe-9a32-b46096316415","4f03f330-5f91-43fc-aa61-d9dda6d26521","","706","
    <div style=""display: flex; justify-content: center; align-items: center;"">
      <img src=""images/red_deck_2.png"" style=""width: 300px; height: 300px; margin-right: 10px;"" />
      <img src=""images/blue_deck_1.png"" style=""width: 300px; height: 300px;"" />
    </div>","0","0"
"","","","","","html-keyboard-response","25","98002","0.0-19.0-0.0-0.0","E64CD767B60A44B3AD2ADED7AE7B102E","09787da6-1bf7-4ebe-9a32-b46096316415","4f03f330-5f91-43fc-aa61-d9dda6d26521","","null","<div style=""display: flex; justify-content: center; align-items: center;"">
                <img src=""images/causal/causal_series_1/causal_series_1_b.jpg"" style=""width: 300px; height: 300px;"" />
              </div>","null",""
"","","","","","html-keyboard-response","26","101003","0.0-19.0-0.0-1.0","E64CD767B60A44B3AD2ADED7AE7B102E","09787da6-1bf7-4ebe-9a32-b46096316415","4f03f330-5f91-43fc-aa61-d9dda6d26521","","null","<div style=""display: flex; justify-content: center; align-items: center;"">
                <img src=""images/causal/causal_series_1/causal_series_1_c.jpg"" style=""width: 300px; height: 300px;"" />
              </div>","null",""
"","","","","","html-keyboard-response","27","104005","0.0-19.0-0.0-2.0","E64CD767B60A44B3AD2ADED7AE7B102E","09787da6-1bf7-4ebe-9a32-b46096316415","4f03f330-5f91-43fc-aa61-d9dda6d26521","","null","<div style=""display: flex; justify-content: center; align-items: center;"">
                <img src=""images/causal/causal_series_1/causal_series_1_d.jpg"" style=""width: 300px; height: 300px;"" />
              </div>","null",""
"","","","","","html-keyboard-response","28","107012","0.0-20.0","E64CD767B60A44B3AD2ADED7AE7B102E","09787da6-1bf7-4ebe-9a32-b46096316415","4f03f330-5f91-43fc-aa61-d9dda6d26521","","null","<div style=""display: flex; justify-content: center; align-items: center;"">
                <img src=""images/other/blank.jpg"" style=""width: 300px; height: 300px;"" />
              </div>","null",""
"","","","","","html-keyboard-response","29","110014","0.0-21.0","E64CD767B60A44B3AD2ADED7AE7B102E","09787da6-1bf7-4ebe-9a32-b46096316415","4f03f330-5f91-43fc-aa61-d9dda6d26521","","null","<div style=""display: flex; justify-content: center; align-items: center;"">
                <img src=""images/causal/causal_series_6/causal_series_6_a.jpg"" style=""width: 300px; height: 300px;"" />
              </div>","null",""
"","","","","","html-button-response","30","110478","0.0-22.0","E64CD767B60A44B3AD2ADED7AE7B102E","09787da6-1bf7-4ebe-9a32-b46096316415","4f03f330-5f91-43fc-aa61-d9dda6d26521","","463","
    <div style=""display: flex; justify-content: center; align-items: center;"">
      <img src=""images/red_deck_2.png"" style=""width: 300px; height: 300px; margin-right: 10px;"" />
      <img src=""images/blue_deck_1.png"" style=""width: 300px; height: 300px;"" />
    </div>","0","0"
"","","","","","html-keyboard-response","31","113493","0.0-23.0-0.0-0.0","E64CD767B60A44B3AD2ADED7AE7B102E","09787da6-1bf7-4ebe-9a32-b46096316415","4f03f330-5f91-43fc-aa61-d9dda6d26521","","null","<div style=""display: flex; justify-content: center; align-items: center;"">
                <img src=""images/causal/causal_series_6/causal_series_6_b.jpg"" style=""width: 300px; height: 300px;"" />
              </div>","null",""
"","","","","","html-keyboard-response","32","116501","0.0-23.0-0.0-1.0","E64CD767B60A44B3AD2ADED7AE7B102E","09787da6-1bf7-4ebe-9a32-b46096316415","4f03f330-5f91-43fc-aa61-d9dda6d26521","","null","<div style=""display: flex; justify-content: center; align-items: center;"">
                <img src=""images/causal/causal_series_6/causal_series_6_c.jpg"" style=""width: 300px; height: 300px;"" />
              </div>","null",""
"","","","","","html-keyboard-response","33","119503","0.0-23.0-0.0-2.0","E64CD767B60A44B3AD2ADED7AE7B102E","09787da6-1bf7-4ebe-9a32-b46096316415","4f03f330-5f91-43fc-aa61-d9dda6d26521","","null","<div style=""display: flex; justify-content: center; align-items: center;"">
                <img src=""images/causal/causal_series_6/causal_series_6_d.jpg"" style=""width: 300px; height: 300px;"" />
              </div>","null",""
"","","","","","html-keyboard-response","34","122519","0.0-24.0","E64CD767B60A44B3AD2ADED7AE7B102E","09787da6-1bf7-4ebe-9a32-b46096316415","4f03f330-5f91-43fc-aa61-d9dda6d26521","","null","<div style=""display: flex; justify-content: center; align-items: center;"">
                <img src=""images/other/blank.jpg"" style=""width: 300px; height: 300px;"" />
              </div>","null",""
"","","","","","html-keyboard-response","35","125522","0.0-25.0","E64CD767B60A44B3AD2ADED7AE7B102E","09787da6-1bf7-4ebe-9a32-b46096316415","4f03f330-5f91-43fc-aa61-d9dda6d26521","","null","<div style=""display: flex; justify-content: center; align-items: center;"">
                <img src=""images/causal/causal_series_17/causal_series_17_a.jpg"" style=""width: 300px; height: 300px;"" />
              </div>","null",""
"","","","","","html-button-response","36","127222","0.0-26.0","E64CD767B60A44B3AD2ADED7AE7B102E","09787da6-1bf7-4ebe-9a32-b46096316415","4f03f330-5f91-43fc-aa61-d9dda6d26521","","1699","
    <div style=""display: flex; justify-content: center; align-items: center;"">
      <img src=""images/red_deck_2.png"" style=""width: 300px; height: 300px; margin-right: 10px;"" />
      <img src=""images/blue_deck_1.png"" style=""width: 300px; height: 300px;"" />
    </div>","0","0"
"","","","","","html-keyboard-response","37","130232","0.0-27.0-0.0-0.0","E64CD767B60A44B3AD2ADED7AE7B102E","09787da6-1bf7-4ebe-9a32-b46096316415","4f03f330-5f91-43fc-aa61-d9dda6d26521","","null","<div style=""display: flex; justify-content: center; align-items: center;"">
                <img src=""images/causal/causal_series_17/causal_series_17_b.jpg"" style=""width: 300px; height: 300px;"" />
              </div>","null",""
"","","","","","html-keyboard-response","38","133244","0.0-27.0-0.0-1.0","E64CD767B60A44B3AD2ADED7AE7B102E","09787da6-1bf7-4ebe-9a32-b46096316415","4f03f330-5f91-43fc-aa61-d9dda6d26521","","null","<div style=""display: flex; justify-content: center; align-items: center;"">
                <img src=""images/causal/causal_series_17/causal_series_17_c.jpg"" style=""width: 300px; height: 300px;"" />
              </div>","null",""
"","","","","","html-keyboard-response","39","136249","0.0-27.0-0.0-2.0","E64CD767B60A44B3AD2ADED7AE7B102E","09787da6-1bf7-4ebe-9a32-b46096316415","4f03f330-5f91-43fc-aa61-d9dda6d26521","","null","<div style=""display: flex; justify-content: center; align-items: center;"">
                <img src=""images/causal/causal_series_17/causal_series_17_d.jpg"" style=""width: 300px; height: 300px;"" />
              </div>","null",""
"","","","","","html-keyboard-response","40","139249","0.0-28.0","E64CD767B60A44B3AD2ADED7AE7B102E","09787da6-1bf7-4ebe-9a32-b46096316415","4f03f330-5f91-43fc-aa61-d9dda6d26521","","null","<div style=""display: flex; justify-content: center; align-items: center;"">
                <img src=""images/other/blank.jpg"" style=""width: 300px; height: 300px;"" />
              </div>","null",""
"","","","","","html-keyboard-response","41","142255","0.0-29.0","E64CD767B60A44B3AD2ADED7AE7B102E","09787da6-1bf7-4ebe-9a32-b46096316415","4f03f330-5f91-43fc-aa61-d9dda6d26521","","null","<div style=""display: flex; justify-content: center; align-items: center;"">
                <img src=""images/causal/causal_series_7/causal_series_7_a.jpg"" style=""width: 300px; height: 300px;"" />
              </div>","null",""
"","","","","","html-button-response","42","152707","0.0-30.0","E64CD767B60A44B3AD2ADED7AE7B102E","09787da6-1bf7-4ebe-9a32-b46096316415","4f03f330-5f91-43fc-aa61-d9dda6d26521","","10452","
    <div style=""display: flex; justify-content: center; align-items: center;"">
      <img src=""images/red_deck_2.png"" style=""width: 300px; height: 300px; margin-right: 10px;"" />
      <img src=""images/blue_deck_1.png"" style=""width: 300px; height: 300px;"" />
    </div>","1","1"
"","","","","","html-keyboard-response","43","155711","0.0-31.0-1.0-0.0","E64CD767B60A44B3AD2ADED7AE7B102E","09787da6-1bf7-4ebe-9a32-b46096316415","4f03f330-5f91-43fc-aa61-d9dda6d26521","","null","<div style=""display: flex; justify-content: center; align-items: center;"">
                <img src=""images/semantic/semantic_series_18/semantic_series_18_d.jpg"" style=""width: 300px; height: 300px;"" />
              </div>","null",""
"","","","","","html-keyboard-response","44","158711","0.0-31.0-1.0-1.0","E64CD767B60A44B3AD2ADED7AE7B102E","09787da6-1bf7-4ebe-9a32-b46096316415","4f03f330-5f91-43fc-aa61-d9dda6d26521","","null","<div style=""display: flex; justify-content: center; align-items: center;"">
                <img src=""images/semantic/semantic_series_1/semantic_series_1_d.jpg"" style=""width: 300px; height: 300px;"" />
              </div>","null",""
"","","","","","html-keyboard-response","45","161719","0.0-31.0-1.0-2.0","E64CD767B60A44B3AD2ADED7AE7B102E","09787da6-1bf7-4ebe-9a32-b46096316415","4f03f330-5f91-43fc-aa61-d9dda6d26521","","null","<div style=""display: flex; justify-content: center; align-items: center;"">
                <img src=""images/semantic/semantic_series_2/semantic_series_2_d.jpg"" style=""width: 300px; height: 300px;"" />
              </div>","null",""
"","","","","","html-keyboard-response","46","164720","0.0-32.0","E64CD767B60A44B3AD2ADED7AE7B102E","09787da6-1bf7-4ebe-9a32-b46096316415","4f03f330-5f91-43fc-aa61-d9dda6d26521","","null","<div style=""display: flex; justify-content: center; align-items: center;"">
                <img src=""images/other/blank.jpg"" style=""width: 300px; height: 300px;"" />
              </div>","null",""
"","","","","","html-keyboard-response","47","167724","0.0-33.0","E64CD767B60A44B3AD2ADED7AE7B102E","09787da6-1bf7-4ebe-9a32-b46096316415","4f03f330-5f91-43fc-aa61-d9dda6d26521","","null","<div style=""display: flex; justify-content: center; align-items: center;"">
                <img src=""images/causal/causal_series_13/causal_series_13_a.jpg"" style=""width: 300px; height: 300px;"" />
              </div>","null",""
"","","","","","html-button-response","48","168422","0.0-34.0","E64CD767B60A44B3AD2ADED7AE7B102E","09787da6-1bf7-4ebe-9a32-b46096316415","4f03f330-5f91-43fc-aa61-d9dda6d26521","","696","
    <div style=""display: flex; justify-content: center; align-items: center;"">
      <img src=""images/red_deck_2.png"" style=""width: 300px; height: 300px; margin-right: 10px;"" />
      <img src=""images/blue_deck_1.png"" style=""width: 300px; height: 300px;"" />
    </div>","1","1"
"","","","","","html-keyboard-response","49","171431","0.0-35.0-1.0-0.0","E64CD767B60A44B3AD2ADED7AE7B102E","09787da6-1bf7-4ebe-9a32-b46096316415","4f03f330-5f91-43fc-aa61-d9dda6d26521","","null","<div style=""display: flex; justify-content: center; align-items: center;"">
                <img src=""images/semantic/semantic_series_18/semantic_series_18_d.jpg"" style=""width: 300px; height: 300px;"" />
              </div>","null",""
"","","","","","html-keyboard-response","50","174442","0.0-35.0-1.0-1.0","E64CD767B60A44B3AD2ADED7AE7B102E","09787da6-1bf7-4ebe-9a32-b46096316415","4f03f330-5f91-43fc-aa61-d9dda6d26521","","null","<div style=""display: flex; justify-content: center; align-items: center;"">
                <img src=""images/semantic/semantic_series_1/semantic_series_1_d.jpg"" style=""width: 300px; height: 300px;"" />
              </div>","null",""
"","","","","","html-keyboard-response","51","177447","0.0-35.0-1.0-2.0","E64CD767B60A44B3AD2ADED7AE7B102E","09787da6-1bf7-4ebe-9a32-b46096316415","4f03f330-5f91-43fc-aa61-d9dda6d26521","","null","<div style=""display: flex; justify-content: center; align-items: center;"">
                <img src=""images/semantic/semantic_series_2/semantic_series_2_d.jpg"" style=""width: 300px; height: 300px;"" />
              </div>","null",""
"","","","","","html-keyboard-response","52","180452","0.0-36.0","E64CD767B60A44B3AD2ADED7AE7B102E","09787da6-1bf7-4ebe-9a32-b46096316415","4f03f330-5f91-43fc-aa61-d9dda6d26521","","null","<div style=""display: flex; justify-content: center; align-items: center;"">
                <img src=""images/other/blank.jpg"" style=""width: 300px; height: 300px;"" />
              </div>","null",""
"","","","","","html-keyboard-response","53","183460","0.0-37.0","E64CD767B60A44B3AD2ADED7AE7B102E","09787da6-1bf7-4ebe-9a32-b46096316415","4f03f330-5f91-43fc-aa61-d9dda6d26521","","null","<div style=""display: flex; justify-content: center; align-items: center;"">
                <img src=""images/causal/causal_series_4/causal_series_4_a.jpg"" style=""width: 300px; height: 300px;"" />
              </div>","null",""
"","","","","","html-button-response","54","184917","0.0-38.0","E64CD767B60A44B3AD2ADED7AE7B102E","09787da6-1bf7-4ebe-9a32-b46096316415","4f03f330-5f91-43fc-aa61-d9dda6d26521","","1457","
    <div style=""display: flex; justify-content: center; align-items: center;"">
      <img src=""images/red_deck_2.png"" style=""width: 300px; height: 300px; margin-right: 10px;"" />
      <img src=""images/blue_deck_1.png"" style=""width: 300px; height: 300px;"" />
    </div>","0","0"
"","","","","","html-keyboard-response","55","187919","0.0-39.0-0.0-0.0","E64CD767B60A44B3AD2ADED7AE7B102E","09787da6-1bf7-4ebe-9a32-b46096316415","4f03f330-5f91-43fc-aa61-d9dda6d26521","","null","<div style=""display: flex; justify-content: center; align-items: center;"">
                <img src=""images/causal/causal_series_4/causal_series_4_b.jpg"" style=""width: 300px; height: 300px;"" />
              </div>","null",""
"","","","","","html-keyboard-response","56","190933","0.0-39.0-0.0-1.0","E64CD767B60A44B3AD2ADED7AE7B102E","09787da6-1bf7-4ebe-9a32-b46096316415","4f03f330-5f91-43fc-aa61-d9dda6d26521","","null","<div style=""display: flex; justify-content: center; align-items: center;"">
                <img src=""images/causal/causal_series_4/causal_series_4_c.jpg"" style=""width: 300px; height: 300px;"" />
              </div>","null",""
"","","","","","html-keyboard-response","57","193946","0.0-39.0-0.0-2.0","E64CD767B60A44B3AD2ADED7AE7B102E","09787da6-1bf7-4ebe-9a32-b46096316415","4f03f330-5f91-43fc-aa61-d9dda6d26521","","null","<div style=""display: flex; justify-content: center; align-items: center;"">
                <img src=""images/causal/causal_series_4/causal_series_4_d.jpg"" style=""width: 300px; height: 300px;"" />
              </div>","null",""
"","","","","","html-keyboard-response","58","196952","0.0-40.0","E64CD767B60A44B3AD2ADED7AE7B102E","09787da6-1bf7-4ebe-9a32-b46096316415","4f03f330-5f91-43fc-aa61-d9dda6d26521","","null","<div style=""display: flex; justify-content: center; align-items: center;"">
                <img src=""images/other/blank.jpg"" style=""width: 300px; height: 300px;"" />
              </div>","null",""
"","","","","","html-keyboard-response","59","199964","0.0-41.0","E64CD767B60A44B3AD2ADED7AE7B102E","09787da6-1bf7-4ebe-9a32-b46096316415","4f03f330-5f91-43fc-aa61-d9dda6d26521","","null","<div style=""display: flex; justify-content: center; align-items: center;"">
                <img src=""images/causal/causal_series_12/causal_series_12_a.jpg"" style=""width: 300px; height: 300px;"" />
              </div>","null",""
"","","","","","html-button-response","60","200937","0.0-42.0","E64CD767B60A44B3AD2ADED7AE7B102E","09787da6-1bf7-4ebe-9a32-b46096316415","4f03f330-5f91-43fc-aa61-d9dda6d26521","","973","
    <div style=""display: flex; justify-content: center; align-items: center;"">
      <img src=""images/red_deck_2.png"" style=""width: 300px; height: 300px; margin-right: 10px;"" />
      <img src=""images/blue_deck_1.png"" style=""width: 300px; height: 300px;"" />
    </div>","0","0"
"","","","","","html-keyboard-response","61","203946","0.0-43.0-0.0-0.0","E64CD767B60A44B3AD2ADED7AE7B102E","09787da6-1bf7-4ebe-9a32-b46096316415","4f03f330-5f91-43fc-aa61-d9dda6d26521","","null","<div style=""display: flex; justify-content: center; align-items: center;"">
                <img src=""images/causal/causal_series_12/causal_series_12_b.jpg"" style=""width: 300px; height: 300px;"" />
              </div>","null",""
"","","","","","html-keyboard-response","62","206955","0.0-43.0-0.0-1.0","E64CD767B60A44B3AD2ADED7AE7B102E","09787da6-1bf7-4ebe-9a32-b46096316415","4f03f330-5f91-43fc-aa61-d9dda6d26521","","null","<div style=""display: flex; justify-content: center; align-items: center;"">
                <img src=""images/causal/causal_series_12/causal_series_12_c.jpg"" style=""width: 300px; height: 300px;"" />
              </div>","null",""
"","","","","","html-keyboard-response","63","209965","0.0-43.0-0.0-2.0","E64CD767B60A44B3AD2ADED7AE7B102E","09787da6-1bf7-4ebe-9a32-b46096316415","4f03f330-5f91-43fc-aa61-d9dda6d26521","","null","<div style=""display: flex; justify-content: center; align-items: center;"">
                <img src=""images/causal/causal_series_12/causal_series_12_d.jpg"" style=""width: 300px; height: 300px;"" />
              </div>","null",""
"","","","","","html-keyboard-response","64","212967","0.0-44.0","E64CD767B60A44B3AD2ADED7AE7B102E","09787da6-1bf7-4ebe-9a32-b46096316415","4f03f330-5f91-43fc-aa61-d9dda6d26521","","null","<div style=""display: flex; justify-content: center; align-items: center;"">
                <img src=""images/other/blank.jpg"" style=""width: 300px; height: 300px;"" />
              </div>","null",""
"","","","","","html-keyboard-response","65","215969","0.0-45.0","E64CD767B60A44B3AD2ADED7AE7B102E","09787da6-1bf7-4ebe-9a32-b46096316415","4f03f330-5f91-43fc-aa61-d9dda6d26521","","null","<div style=""display: flex; justify-content: center; align-items: center;"">
                <img src=""images/causal/causal_series_16/causal_series_16_a.jpg"" style=""width: 300px; height: 300px;"" />
              </div>","null",""
"","","","","","html-button-response","66","216540","0.0-46.0","E64CD767B60A44B3AD2ADED7AE7B102E","09787da6-1bf7-4ebe-9a32-b46096316415","4f03f330-5f91-43fc-aa61-d9dda6d26521","","570","
    <div style=""display: flex; justify-content: center; align-items: center;"">
      <img src=""images/red_deck_2.png"" style=""width: 300px; height: 300px; margin-right: 10px;"" />
      <img src=""images/blue_deck_1.png"" style=""width: 300px; height: 300px;"" />
    </div>","1","1"
"","","","","","html-keyboard-response","67","219541","0.0-47.0-1.0-0.0","E64CD767B60A44B3AD2ADED7AE7B102E","09787da6-1bf7-4ebe-9a32-b46096316415","4f03f330-5f91-43fc-aa61-d9dda6d26521","","null","<div style=""display: flex; justify-content: center; align-items: center;"">
                <img src=""images/semantic/semantic_series_9/semantic_series_9_d.jpg"" style=""width: 300px; height: 300px;"" />
              </div>","null",""
"","","","","","html-keyboard-response","68","222554","0.0-47.0-1.0-1.0","E64CD767B60A44B3AD2ADED7AE7B102E","09787da6-1bf7-4ebe-9a32-b46096316415","4f03f330-5f91-43fc-aa61-d9dda6d26521","","null","<div style=""display: flex; justify-content: center; align-items: center;"">
                <img src=""images/semantic/semantic_series_10/semantic_series_10_d.jpg"" style=""width: 300px; height: 300px;"" />
              </div>","null",""
"","","","","","html-keyboard-response","69","225567","0.0-47.0-1.0-2.0","E64CD767B60A44B3AD2ADED7AE7B102E","09787da6-1bf7-4ebe-9a32-b46096316415","4f03f330-5f91-43fc-aa61-d9dda6d26521","","null","<div style=""display: flex; justify-content: center; align-items: center;"">
                <img src=""images/semantic/semantic_series_11/semantic_series_11_d.jpg"" style=""width: 300px; height: 300px;"" />
              </div>","null",""
"","","","","","html-keyboard-response","70","228582","0.0-48.0","E64CD767B60A44B3AD2ADED7AE7B102E","09787da6-1bf7-4ebe-9a32-b46096316415","4f03f330-5f91-43fc-aa61-d9dda6d26521","","null","<div style=""display: flex; justify-content: center; align-items: center;"">
                <img src=""images/other/blank.jpg"" style=""width: 300px; height: 300px;"" />
              </div>","null",""
"","","","","","html-keyboard-response","71","231595","0.0-49.0","E64CD767B60A44B3AD2ADED7AE7B102E","09787da6-1bf7-4ebe-9a32-b46096316415","4f03f330-5f91-43fc-aa61-d9dda6d26521","","null","<div style=""display: flex; justify-content: center; align-items: center;"">
                <img src=""images/causal/causal_series_10/causal_series_10_a.jpg"" style=""width: 300px; height: 300px;"" />
              </div>","null",""
"","","","","","html-button-response","72","232460","0.0-50.0","E64CD767B60A44B3AD2ADED7AE7B102E","09787da6-1bf7-4ebe-9a32-b46096316415","4f03f330-5f91-43fc-aa61-d9dda6d26521","","864","
    <div style=""display: flex; justify-content: center; align-items: center;"">
      <img src=""images/red_deck_2.png"" style=""width: 300px; height: 300px; margin-right: 10px;"" />
      <img src=""images/blue_deck_1.png"" style=""width: 300px; height: 300px;"" />
    </div>","0","0"
"","","","","","html-keyboard-response","73","235471","0.0-51.0-0.0-0.0","E64CD767B60A44B3AD2ADED7AE7B102E","09787da6-1bf7-4ebe-9a32-b46096316415","4f03f330-5f91-43fc-aa61-d9dda6d26521","","null","<div style=""display: flex; justify-content: center; align-items: center;"">
                <img src=""images/causal/causal_series_10/causal_series_10_b.jpg"" style=""width: 300px; height: 300px;"" />
              </div>","null",""
"","","","","","html-keyboard-response","74","238485","0.0-51.0-0.0-1.0","E64CD767B60A44B3AD2ADED7AE7B102E","09787da6-1bf7-4ebe-9a32-b46096316415","4f03f330-5f91-43fc-aa61-d9dda6d26521","","null","<div style=""display: flex; justify-content: center; align-items: center;"">
                <img src=""images/causal/causal_series_10/causal_series_10_c.jpg"" style=""width: 300px; height: 300px;"" />
              </div>","null",""
"","","","","","html-keyboard-response","75","241490","0.0-51.0-0.0-2.0","E64CD767B60A44B3AD2ADED7AE7B102E","09787da6-1bf7-4ebe-9a32-b46096316415","4f03f330-5f91-43fc-aa61-d9dda6d26521","","null","<div style=""display: flex; justify-content: center; align-items: center;"">
                <img src=""images/causal/causal_series_10/causal_series_10_d.jpg"" style=""width: 300px; height: 300px;"" />
              </div>","null",""
"","","","","","html-keyboard-response","76","244500","0.0-52.0","E64CD767B60A44B3AD2ADED7AE7B102E","09787da6-1bf7-4ebe-9a32-b46096316415","4f03f330-5f91-43fc-aa61-d9dda6d26521","","null","<div style=""display: flex; justify-content: center; align-items: center;"">
                <img src=""images/other/blank.jpg"" style=""width: 300px; height: 300px;"" />
              </div>","null",""
"","","","","","html-keyboard-response","77","247503","0.0-53.0","E64CD767B60A44B3AD2ADED7AE7B102E","09787da6-1bf7-4ebe-9a32-b46096316415","4f03f330-5f91-43fc-aa61-d9dda6d26521","","null","<div style=""display: flex; justify-content: center; align-items: center;"">
                <img src=""images/causal/causal_series_14/causal_series_14_a.jpg"" style=""width: 300px; height: 300px;"" />
              </div>","null",""
"","","","","","html-button-response","78","249473","0.0-54.0","E64CD767B60A44B3AD2ADED7AE7B102E","09787da6-1bf7-4ebe-9a32-b46096316415","4f03f330-5f91-43fc-aa61-d9dda6d26521","","1970","
    <div style=""display: flex; justify-content: center; align-items: center;"">
      <img src=""images/red_deck_2.png"" style=""width: 300px; height: 300px; margin-right: 10px;"" />
      <img src=""images/blue_deck_1.png"" style=""width: 300px; height: 300px;"" />
    </div>","0","0"
"","","","","","html-keyboard-response","79","252482","0.0-55.0-0.0-0.0","E64CD767B60A44B3AD2ADED7AE7B102E","09787da6-1bf7-4ebe-9a32-b46096316415","4f03f330-5f91-43fc-aa61-d9dda6d26521","","null","<div style=""display: flex; justify-content: center; align-items: center;"">
                <img src=""images/causal/causal_series_14/causal_series_14_b.jpg"" style=""width: 300px; height: 300px;"" />
              </div>","null",""
"","","","","","html-keyboard-response","80","255489","0.0-55.0-0.0-1.0","E64CD767B60A44B3AD2ADED7AE7B102E","09787da6-1bf7-4ebe-9a32-b46096316415","4f03f330-5f91-43fc-aa61-d9dda6d26521","","null","<div style=""display: flex; justify-content: center; align-items: center;"">
                <img src=""images/causal/causal_series_14/causal_series_14_c.jpg"" style=""width: 300px; height: 300px;"" />
              </div>","null",""
"","","","","","html-keyboard-response","81","258500","0.0-55.0-0.0-2.0","E64CD767B60A44B3AD2ADED7AE7B102E","09787da6-1bf7-4ebe-9a32-b46096316415","4f03f330-5f91-43fc-aa61-d9dda6d26521","","null","<div style=""display: flex; justify-content: center; align-items: center;"">
                <img src=""images/causal/causal_series_14/causal_series_14_d.jpg"" style=""width: 300px; height: 300px;"" />
              </div>","null",""
"","","","","","html-keyboard-response","82","261513","0.0-56.0","E64CD767B60A44B3AD2ADED7AE7B102E","09787da6-1bf7-4ebe-9a32-b46096316415","4f03f330-5f91-43fc-aa61-d9dda6d26521","","null","<div style=""display: flex; justify-content: center; align-items: center;"">
                <img src=""images/other/blank.jpg"" style=""width: 300px; height: 300px;"" />
              </div>","null",""
"","","","","","html-keyboard-response","83","264526","0.0-57.0","E64CD767B60A44B3AD2ADED7AE7B102E","09787da6-1bf7-4ebe-9a32-b46096316415","4f03f330-5f91-43fc-aa61-d9dda6d26521","","null","<div style=""display: flex; justify-content: center; align-items: center;"">
                <img src=""images/causal/causal_series_3/causal_series_3_a.jpg"" style=""width: 300px; height: 300px;"" />
              </div>","null",""
"","","","","","html-button-response","84","333243","0.0-58.0","E64CD767B60A44B3AD2ADED7AE7B102E","09787da6-1bf7-4ebe-9a32-b46096316415","4f03f330-5f91-43fc-aa61-d9dda6d26521","","68716","
    <div style=""display: flex; justify-content: center; align-items: center;"">
      <img src=""images/red_deck_2.png"" style=""width: 300px; height: 300px; margin-right: 10px;"" />
      <img src=""images/blue_deck_1.png"" style=""width: 300px; height: 300px;"" />
    </div>","1","1"
"","","","","","html-keyboard-response","85","336252","0.0-59.0-1.0-0.0","E64CD767B60A44B3AD2ADED7AE7B102E","09787da6-1bf7-4ebe-9a32-b46096316415","4f03f330-5f91-43fc-aa61-d9dda6d26521","","null","<div style=""display: flex; justify-content: center; align-items: center;"">
                <img src=""images/semantic/semantic_series_6/semantic_series_6_d.jpg"" style=""width: 300px; height: 300px;"" />
              </div>","null",""
"","","","","","html-keyboard-response","86","339268","0.0-59.0-1.0-1.0","E64CD767B60A44B3AD2ADED7AE7B102E","09787da6-1bf7-4ebe-9a32-b46096316415","4f03f330-5f91-43fc-aa61-d9dda6d26521","","null","<div style=""display: flex; justify-content: center; align-items: center;"">
                <img src=""images/semantic/semantic_series_7/semantic_series_7_d.jpg"" style=""width: 300px; height: 300px;"" />
              </div>","null",""
"","","","","","html-keyboard-response","87","342284","0.0-59.0-1.0-2.0","E64CD767B60A44B3AD2ADED7AE7B102E","09787da6-1bf7-4ebe-9a32-b46096316415","4f03f330-5f91-43fc-aa61-d9dda6d26521","","null","<div style=""display: flex; justify-content: center; align-items: center;"">
                <img src=""images/semantic/semantic_series_8/semantic_series_8_d.jpg"" style=""width: 300px; height: 300px;"" />
              </div>","null",""
"","","","","","html-keyboard-response","88","345300","0.0-60.0","E64CD767B60A44B3AD2ADED7AE7B102E","09787da6-1bf7-4ebe-9a32-b46096316415","4f03f330-5f91-43fc-aa61-d9dda6d26521","","null","<div style=""display: flex; justify-content: center; align-items: center;"">
                <img src=""images/other/blank.jpg"" style=""width: 300px; height: 300px;"" />
              </div>","null",""
"","","","","","html-keyboard-response","89","348303","0.0-61.0","E64CD767B60A44B3AD2ADED7AE7B102E","09787da6-1bf7-4ebe-9a32-b46096316415","4f03f330-5f91-43fc-aa61-d9dda6d26521","","null","<div style=""display: flex; justify-content: center; align-items: center;"">
                <img src=""images/causal/causal_series_2/causal_series_2_a.jpg"" style=""width: 300px; height: 300px;"" />
              </div>","null",""
"","","","","","html-button-response","90","349764","0.0-62.0","E64CD767B60A44B3AD2ADED7AE7B102E","09787da6-1bf7-4ebe-9a32-b46096316415","4f03f330-5f91-43fc-aa61-d9dda6d26521","","1460","
    <div style=""display: flex; justify-content: center; align-items: center;"">
      <img src=""images/red_deck_2.png"" style=""width: 300px; height: 300px; margin-right: 10px;"" />
      <img src=""images/blue_deck_1.png"" style=""width: 300px; height: 300px;"" />
    </div>","0","0"
"","","","","","html-keyboard-response","91","352768","0.0-63.0-0.0-0.0","E64CD767B60A44B3AD2ADED7AE7B102E","09787da6-1bf7-4ebe-9a32-b46096316415","4f03f330-5f91-43fc-aa61-d9dda6d26521","","null","<div style=""display: flex; justify-content: center; align-items: center;"">
                <img src=""images/causal/causal_series_2/causal_series_2_b.jpg"" style=""width: 300px; height: 300px;"" />
              </div>","null",""
"","","","","","html-keyboard-response","92","355769","0.0-63.0-0.0-1.0","E64CD767B60A44B3AD2ADED7AE7B102E","09787da6-1bf7-4ebe-9a32-b46096316415","4f03f330-5f91-43fc-aa61-d9dda6d26521","","null","<div style=""display: flex; justify-content: center; align-items: center;"">
                <img src=""images/causal/causal_series_2/causal_series_2_c.jpg"" style=""width: 300px; height: 300px;"" />
              </div>","null",""
"","","","","","html-keyboard-response","93","358774","0.0-63.0-0.0-2.0","E64CD767B60A44B3AD2ADED7AE7B102E","09787da6-1bf7-4ebe-9a32-b46096316415","4f03f330-5f91-43fc-aa61-d9dda6d26521","","null","<div style=""display: flex; justify-content: center; align-items: center;"">
                <img src=""images/causal/causal_series_2/causal_series_2_d.jpg"" style=""width: 300px; height: 300px;"" />
              </div>","null",""
"","","","","","html-keyboard-response","94","361782","0.0-64.0","E64CD767B60A44B3AD2ADED7AE7B102E","09787da6-1bf7-4ebe-9a32-b46096316415","4f03f330-5f91-43fc-aa61-d9dda6d26521","","null","<div style=""display: flex; justify-content: center; align-items: center;"">
                <img src=""images/other/blank.jpg"" style=""width: 300px; height: 300px;"" />
              </div>","null",""
"","","","","","html-keyboard-response","95","364786","0.0-65.0","E64CD767B60A44B3AD2ADED7AE7B102E","09787da6-1bf7-4ebe-9a32-b46096316415","4f03f330-5f91-43fc-aa61-d9dda6d26521","","null","<div style=""display: flex; justify-content: center; align-items: center;"">
                <img src=""images/causal/causal_series_5/causal_series_5_a.jpg"" style=""width: 300px; height: 300px;"" />
              </div>","null",""
"","","","","","html-button-response","96","365407","0.0-66.0","E64CD767B60A44B3AD2ADED7AE7B102E","09787da6-1bf7-4ebe-9a32-b46096316415","4f03f330-5f91-43fc-aa61-d9dda6d26521","","620","
    <div style=""display: flex; justify-content: center; align-items: center;"">
      <img src=""images/red_deck_2.png"" style=""width: 300px; height: 300px; margin-right: 10px;"" />
      <img src=""images/blue_deck_1.png"" style=""width: 300px; height: 300px;"" />
    </div>","1","1"
"","","","","","html-keyboard-response","97","368413","0.0-67.0-1.0-0.0","E64CD767B60A44B3AD2ADED7AE7B102E","09787da6-1bf7-4ebe-9a32-b46096316415","4f03f330-5f91-43fc-aa61-d9dda6d26521","","null","<div style=""display: flex; justify-content: center; align-items: center;"">
                <img src=""images/semantic/semantic_series_12/semantic_series_12_d.jpg"" style=""width: 300px; height: 300px;"" />
              </div>","null",""
"","","","","","html-keyboard-response","98","371425","0.0-67.0-1.0-1.0","E64CD767B60A44B3AD2ADED7AE7B102E","09787da6-1bf7-4ebe-9a32-b46096316415","4f03f330-5f91-43fc-aa61-d9dda6d26521","","null","<div style=""display: flex; justify-content: center; align-items: center;"">
                <img src=""images/semantic/semantic_series_13/semantic_series_13_d.jpg"" style=""width: 300px; height: 300px;"" />
              </div>","null",""
"","","","","","html-keyboard-response","99","374428","0.0-67.0-1.0-2.0","E64CD767B60A44B3AD2ADED7AE7B102E","09787da6-1bf7-4ebe-9a32-b46096316415","4f03f330-5f91-43fc-aa61-d9dda6d26521","","null","<div style=""display: flex; justify-content: center; align-items: center;"">
                <img src=""images/semantic/semantic_series_14/semantic_series_14_d.jpg"" style=""width: 300px; height: 300px;"" />
              </div>","null",""
"","","","","","html-keyboard-response","100","377429","0.0-68.0","E64CD767B60A44B3AD2ADED7AE7B102E","09787da6-1bf7-4ebe-9a32-b46096316415","4f03f330-5f91-43fc-aa61-d9dda6d26521","","null","<div style=""display: flex; justify-content: center; align-items: center;"">
                <img src=""images/other/blank.jpg"" style=""width: 300px; height: 300px;"" />
              </div>","null",""
"","","","","","html-keyboard-response","101","380438","0.0-69.0","E64CD767B60A44B3AD2ADED7AE7B102E","09787da6-1bf7-4ebe-9a32-b46096316415","4f03f330-5f91-43fc-aa61-d9dda6d26521","","null","<div style=""display: flex; justify-content: center; align-items: center;"">
                <img src=""images/causal/causal_series_8/causal_series_8_a.jpg"" style=""width: 300px; height: 300px;"" />
              </div>","null",""
"","","","","","html-button-response","102","381170","0.0-70.0","E64CD767B60A44B3AD2ADED7AE7B102E","09787da6-1bf7-4ebe-9a32-b46096316415","4f03f330-5f91-43fc-aa61-d9dda6d26521","","731","
    <div style=""display: flex; justify-content: center; align-items: center;"">
      <img src=""images/red_deck_2.png"" style=""width: 300px; height: 300px; margin-right: 10px;"" />
      <img src=""images/blue_deck_1.png"" style=""width: 300px; height: 300px;"" />
    </div>","0","0"
"","","","","","html-keyboard-response","103","384174","0.0-71.0-0.0-0.0","E64CD767B60A44B3AD2ADED7AE7B102E","09787da6-1bf7-4ebe-9a32-b46096316415","4f03f330-5f91-43fc-aa61-d9dda6d26521","","null","<div style=""display: flex; justify-content: center; align-items: center;"">
                <img src=""images/causal/causal_series_8/causal_series_8_b.jpg"" style=""width: 300px; height: 300px;"" />
              </div>","null",""
"","","","","","html-keyboard-response","104","387179","0.0-71.0-0.0-1.0","E64CD767B60A44B3AD2ADED7AE7B102E","09787da6-1bf7-4ebe-9a32-b46096316415","4f03f330-5f91-43fc-aa61-d9dda6d26521","","null","<div style=""display: flex; justify-content: center; align-items: center;"">
                <img src=""images/causal/causal_series_8/causal_series_8_c.jpg"" style=""width: 300px; height: 300px;"" />
              </div>","null",""
"","","","","","html-keyboard-response","105","390180","0.0-71.0-0.0-2.0","E64CD767B60A44B3AD2ADED7AE7B102E","09787da6-1bf7-4ebe-9a32-b46096316415","4f03f330-5f91-43fc-aa61-d9dda6d26521","","null","<div style=""display: flex; justify-content: center; align-items: center;"">
                <img src=""images/causal/causal_series_8/causal_series_8_d.jpg"" style=""width: 300px; height: 300px;"" />
              </div>","null",""
"","","","","","html-keyboard-response","106","393187","0.0-72.0","E64CD767B60A44B3AD2ADED7AE7B102E","09787da6-1bf7-4ebe-9a32-b46096316415","4f03f330-5f91-43fc-aa61-d9dda6d26521","","null","<div style=""display: flex; justify-content: center; align-items: center;"">
                <img src=""images/other/blank.jpg"" style=""width: 300px; height: 300px;"" />
              </div>","null",""
"","","","","","html-keyboard-response","107","396202","0.0-73.0","E64CD767B60A44B3AD2ADED7AE7B102E","09787da6-1bf7-4ebe-9a32-b46096316415","4f03f330-5f91-43fc-aa61-d9dda6d26521","","null","<div style=""display: flex; justify-content: center; align-items: center;"">
                <img src=""images/causal/causal_series_18/causal_series_18_a.jpg"" style=""width: 300px; height: 300px;"" />
              </div>","null",""
"","","","","","html-button-response","108","427180","0.0-74.0","E64CD767B60A44B3AD2ADED7AE7B102E","09787da6-1bf7-4ebe-9a32-b46096316415","4f03f330-5f91-43fc-aa61-d9dda6d26521","","30977","
    <div style=""display: flex; justify-content: center; align-items: center;"">
      <img src=""images/red_deck_2.png"" style=""width: 300px; height: 300px; margin-right: 10px;"" />
      <img src=""images/blue_deck_1.png"" style=""width: 300px; height: 300px;"" />
    </div>","0","0"
"","","","","","html-keyboard-response","109","430189","0.0-75.0-0.0-0.0","E64CD767B60A44B3AD2ADED7AE7B102E","09787da6-1bf7-4ebe-9a32-b46096316415","4f03f330-5f91-43fc-aa61-d9dda6d26521","","null","<div style=""display: flex; justify-content: center; align-items: center;"">
                <img src=""images/causal/causal_series_18/causal_series_18_b.jpg"" style=""width: 300px; height: 300px;"" />
              </div>","null",""
"","","","","","html-keyboard-response","110","433190","0.0-75.0-0.0-1.0","E64CD767B60A44B3AD2ADED7AE7B102E","09787da6-1bf7-4ebe-9a32-b46096316415","4f03f330-5f91-43fc-aa61-d9dda6d26521","","null","<div style=""display: flex; justify-content: center; align-items: center;"">
                <img src=""images/causal/causal_series_18/causal_series_18_c.jpg"" style=""width: 300px; height: 300px;"" />
              </div>","null",""
"","","","","","html-keyboard-response","111","436192","0.0-75.0-0.0-2.0","E64CD767B60A44B3AD2ADED7AE7B102E","09787da6-1bf7-4ebe-9a32-b46096316415","4f03f330-5f91-43fc-aa61-d9dda6d26521","","null","<div style=""display: flex; justify-content: center; align-items: center;"">
                <img src=""images/causal/causal_series_18/causal_series_18_d.jpg"" style=""width: 300px; height: 300px;"" />
              </div>","null",""
"","","","","","html-keyboard-response","112","439195","0.0-76.0","E64CD767B60A44B3AD2ADED7AE7B102E","09787da6-1bf7-4ebe-9a32-b46096316415","4f03f330-5f91-43fc-aa61-d9dda6d26521","","null","<div style=""display: flex; justify-content: center; align-items: center;"">
                <img src=""images/other/blank.jpg"" style=""width: 300px; height: 300px;"" />
              </div>","null",""
"","","","","","survey-text","113","495898","0.0-77.0","E64CD767B60A44B3AD2ADED7AE7B102E","09787da6-1bf7-4ebe-9a32-b46096316415","4f03f330-5f91-43fc-aa61-d9dda6d26521","","56696","","{""Q0"":""one is red and one is blue""}",""
"","","","","","survey-text","114","504585","0.0-78.0","E64CD767B60A44B3AD2ADED7AE7B102E","09787da6-1bf7-4ebe-9a32-b46096316415","4f03f330-5f91-43fc-aa61-d9dda6d26521","","8684","","{""Q0"":""the red deck""}",""
"","","","","","html-button-response","115","513122","0.0-79.0","E64CD767B60A44B3AD2ADED7AE7B102E","09787da6-1bf7-4ebe-9a32-b46096316415","4f03f330-5f91-43fc-aa61-d9dda6d26521","","8536","Which color deck does the fourth image continue the story from the series?","1",""
"","","","","","html-button-response","116","515680","0.0-80.0","E64CD767B60A44B3AD2ADED7AE7B102E","09787da6-1bf7-4ebe-9a32-b46096316415","4f03f330-5f91-43fc-aa61-d9dda6d26521","","2557","Which color deck does the fourth image not follow the story from the series?","0",""
"","","","","","survey-text","117","521604","0.0-81.0","E64CD767B60A44B3AD2ADED7AE7B102E","09787da6-1bf7-4ebe-9a32-b46096316415","4f03f330-5f91-43fc-aa61-d9dda6d26521","","5922","","{""Q0"":""MALE"",""Q1"":""34""}",""
"","","","","","instructions","118","529852","0.0-82.0","E64CD767B60A44B3AD2ADED7AE7B102E","09787da6-1bf7-4ebe-9a32-b46096316415","4f03f330-5f91-43fc-aa61-d9dda6d26521","[{""page_index"":0,""viewing_time"":8247}]","8247","","",""
