"success","timeout","failed_images","failed_audio","failed_video","trial_type","trial_index","time_elapsed","internal_node_id","subject_id","study_id","session_id","view_history","rt","stimulus","response","choice"
"true","false","[]","[]","[]","preload","0","2579","0.0-0.0","69D7F4241A3D4E48B74CD8B43EA022FC","756cc6e1-bc09-45ee-aeb4-d648e3ad8b2c","683bf07d-1a26-40b1-9cff-5abdc1eed0ee","","","","",""
"","","","","","instructions","1","40813","0.0-1.0","69D7F4241A3D4E48B74CD8B43EA022FC","756cc6e1-bc09-45ee-aeb4-d648e3ad8b2c","683bf07d-1a26-40b1-9cff-5abdc1eed0ee","[{""page_index"":0,""viewing_time"":38232}]","38232","","",""
"","","","","","instructions","2","42981","0.0-2.0","69D7F4241A3D4E48B74CD8B43EA022FC","756cc6e1-bc09-45ee-aeb4-d648e3ad8b2c","683bf07d-1a26-40b1-9cff-5abdc1eed0ee","[{""page_index"":0,""viewing_time"":2168}]","2168","","",""
"true","","","","","fullscreen","3","45668","0.0-3.0","69D7F4241A3D4E48B74CD8B43EA022FC","756cc6e1-bc09-45ee-aeb4-d648e3ad8b2c","683bf07d-1a26-40b1-9cff-5abdc1eed0ee","","1674","","",""
"","","","","","instructions","4","54062","0.0-4.0","69D7F4241A3D4E48B74CD8B43EA022FC","756cc6e1-bc09-45ee-aeb4-d648e3ad8b2c","683bf07d-1a26-40b1-9cff-5abdc1eed0ee","[{""page_index"":0,""viewing_time"":8393}]","8393","","",""
"","","","","","html-keyboard-response","5","57076","0.0-5.0","69D7F4241A3D4E48B74CD8B43EA022FC","756cc6e1-bc09-45ee-aeb4-d648e3ad8b2c","683bf07d-1a26-40b1-9cff-5abdc1eed0ee","","null","<div style=""display: flex; justify-content: center; align-items: center;"">
                <img src=""images/causal/causal_series_1/causal_series_1_a.jpg"" style=""width: 300px; height: 300px;"" />
              </div>","null",""
"","","","","","html-keyboard-response","6","60081","0.0-6.0","69D7F4241A3D4E48B74CD8B43EA022FC","756cc6e1-bc09-45ee-aeb4-d648e3ad8b2c","683bf07d-1a26-40b1-9cff-5abdc1eed0ee","","null","<div style=""display: flex; justify-content: center; align-items: center;"">
                <img src=""images/causal/causal_series_1/causal_series_1_b.jpg"" style=""width: 300px; height: 300px;"" />
              </div>","null",""
"","","","","","html-keyboard-response","7","63086","0.0-7.0","69D7F4241A3D4E48B74CD8B43EA022FC","756cc6e1-bc09-45ee-aeb4-d648e3ad8b2c","683bf07d-1a26-40b1-9cff-5abdc1eed0ee","","null","<div style=""display: flex; justify-content: center; align-items: center;"">
                <img src=""images/causal/causal_series_1/causal_series_1_c.jpg"" style=""width: 300px; height: 300px;"" />
              </div>","null",""
"","","","","","html-button-response","8","64650","0.0-8.0","69D7F4241A3D4E48B74CD8B43EA022FC","756cc6e1-bc09-45ee-aeb4-d648e3ad8b2c","683bf07d-1a26-40b1-9cff-5abdc1eed0ee","","1561","
    <div style=""display: flex; justify-content: center; align-items: center;"">
      <img src=""images/red_deck_2.png"" style=""width: 300px; height: 300px; margin-right: 10px;"" />
      <img src=""images/blue_deck_1.png"" style=""width: 300px; height: 300px;"" />
    </div>","1","1"
"","","","","","html-keyboard-response","9","67651","0.0-9.0-1.0-0.0","69D7F4241A3D4E48B74CD8B43EA022FC","756cc6e1-bc09-45ee-aeb4-d648e3ad8b2c","683bf07d-1a26-40b1-9cff-5abdc1eed0ee","","null","<div style=""display: flex; justify-content: center; align-items: center;"">
                <img src=""images/semantic/semantic_series_18/semantic_series_18_d.jpg"" style=""width: 300px; height: 300px;"" />
              </div>","null",""
"","","","","","html-keyboard-response","10","70653","0.0-10.0","69D7F4241A3D4E48B74CD8B43EA022FC","756cc6e1-bc09-45ee-aeb4-d648e3ad8b2c","683bf07d-1a26-40b1-9cff-5abdc1eed0ee","","null","<div style=""display: flex; justify-content: center; align-items: center;"">
                <img src=""images/other/blank.jpg"" style=""width: 300px; height: 300px;"" />
              </div>","null",""
"","","","","","html-keyboard-response","11","73668","0.0-11.0","69D7F4241A3D4E48B74CD8B43EA022FC","756cc6e1-bc09-45ee-aeb4-d648e3ad8b2c","683bf07d-1a26-40b1-9cff-5abdc1eed0ee","","null","<div style=""display: flex; justify-content: center; align-items: center;"">
                <img src=""images/causal/causal_series_7/causal_series_7_a.jpg"" style=""width: 300px; height: 300px;"" />
              </div>","null",""
"","","","","","html-keyboard-response","12","76670","0.0-12.0","69D7F4241A3D4E48B74CD8B43EA022FC","756cc6e1-bc09-45ee-aeb4-d648e3ad8b2c","683bf07d-1a26-40b1-9cff-5abdc1eed0ee","","null","<div style=""display: flex; justify-content: center; align-items: center;"">
                <img src=""images/causal/causal_series_7/causal_series_7_b.jpg"" style=""width: 300px; height: 300px;"" />
              </div>","null",""
"","","","","","html-keyboard-response","13","79684","0.0-13.0","69D7F4241A3D4E48B74CD8B43EA022FC","756cc6e1-bc09-45ee-aeb4-d648e3ad8b2c","683bf07d-1a26-40b1-9cff-5abdc1eed0ee","","null","<div style=""display: flex; justify-content: center; align-items: center;"">
                <img src=""images/causal/causal_series_7/causal_series_7_c.jpg"" style=""width: 300px; height: 300px;"" />
              </div>","null",""
"","","","","","html-button-response","14","83692","0.0-14.0","69D7F4241A3D4E48B74CD8B43EA022FC","756cc6e1-bc09-45ee-aeb4-d648e3ad8b2c","683bf07d-1a26-40b1-9cff-5abdc1eed0ee","","4007","
    <div style=""display: flex; justify-content: center; align-items: center;"">
      <img src=""images/red_deck_2.png"" style=""width: 300px; height: 300px; margin-right: 10px;"" />
      <img src=""images/blue_deck_1.png"" style=""width: 300px; height: 300px;"" />
    </div>","0","0"
"","","","","","html-keyboard-response","15","86693","0.0-15.0-0.0-0.0","69D7F4241A3D4E48B74CD8B43EA022FC","756cc6e1-bc09-45ee-aeb4-d648e3ad8b2c","683bf07d-1a26-40b1-9cff-5abdc1eed0ee","","null","<div style=""display: flex; justify-content: center; align-items: center;"">
                <img src=""images/causal/causal_series_7/causal_series_7_d.jpg"" style=""width: 300px; height: 300px;"" />
              </div>","null",""
"","","","","","html-keyboard-response","16","89696","0.0-16.0","69D7F4241A3D4E48B74CD8B43EA022FC","756cc6e1-bc09-45ee-aeb4-d648e3ad8b2c","683bf07d-1a26-40b1-9cff-5abdc1eed0ee","","null","<div style=""display: flex; justify-content: center; align-items: center;"">
                <img src=""images/other/blank.jpg"" style=""width: 300px; height: 300px;"" />
              </div>","null",""
"","","","","","html-keyboard-response","17","92707","0.0-17.0","69D7F4241A3D4E48B74CD8B43EA022FC","756cc6e1-bc09-45ee-aeb4-d648e3ad8b2c","683bf07d-1a26-40b1-9cff-5abdc1eed0ee","","null","<div style=""display: flex; justify-content: center; align-items: center;"">
                <img src=""images/causal/causal_series_3/causal_series_3_a.jpg"" style=""width: 300px; height: 300px;"" />
              </div>","null",""
"","","","","","html-keyboard-response","18","95710","0.0-18.0","69D7F4241A3D4E48B74CD8B43EA022FC","756cc6e1-bc09-45ee-aeb4-d648e3ad8b2c","683bf07d-1a26-40b1-9cff-5abdc1eed0ee","","null","<div style=""display: flex; justify-content: center; align-items: center;"">
                <img src=""images/causal/causal_series_3/causal_series_3_b.jpg"" style=""width: 300px; height: 300px;"" />
              </div>","null",""
"","","","","","html-keyboard-response","19","98718","0.0-19.0","69D7F4241A3D4E48B74CD8B43EA022FC","756cc6e1-bc09-45ee-aeb4-d648e3ad8b2c","683bf07d-1a26-40b1-9cff-5abdc1eed0ee","","null","<div style=""display: flex; justify-content: center; align-items: center;"">
                <img src=""images/causal/causal_series_3/causal_series_3_c.jpg"" style=""width: 300px; height: 300px;"" />
              </div>","null",""
"","","","","","html-button-response","20","100545","0.0-20.0","69D7F4241A3D4E48B74CD8B43EA022FC","756cc6e1-bc09-45ee-aeb4-d648e3ad8b2c","683bf07d-1a26-40b1-9cff-5abdc1eed0ee","","1826","
    <div style=""display: flex; justify-content: center; align-items: center;"">
      <img src=""images/red_deck_2.png"" style=""width: 300px; height: 300px; margin-right: 10px;"" />
      <img src=""images/blue_deck_1.png"" style=""width: 300px; height: 300px;"" />
    </div>","1","1"
"","","","","","html-keyboard-response","21","103558","0.0-21.0-1.0-0.0","69D7F4241A3D4E48B74CD8B43EA022FC","756cc6e1-bc09-45ee-aeb4-d648e3ad8b2c","683bf07d-1a26-40b1-9cff-5abdc1eed0ee","","null","<div style=""display: flex; justify-content: center; align-items: center;"">
                <img src=""images/semantic/semantic_series_2/semantic_series_2_d.jpg"" style=""width: 300px; height: 300px;"" />
              </div>","null",""
"","","","","","html-keyboard-response","22","106565","0.0-22.0","69D7F4241A3D4E48B74CD8B43EA022FC","756cc6e1-bc09-45ee-aeb4-d648e3ad8b2c","683bf07d-1a26-40b1-9cff-5abdc1eed0ee","","null","<div style=""display: flex; justify-content: center; align-items: center;"">
                <img src=""images/other/blank.jpg"" style=""width: 300px; height: 300px;"" />
              </div>","null",""
"","","","","","html-keyboard-response","23","109579","0.0-23.0","69D7F4241A3D4E48B74CD8B43EA022FC","756cc6e1-bc09-45ee-aeb4-d648e3ad8b2c","683bf07d-1a26-40b1-9cff-5abdc1eed0ee","","null","<div style=""display: flex; justify-content: center; align-items: center;"">
                <img src=""images/causal/causal_series_15/causal_series_15_a.jpg"" style=""width: 300px; height: 300px;"" />
              </div>","null",""
"","","","","","html-keyboard-response","24","112594","0.0-24.0","69D7F4241A3D4E48B74CD8B43EA022FC","756cc6e1-bc09-45ee-aeb4-d648e3ad8b2c","683bf07d-1a26-40b1-9cff-5abdc1eed0ee","","null","<div style=""display: flex; justify-content: center; align-items: center;"">
                <img src=""images/causal/causal_series_15/causal_series_15_b.jpg"" style=""width: 300px; height: 300px;"" />
              </div>","null",""
"","","","","","html-keyboard-response","25","115596","0.0-25.0","69D7F4241A3D4E48B74CD8B43EA022FC","756cc6e1-bc09-45ee-aeb4-d648e3ad8b2c","683bf07d-1a26-40b1-9cff-5abdc1eed0ee","","null","<div style=""display: flex; justify-content: center; align-items: center;"">
                <img src=""images/causal/causal_series_15/causal_series_15_c.jpg"" style=""width: 300px; height: 300px;"" />
              </div>","null",""
"","","","","","html-button-response","26","117373","0.0-26.0","69D7F4241A3D4E48B74CD8B43EA022FC","756cc6e1-bc09-45ee-aeb4-d648e3ad8b2c","683bf07d-1a26-40b1-9cff-5abdc1eed0ee","","1775","
    <div style=""display: flex; justify-content: center; align-items: center;"">
      <img src=""images/red_deck_2.png"" style=""width: 300px; height: 300px; margin-right: 10px;"" />
      <img src=""images/blue_deck_1.png"" style=""width: 300px; height: 300px;"" />
    </div>","0","0"
"","","","","","html-keyboard-response","27","120387","0.0-27.0-0.0-0.0","69D7F4241A3D4E48B74CD8B43EA022FC","756cc6e1-bc09-45ee-aeb4-d648e3ad8b2c","683bf07d-1a26-40b1-9cff-5abdc1eed0ee","","null","<div style=""display: flex; justify-content: center; align-items: center;"">
                <img src=""images/causal/causal_series_15/causal_series_15_d.jpg"" style=""width: 300px; height: 300px;"" />
              </div>","null",""
"","","","","","html-keyboard-response","28","123394","0.0-28.0","69D7F4241A3D4E48B74CD8B43EA022FC","756cc6e1-bc09-45ee-aeb4-d648e3ad8b2c","683bf07d-1a26-40b1-9cff-5abdc1eed0ee","","null","<div style=""display: flex; justify-content: center; align-items: center;"">
                <img src=""images/other/blank.jpg"" style=""width: 300px; height: 300px;"" />
              </div>","null",""
"","","","","","html-keyboard-response","29","126407","0.0-29.0","69D7F4241A3D4E48B74CD8B43EA022FC","756cc6e1-bc09-45ee-aeb4-d648e3ad8b2c","683bf07d-1a26-40b1-9cff-5abdc1eed0ee","","null","<div style=""display: flex; justify-content: center; align-items: center;"">
                <img src=""images/causal/causal_series_10/causal_series_10_a.jpg"" style=""width: 300px; height: 300px;"" />
              </div>","null",""
"","","","","","html-keyboard-response","30","129419","0.0-30.0","69D7F4241A3D4E48B74CD8B43EA022FC","756cc6e1-bc09-45ee-aeb4-d648e3ad8b2c","683bf07d-1a26-40b1-9cff-5abdc1eed0ee","","null","<div style=""display: flex; justify-content: center; align-items: center;"">
                <img src=""images/causal/causal_series_10/causal_series_10_b.jpg"" style=""width: 300px; height: 300px;"" />
              </div>","null",""
"","","","","","html-keyboard-response","31","132431","0.0-31.0","69D7F4241A3D4E48B74CD8B43EA022FC","756cc6e1-bc09-45ee-aeb4-d648e3ad8b2c","683bf07d-1a26-40b1-9cff-5abdc1eed0ee","","null","<div style=""display: flex; justify-content: center; align-items: center;"">
                <img src=""images/causal/causal_series_10/causal_series_10_c.jpg"" style=""width: 300px; height: 300px;"" />
              </div>","null",""
"","","","","","html-button-response","32","133235","0.0-32.0","69D7F4241A3D4E48B74CD8B43EA022FC","756cc6e1-bc09-45ee-aeb4-d648e3ad8b2c","683bf07d-1a26-40b1-9cff-5abdc1eed0ee","","803","
    <div style=""display: flex; justify-content: center; align-items: center;"">
      <img src=""images/red_deck_2.png"" style=""width: 300px; height: 300px; margin-right: 10px;"" />
      <img src=""images/blue_deck_1.png"" style=""width: 300px; height: 300px;"" />
    </div>","1","1"
"","","","","","html-keyboard-response","33","136238","0.0-33.0-1.0-0.0","69D7F4241A3D4E48B74CD8B43EA022FC","756cc6e1-bc09-45ee-aeb4-d648e3ad8b2c","683bf07d-1a26-40b1-9cff-5abdc1eed0ee","","null","<div style=""display: flex; justify-content: center; align-items: center;"">
                <img src=""images/semantic/semantic_series_9/semantic_series_9_d.jpg"" style=""width: 300px; height: 300px;"" />
              </div>","null",""
"","","","","","html-keyboard-response","34","139252","0.0-34.0","69D7F4241A3D4E48B74CD8B43EA022FC","756cc6e1-bc09-45ee-aeb4-d648e3ad8b2c","683bf07d-1a26-40b1-9cff-5abdc1eed0ee","","null","<div style=""display: flex; justify-content: center; align-items: center;"">
                <img src=""images/other/blank.jpg"" style=""width: 300px; height: 300px;"" />
              </div>","null",""
"","","","","","html-keyboard-response","35","142267","0.0-35.0","69D7F4241A3D4E48B74CD8B43EA022FC","756cc6e1-bc09-45ee-aeb4-d648e3ad8b2c","683bf07d-1a26-40b1-9cff-5abdc1eed0ee","","null","<div style=""display: flex; justify-content: center; align-items: center;"">
                <img src=""images/causal/causal_series_11/causal_series_11_a.jpg"" style=""width: 300px; height: 300px;"" />
              </div>","null",""
"","","","","","html-keyboard-response","36","145274","0.0-36.0","69D7F4241A3D4E48B74CD8B43EA022FC","756cc6e1-bc09-45ee-aeb4-d648e3ad8b2c","683bf07d-1a26-40b1-9cff-5abdc1eed0ee","","null","<div style=""display: flex; justify-content: center; align-items: center;"">
                <img src=""images/causal/causal_series_11/causal_series_11_b.jpg"" style=""width: 300px; height: 300px;"" />
              </div>","null",""
"","","","","","html-keyboard-response","37","148280","0.0-37.0","69D7F4241A3D4E48B74CD8B43EA022FC","756cc6e1-bc09-45ee-aeb4-d648e3ad8b2c","683bf07d-1a26-40b1-9cff-5abdc1eed0ee","","null","<div style=""display: flex; justify-content: center; align-items: center;"">
                <img src=""images/causal/causal_series_11/causal_series_11_c.jpg"" style=""width: 300px; height: 300px;"" />
              </div>","null",""
"","","","","","html-button-response","38","149492","0.0-38.0","69D7F4241A3D4E48B74CD8B43EA022FC","756cc6e1-bc09-45ee-aeb4-d648e3ad8b2c","683bf07d-1a26-40b1-9cff-5abdc1eed0ee","","1211","
    <div style=""display: flex; justify-content: center; align-items: center;"">
      <img src=""images/red_deck_2.png"" style=""width: 300px; height: 300px; margin-right: 10px;"" />
      <img src=""images/blue_deck_1.png"" style=""width: 300px; height: 300px;"" />
    </div>","0","0"
"","","","","","html-keyboard-response","39","152502","0.0-39.0-0.0-0.0","69D7F4241A3D4E48B74CD8B43EA022FC","756cc6e1-bc09-45ee-aeb4-d648e3ad8b2c","683bf07d-1a26-40b1-9cff-5abdc1eed0ee","","null","<div style=""display: flex; justify-content: center; align-items: center;"">
                <img src=""images/causal/causal_series_11/causal_series_11_d.jpg"" style=""width: 300px; height: 300px;"" />
              </div>","null",""
"","","","","","html-keyboard-response","40","155504","0.0-40.0","69D7F4241A3D4E48B74CD8B43EA022FC","756cc6e1-bc09-45ee-aeb4-d648e3ad8b2c","683bf07d-1a26-40b1-9cff-5abdc1eed0ee","","null","<div style=""display: flex; justify-content: center; align-items: center;"">
                <img src=""images/other/blank.jpg"" style=""width: 300px; height: 300px;"" />
              </div>","null",""
"","","","","","html-keyboard-response","41","158510","0.0-41.0","69D7F4241A3D4E48B74CD8B43EA022FC","756cc6e1-bc09-45ee-aeb4-d648e3ad8b2c","683bf07d-1a26-40b1-9cff-5abdc1eed0ee","","null","<div style=""display: flex; justify-content: center; align-items: center;"">
                <img src=""images/causal/causal_series_5/causal_series_5_a.jpg"" style=""width: 300px; height: 300px;"" />
              </div>","null",""
"","","","","","html-keyboard-response","42","161516","0.0-42.0","69D7F4241A3D4E48B74CD8B43EA022FC","756cc6e1-bc09-45ee-aeb4-d648e3ad8b2c","683bf07d-1a26-40b1-9cff-5abdc1eed0ee","","null","<div style=""display: flex; justify-content: center; align-items: center;"">
                <img src=""images/causal/causal_series_5/causal_series_5_b.jpg"" style=""width: 300px; height: 300px;"" />
              </div>","null",""
"","","","","","html-keyboard-response","43","164517","0.0-43.0","69D7F4241A3D4E48B74CD8B43EA022FC","756cc6e1-bc09-45ee-aeb4-d648e3ad8b2c","683bf07d-1a26-40b1-9cff-5abdc1eed0ee","","null","<div style=""display: flex; justify-content: center; align-items: center;"">
                <img src=""images/causal/causal_series_5/causal_series_5_c.jpg"" style=""width: 300px; height: 300px;"" />
              </div>","null",""
"","","","","","html-button-response","44","167075","0.0-44.0","69D7F4241A3D4E48B74CD8B43EA022FC","756cc6e1-bc09-45ee-aeb4-d648e3ad8b2c","683bf07d-1a26-40b1-9cff-5abdc1eed0ee","","2557","
    <div style=""display: flex; justify-content: center; align-items: center;"">
      <img src=""images/red_deck_2.png"" style=""width: 300px; height: 300px; margin-right: 10px;"" />
      <img src=""images/blue_deck_1.png"" style=""width: 300px; height: 300px;"" />
    </div>","0","0"
"","","","","","html-keyboard-response","45","170081","0.0-45.0-0.0-0.0","69D7F4241A3D4E48B74CD8B43EA022FC","756cc6e1-bc09-45ee-aeb4-d648e3ad8b2c","683bf07d-1a26-40b1-9cff-5abdc1eed0ee","","null","<div style=""display: flex; justify-content: center; align-items: center;"">
                <img src=""images/causal/causal_series_5/causal_series_5_d.jpg"" style=""width: 300px; height: 300px;"" />
              </div>","null",""
"","","","","","html-keyboard-response","46","173085","0.0-46.0","69D7F4241A3D4E48B74CD8B43EA022FC","756cc6e1-bc09-45ee-aeb4-d648e3ad8b2c","683bf07d-1a26-40b1-9cff-5abdc1eed0ee","","null","<div style=""display: flex; justify-content: center; align-items: center;"">
                <img src=""images/other/blank.jpg"" style=""width: 300px; height: 300px;"" />
              </div>","null",""
"","","","","","html-keyboard-response","47","176091","0.0-47.0","69D7F4241A3D4E48B74CD8B43EA022FC","756cc6e1-bc09-45ee-aeb4-d648e3ad8b2c","683bf07d-1a26-40b1-9cff-5abdc1eed0ee","","null","<div style=""display: flex; justify-content: center; align-items: center;"">
                <img src=""images/causal/causal_series_8/causal_series_8_a.jpg"" style=""width: 300px; height: 300px;"" />
              </div>","null",""
"","","","","","html-keyboard-response","48","179103","0.0-48.0","69D7F4241A3D4E48B74CD8B43EA022FC","756cc6e1-bc09-45ee-aeb4-d648e3ad8b2c","683bf07d-1a26-40b1-9cff-5abdc1eed0ee","","null","<div style=""display: flex; justify-content: center; align-items: center;"">
                <img src=""images/causal/causal_series_8/causal_series_8_b.jpg"" style=""width: 300px; height: 300px;"" />
              </div>","null",""
"","","","","","html-keyboard-response","49","182117","0.0-49.0","69D7F4241A3D4E48B74CD8B43EA022FC","756cc6e1-bc09-45ee-aeb4-d648e3ad8b2c","683bf07d-1a26-40b1-9cff-5abdc1eed0ee","","null","<div style=""display: flex; justify-content: center; align-items: center;"">
                <img src=""images/causal/causal_series_8/causal_series_8_c.jpg"" style=""width: 300px; height: 300px;"" />
              </div>","null",""
"","","","","","html-button-response","50","185801","0.0-50.0","69D7F4241A3D4E48B74CD8B43EA022FC","756cc6e1-bc09-45ee-aeb4-d648e3ad8b2c","683bf07d-1a26-40b1-9cff-5abdc1eed0ee","","3683","
    <div style=""display: flex; justify-content: center; align-items: center;"">
      <img src=""images/red_deck_2.png"" style=""width: 300px; height: 300px; margin-right: 10px;"" />
      <img src=""images/blue_deck_1.png"" style=""width: 300px; height: 300px;"" />
    </div>","1","1"
"","","","","","html-keyboard-response","51","189249","0.0-51.0-1.0-0.0","69D7F4241A3D4E48B74CD8B43EA022FC","756cc6e1-bc09-45ee-aeb4-d648e3ad8b2c","683bf07d-1a26-40b1-9cff-5abdc1eed0ee","","null","<div style=""display: flex; justify-content: center; align-items: center;"">
                <img src=""images/semantic/semantic_series_7/semantic_series_7_d.jpg"" style=""width: 300px; height: 300px;"" />
              </div>","null",""
"","","","","","html-keyboard-response","52","192258","0.0-52.0","69D7F4241A3D4E48B74CD8B43EA022FC","756cc6e1-bc09-45ee-aeb4-d648e3ad8b2c","683bf07d-1a26-40b1-9cff-5abdc1eed0ee","","null","<div style=""display: flex; justify-content: center; align-items: center;"">
                <img src=""images/other/blank.jpg"" style=""width: 300px; height: 300px;"" />
              </div>","null",""
"","","","","","html-keyboard-response","53","195512","0.0-53.0","69D7F4241A3D4E48B74CD8B43EA022FC","756cc6e1-bc09-45ee-aeb4-d648e3ad8b2c","683bf07d-1a26-40b1-9cff-5abdc1eed0ee","","null","<div style=""display: flex; justify-content: center; align-items: center;"">
                <img src=""images/causal/causal_series_18/causal_series_18_a.jpg"" style=""width: 300px; height: 300px;"" />
              </div>","null",""
"","","","","","html-keyboard-response","54","198514","0.0-54.0","69D7F4241A3D4E48B74CD8B43EA022FC","756cc6e1-bc09-45ee-aeb4-d648e3ad8b2c","683bf07d-1a26-40b1-9cff-5abdc1eed0ee","","null","<div style=""display: flex; justify-content: center; align-items: center;"">
                <img src=""images/causal/causal_series_18/causal_series_18_b.jpg"" style=""width: 300px; height: 300px;"" />
              </div>","null",""
"","","","","","html-keyboard-response","55","201527","0.0-55.0","69D7F4241A3D4E48B74CD8B43EA022FC","756cc6e1-bc09-45ee-aeb4-d648e3ad8b2c","683bf07d-1a26-40b1-9cff-5abdc1eed0ee","","null","<div style=""display: flex; justify-content: center; align-items: center;"">
                <img src=""images/causal/causal_series_18/causal_series_18_c.jpg"" style=""width: 300px; height: 300px;"" />
              </div>","null",""
"","","","","","html-button-response","56","203254","0.0-56.0","69D7F4241A3D4E48B74CD8B43EA022FC","756cc6e1-bc09-45ee-aeb4-d648e3ad8b2c","683bf07d-1a26-40b1-9cff-5abdc1eed0ee","","1726","
    <div style=""display: flex; justify-content: center; align-items: center;"">
      <img src=""images/red_deck_2.png"" style=""width: 300px; height: 300px; margin-right: 10px;"" />
      <img src=""images/blue_deck_1.png"" style=""width: 300px; height: 300px;"" />
    </div>","0","0"
"","","","","","html-keyboard-response","57","206268","0.0-57.0-0.0-0.0","69D7F4241A3D4E48B74CD8B43EA022FC","756cc6e1-bc09-45ee-aeb4-d648e3ad8b2c","683bf07d-1a26-40b1-9cff-5abdc1eed0ee","","null","<div style=""display: flex; justify-content: center; align-items: center;"">
                <img src=""images/causal/causal_series_18/causal_series_18_d.jpg"" style=""width: 300px; height: 300px;"" />
              </div>","null",""
"","","","","","html-keyboard-response","58","209283","0.0-58.0","69D7F4241A3D4E48B74CD8B43EA022FC","756cc6e1-bc09-45ee-aeb4-d648e3ad8b2c","683bf07d-1a26-40b1-9cff-5abdc1eed0ee","","null","<div style=""display: flex; justify-content: center; align-items: center;"">
                <img src=""images/other/blank.jpg"" style=""width: 300px; height: 300px;"" />
              </div>","null",""
"","","","","","html-keyboard-response","59","212284","0.0-59.0","69D7F4241A3D4E48B74CD8B43EA022FC","756cc6e1-bc09-45ee-aeb4-d648e3ad8b2c","683bf07d-1a26-40b1-9cff-5abdc1eed0ee","","null","<div style=""display: flex; justify-content: center; align-items: center;"">
                <img src=""images/causal/causal_series_12/causal_series_12_a.jpg"" style=""width: 300px; height: 300px;"" />
              </div>","null",""
"","","","","","html-keyboard-response","60","215293","0.0-60.0","69D7F4241A3D4E48B74CD8B43EA022FC","756cc6e1-bc09-45ee-aeb4-d648e3ad8b2c","683bf07d-1a26-40b1-9cff-5abdc1eed0ee","","null","<div style=""display: flex; justify-content: center; align-items: center;"">
                <img src=""images/causal/causal_series_12/causal_series_12_b.jpg"" style=""width: 300px; height: 300px;"" />
              </div>","null",""
"","","","","","html-keyboard-response","61","218304","0.0-61.0","69D7F4241A3D4E48B74CD8B43EA022FC","756cc6e1-bc09-45ee-aeb4-d648e3ad8b2c","683bf07d-1a26-40b1-9cff-5abdc1eed0ee","","null","<div style=""display: flex; justify-content: center; align-items: center;"">
                <img src=""images/causal/causal_series_12/causal_series_12_c.jpg"" style=""width: 300px; height: 300px;"" />
              </div>","null",""
"","","","","","html-button-response","62","219311","0.0-62.0","69D7F4241A3D4E48B74CD8B43EA022FC","756cc6e1-bc09-45ee-aeb4-d648e3ad8b2c","683bf07d-1a26-40b1-9cff-5abdc1eed0ee","","1006","
    <div style=""display: flex; justify-content: center; align-items: center;"">
      <img src=""images/red_deck_2.png"" style=""width: 300px; height: 300px; margin-right: 10px;"" />
      <img src=""images/blue_deck_1.png"" style=""width: 300px; height: 300px;"" />
    </div>","1","1"
"","","","","","html-keyboard-response","63","222317","0.0-63.0-1.0-0.0","69D7F4241A3D4E48B74CD8B43EA022FC","756cc6e1-bc09-45ee-aeb4-d648e3ad8b2c","683bf07d-1a26-40b1-9cff-5abdc1eed0ee","","null","<div style=""display: flex; justify-content: center; align-items: center;"">
                <img src=""images/semantic/semantic_series_11/semantic_series_11_d.jpg"" style=""width: 300px; height: 300px;"" />
              </div>","null",""
"","","","","","html-keyboard-response","64","225330","0.0-64.0","69D7F4241A3D4E48B74CD8B43EA022FC","756cc6e1-bc09-45ee-aeb4-d648e3ad8b2c","683bf07d-1a26-40b1-9cff-5abdc1eed0ee","","null","<div style=""display: flex; justify-content: center; align-items: center;"">
                <img src=""images/other/blank.jpg"" style=""width: 300px; height: 300px;"" />
              </div>","null",""
"","","","","","html-keyboard-response","65","228347","0.0-65.0","69D7F4241A3D4E48B74CD8B43EA022FC","756cc6e1-bc09-45ee-aeb4-d648e3ad8b2c","683bf07d-1a26-40b1-9cff-5abdc1eed0ee","","null","<div style=""display: flex; justify-content: center; align-items: center;"">
                <img src=""images/causal/causal_series_13/causal_series_13_a.jpg"" style=""width: 300px; height: 300px;"" />
              </div>","null",""
"","","","","","html-keyboard-response","66","231359","0.0-66.0","69D7F4241A3D4E48B74CD8B43EA022FC","756cc6e1-bc09-45ee-aeb4-d648e3ad8b2c","683bf07d-1a26-40b1-9cff-5abdc1eed0ee","","null","<div style=""display: flex; justify-content: center; align-items: center;"">
                <img src=""images/causal/causal_series_13/causal_series_13_b.jpg"" style=""width: 300px; height: 300px;"" />
              </div>","null",""
"","","","","","html-keyboard-response","67","234369","0.0-67.0","69D7F4241A3D4E48B74CD8B43EA022FC","756cc6e1-bc09-45ee-aeb4-d648e3ad8b2c","683bf07d-1a26-40b1-9cff-5abdc1eed0ee","","null","<div style=""display: flex; justify-content: center; align-items: center;"">
                <img src=""images/causal/causal_series_13/causal_series_13_c.jpg"" style=""width: 300px; height: 300px;"" />
              </div>","null",""
"","","","","","html-button-response","68","235936","0.0-68.0","69D7F4241A3D4E48B74CD8B43EA022FC","756cc6e1-bc09-45ee-aeb4-d648e3ad8b2c","683bf07d-1a26-40b1-9cff-5abdc1eed0ee","","1565","
    <div style=""display: flex; justify-content: center; align-items: center;"">
      <img src=""images/red_deck_2.png"" style=""width: 300px; height: 300px; margin-right: 10px;"" />
      <img src=""images/blue_deck_1.png"" style=""width: 300px; height: 300px;"" />
    </div>","1","1"
"","","","","","html-keyboard-response","69","238948","0.0-69.0-1.0-0.0","69D7F4241A3D4E48B74CD8B43EA022FC","756cc6e1-bc09-45ee-aeb4-d648e3ad8b2c","683bf07d-1a26-40b1-9cff-5abdc1eed0ee","","null","<div style=""display: flex; justify-content: center; align-items: center;"">
                <img src=""images/semantic/semantic_series_12/semantic_series_12_d.jpg"" style=""width: 300px; height: 300px;"" />
              </div>","null",""
"","","","","","html-keyboard-response","70","241951","0.0-70.0","69D7F4241A3D4E48B74CD8B43EA022FC","756cc6e1-bc09-45ee-aeb4-d648e3ad8b2c","683bf07d-1a26-40b1-9cff-5abdc1eed0ee","","null","<div style=""display: flex; justify-content: center; align-items: center;"">
                <img src=""images/other/blank.jpg"" style=""width: 300px; height: 300px;"" />
              </div>","null",""
"","","","","","html-keyboard-response","71","244961","0.0-71.0","69D7F4241A3D4E48B74CD8B43EA022FC","756cc6e1-bc09-45ee-aeb4-d648e3ad8b2c","683bf07d-1a26-40b1-9cff-5abdc1eed0ee","","null","<div style=""display: flex; justify-content: center; align-items: center;"">
                <img src=""images/causal/causal_series_14/causal_series_14_a.jpg"" style=""width: 300px; height: 300px;"" />
              </div>","null",""
"","","","","","html-keyboard-response","72","247968","0.0-72.0","69D7F4241A3D4E48B74CD8B43EA022FC","756cc6e1-bc09-45ee-aeb4-d648e3ad8b2c","683bf07d-1a26-40b1-9cff-5abdc1eed0ee","","null","<div style=""display: flex; justify-content: center; align-items: center;"">
                <img src=""images/causal/causal_series_14/causal_series_14_b.jpg"" style=""width: 300px; height: 300px;"" />
              </div>","null",""
"","","","","","html-keyboard-response","73","250973","0.0-73.0","69D7F4241A3D4E48B74CD8B43EA022FC","756cc6e1-bc09-45ee-aeb4-d648e3ad8b2c","683bf07d-1a26-40b1-9cff-5abdc1eed0ee","","null","<div style=""display: flex; justify-content: center; align-items: center;"">
                <img src=""images/causal/causal_series_14/causal_series_14_c.jpg"" style=""width: 300px; height: 300px;"" />
              </div>","null",""
"","","","","","html-button-response","74","251808","0.0-74.0","69D7F4241A3D4E48B74CD8B43EA022FC","756cc6e1-bc09-45ee-aeb4-d648e3ad8b2c","683bf07d-1a26-40b1-9cff-5abdc1eed0ee","","835","
    <div style=""display: flex; justify-content: center; align-items: center;"">
      <img src=""images/red_deck_2.png"" style=""width: 300px; height: 300px; margin-right: 10px;"" />
      <img src=""images/blue_deck_1.png"" style=""width: 300px; height: 300px;"" />
    </div>","0","0"
"","","","","","html-keyboard-response","75","254810","0.0-75.0-0.0-0.0","69D7F4241A3D4E48B74CD8B43EA022FC","756cc6e1-bc09-45ee-aeb4-d648e3ad8b2c","683bf07d-1a26-40b1-9cff-5abdc1eed0ee","","null","<div style=""display: flex; justify-content: center; align-items: center;"">
                <img src=""images/causal/causal_series_14/causal_series_14_d.jpg"" style=""width: 300px; height: 300px;"" />
              </div>","null",""
"","","","","","html-keyboard-response","76","257811","0.0-76.0","69D7F4241A3D4E48B74CD8B43EA022FC","756cc6e1-bc09-45ee-aeb4-d648e3ad8b2c","683bf07d-1a26-40b1-9cff-5abdc1eed0ee","","null","<div style=""display: flex; justify-content: center; align-items: center;"">
                <img src=""images/other/blank.jpg"" style=""width: 300px; height: 300px;"" />
              </div>","null",""
"","","","","","html-keyboard-response","77","260819","0.0-77.0","69D7F4241A3D4E48B74CD8B43EA022FC","756cc6e1-bc09-45ee-aeb4-d648e3ad8b2c","683bf07d-1a26-40b1-9cff-5abdc1eed0ee","","null","<div style=""display: flex; justify-content: center; align-items: center;"">
                <img src=""images/causal/causal_series_16/causal_series_16_a.jpg"" style=""width: 300px; height: 300px;"" />
              </div>","null",""
"","","","","","html-keyboard-response","78","263825","0.0-78.0","69D7F4241A3D4E48B74CD8B43EA022FC","756cc6e1-bc09-45ee-aeb4-d648e3ad8b2c","683bf07d-1a26-40b1-9cff-5abdc1eed0ee","","null","<div style=""display: flex; justify-content: center; align-items: center;"">
                <img src=""images/causal/causal_series_16/causal_series_16_b.jpg"" style=""width: 300px; height: 300px;"" />
              </div>","null",""
"","","","","","html-keyboard-response","79","266828","0.0-79.0","69D7F4241A3D4E48B74CD8B43EA022FC","756cc6e1-bc09-45ee-aeb4-d648e3ad8b2c","683bf07d-1a26-40b1-9cff-5abdc1eed0ee","","null","<div style=""display: flex; justify-content: center; align-items: center;"">
                <img src=""images/causal/causal_series_16/causal_series_16_c.jpg"" style=""width: 300px; height: 300px;"" />
              </div>","null",""
"","","","","","html-button-response","80","267547","0.0-80.0","69D7F4241A3D4E48B74CD8B43EA022FC","756cc6e1-bc09-45ee-aeb4-d648e3ad8b2c","683bf07d-1a26-40b1-9cff-5abdc1eed0ee","","719","
    <div style=""display: flex; justify-content: center; align-items: center;"">
      <img src=""images/red_deck_2.png"" style=""width: 300px; height: 300px; margin-right: 10px;"" />
      <img src=""images/blue_deck_1.png"" style=""width: 300px; height: 300px;"" />
    </div>","0","0"
"","","","","","html-keyboard-response","81","270549","0.0-81.0-0.0-0.0","69D7F4241A3D4E48B74CD8B43EA022FC","756cc6e1-bc09-45ee-aeb4-d648e3ad8b2c","683bf07d-1a26-40b1-9cff-5abdc1eed0ee","","null","<div style=""display: flex; justify-content: center; align-items: center;"">
                <img src=""images/causal/causal_series_16/causal_series_16_d.jpg"" style=""width: 300px; height: 300px;"" />
              </div>","null",""
"","","","","","html-keyboard-response","82","273555","0.0-82.0","69D7F4241A3D4E48B74CD8B43EA022FC","756cc6e1-bc09-45ee-aeb4-d648e3ad8b2c","683bf07d-1a26-40b1-9cff-5abdc1eed0ee","","null","<div style=""display: flex; justify-content: center; align-items: center;"">
                <img src=""images/other/blank.jpg"" style=""width: 300px; height: 300px;"" />
              </div>","null",""
"","","","","","html-keyboard-response","83","276568","0.0-83.0","69D7F4241A3D4E48B74CD8B43EA022FC","756cc6e1-bc09-45ee-aeb4-d648e3ad8b2c","683bf07d-1a26-40b1-9cff-5abdc1eed0ee","","null","<div style=""display: flex; justify-content: center; align-items: center;"">
                <img src=""images/causal/causal_series_9/causal_series_9_a.jpg"" style=""width: 300px; height: 300px;"" />
              </div>","null",""
"","","","","","html-keyboard-response","84","279576","0.0-84.0","69D7F4241A3D4E48B74CD8B43EA022FC","756cc6e1-bc09-45ee-aeb4-d648e3ad8b2c","683bf07d-1a26-40b1-9cff-5abdc1eed0ee","","null","<div style=""display: flex; justify-content: center; align-items: center;"">
                <img src=""images/causal/causal_series_9/causal_series_9_b.jpg"" style=""width: 300px; height: 300px;"" />
              </div>","null",""
"","","","","","html-keyboard-response","85","282580","0.0-85.0","69D7F4241A3D4E48B74CD8B43EA022FC","756cc6e1-bc09-45ee-aeb4-d648e3ad8b2c","683bf07d-1a26-40b1-9cff-5abdc1eed0ee","","null","<div style=""display: flex; justify-content: center; align-items: center;"">
                <img src=""images/causal/causal_series_9/causal_series_9_c.jpg"" style=""width: 300px; height: 300px;"" />
              </div>","null",""
"","","","","","html-button-response","86","283711","0.0-86.0","69D7F4241A3D4E48B74CD8B43EA022FC","756cc6e1-bc09-45ee-aeb4-d648e3ad8b2c","683bf07d-1a26-40b1-9cff-5abdc1eed0ee","","1130","
    <div style=""display: flex; justify-content: center; align-items: center;"">
      <img src=""images/red_deck_2.png"" style=""width: 300px; height: 300px; margin-right: 10px;"" />
      <img src=""images/blue_deck_1.png"" style=""width: 300px; height: 300px;"" />
    </div>","1","1"
"","","","","","html-keyboard-response","87","286725","0.0-87.0-1.0-0.0","69D7F4241A3D4E48B74CD8B43EA022FC","756cc6e1-bc09-45ee-aeb4-d648e3ad8b2c","683bf07d-1a26-40b1-9cff-5abdc1eed0ee","","null","<div style=""display: flex; justify-content: center; align-items: center;"">
                <img src=""images/semantic/semantic_series_8/semantic_series_8_d.jpg"" style=""width: 300px; height: 300px;"" />
              </div>","null",""
"","","","","","html-keyboard-response","88","289738","0.0-88.0","69D7F4241A3D4E48B74CD8B43EA022FC","756cc6e1-bc09-45ee-aeb4-d648e3ad8b2c","683bf07d-1a26-40b1-9cff-5abdc1eed0ee","","null","<div style=""display: flex; justify-content: center; align-items: center;"">
                <img src=""images/other/blank.jpg"" style=""width: 300px; height: 300px;"" />
              </div>","null",""
"","","","","","html-keyboard-response","89","292742","0.0-89.0","69D7F4241A3D4E48B74CD8B43EA022FC","756cc6e1-bc09-45ee-aeb4-d648e3ad8b2c","683bf07d-1a26-40b1-9cff-5abdc1eed0ee","","null","<div style=""display: flex; justify-content: center; align-items: center;"">
                <img src=""images/causal/causal_series_17/causal_series_17_a.jpg"" style=""width: 300px; height: 300px;"" />
              </div>","null",""
"","","","","","html-keyboard-response","90","295751","0.0-90.0","69D7F4241A3D4E48B74CD8B43EA022FC","756cc6e1-bc09-45ee-aeb4-d648e3ad8b2c","683bf07d-1a26-40b1-9cff-5abdc1eed0ee","","null","<div style=""display: flex; justify-content: center; align-items: center;"">
                <img src=""images/causal/causal_series_17/causal_series_17_b.jpg"" style=""width: 300px; height: 300px;"" />
              </div>","null",""
"","","","","","html-keyboard-response","91","298752","0.0-91.0","69D7F4241A3D4E48B74CD8B43EA022FC","756cc6e1-bc09-45ee-aeb4-d648e3ad8b2c","683bf07d-1a26-40b1-9cff-5abdc1eed0ee","","null","<div style=""display: flex; justify-content: center; align-items: center;"">
                <img src=""images/causal/causal_series_17/causal_series_17_c.jpg"" style=""width: 300px; height: 300px;"" />
              </div>","null",""
"","","","","","html-button-response","92","299727","0.0-92.0","69D7F4241A3D4E48B74CD8B43EA022FC","756cc6e1-bc09-45ee-aeb4-d648e3ad8b2c","683bf07d-1a26-40b1-9cff-5abdc1eed0ee","","975","
    <div style=""display: flex; justify-content: center; align-items: center;"">
      <img src=""images/red_deck_2.png"" style=""width: 300px; height: 300px; margin-right: 10px;"" />
      <img src=""images/blue_deck_1.png"" style=""width: 300px; height: 300px;"" />
    </div>","1","1"
"","","","","","html-keyboard-response","93","302736","0.0-93.0-1.0-0.0","69D7F4241A3D4E48B74CD8B43EA022FC","756cc6e1-bc09-45ee-aeb4-d648e3ad8b2c","683bf07d-1a26-40b1-9cff-5abdc1eed0ee","","null","<div style=""display: flex; justify-content: center; align-items: center;"">
                <img src=""images/semantic/semantic_series_16/semantic_series_16_d.jpg"" style=""width: 300px; height: 300px;"" />
              </div>","null",""
"","","","","","html-keyboard-response","94","305739","0.0-94.0","69D7F4241A3D4E48B74CD8B43EA022FC","756cc6e1-bc09-45ee-aeb4-d648e3ad8b2c","683bf07d-1a26-40b1-9cff-5abdc1eed0ee","","null","<div style=""display: flex; justify-content: center; align-items: center;"">
                <img src=""images/other/blank.jpg"" style=""width: 300px; height: 300px;"" />
              </div>","null",""
"","","","","","html-keyboard-response","95","308754","0.0-95.0","69D7F4241A3D4E48B74CD8B43EA022FC","756cc6e1-bc09-45ee-aeb4-d648e3ad8b2c","683bf07d-1a26-40b1-9cff-5abdc1eed0ee","","null","<div style=""display: flex; justify-content: center; align-items: center;"">
                <img src=""images/causal/causal_series_4/causal_series_4_a.jpg"" style=""width: 300px; height: 300px;"" />
              </div>","null",""
"","","","","","html-keyboard-response","96","311756","0.0-96.0","69D7F4241A3D4E48B74CD8B43EA022FC","756cc6e1-bc09-45ee-aeb4-d648e3ad8b2c","683bf07d-1a26-40b1-9cff-5abdc1eed0ee","","null","<div style=""display: flex; justify-content: center; align-items: center;"">
                <img src=""images/causal/causal_series_4/causal_series_4_b.jpg"" style=""width: 300px; height: 300px;"" />
              </div>","null",""
"","","","","","html-keyboard-response","97","314757","0.0-97.0","69D7F4241A3D4E48B74CD8B43EA022FC","756cc6e1-bc09-45ee-aeb4-d648e3ad8b2c","683bf07d-1a26-40b1-9cff-5abdc1eed0ee","","null","<div style=""display: flex; justify-content: center; align-items: center;"">
                <img src=""images/causal/causal_series_4/causal_series_4_c.jpg"" style=""width: 300px; height: 300px;"" />
              </div>","null",""
"","","","","","html-button-response","98","315570","0.0-98.0","69D7F4241A3D4E48B74CD8B43EA022FC","756cc6e1-bc09-45ee-aeb4-d648e3ad8b2c","683bf07d-1a26-40b1-9cff-5abdc1eed0ee","","813","
    <div style=""display: flex; justify-content: center; align-items: center;"">
      <img src=""images/red_deck_2.png"" style=""width: 300px; height: 300px; margin-right: 10px;"" />
      <img src=""images/blue_deck_1.png"" style=""width: 300px; height: 300px;"" />
    </div>","0","0"
"","","","","","html-keyboard-response","99","318578","0.0-99.0-0.0-0.0","69D7F4241A3D4E48B74CD8B43EA022FC","756cc6e1-bc09-45ee-aeb4-d648e3ad8b2c","683bf07d-1a26-40b1-9cff-5abdc1eed0ee","","null","<div style=""display: flex; justify-content: center; align-items: center;"">
                <img src=""images/causal/causal_series_4/causal_series_4_d.jpg"" style=""width: 300px; height: 300px;"" />
              </div>","null",""
"","","","","","html-keyboard-response","100","321592","0.0-100.0","69D7F4241A3D4E48B74CD8B43EA022FC","756cc6e1-bc09-45ee-aeb4-d648e3ad8b2c","683bf07d-1a26-40b1-9cff-5abdc1eed0ee","","null","<div style=""display: flex; justify-content: center; align-items: center;"">
                <img src=""images/other/blank.jpg"" style=""width: 300px; height: 300px;"" />
              </div>","null",""
"","","","","","html-keyboard-response","101","324606","0.0-101.0","69D7F4241A3D4E48B74CD8B43EA022FC","756cc6e1-bc09-45ee-aeb4-d648e3ad8b2c","683bf07d-1a26-40b1-9cff-5abdc1eed0ee","","null","<div style=""display: flex; justify-content: center; align-items: center;"">
                <img src=""images/causal/causal_series_2/causal_series_2_a.jpg"" style=""width: 300px; height: 300px;"" />
              </div>","null",""
"","","","","","html-keyboard-response","102","327615","0.0-102.0","69D7F4241A3D4E48B74CD8B43EA022FC","756cc6e1-bc09-45ee-aeb4-d648e3ad8b2c","683bf07d-1a26-40b1-9cff-5abdc1eed0ee","","null","<div style=""display: flex; justify-content: center; align-items: center;"">
                <img src=""images/causal/causal_series_2/causal_series_2_b.jpg"" style=""width: 300px; height: 300px;"" />
              </div>","null",""
"","","","","","html-keyboard-response","103","330624","0.0-103.0","69D7F4241A3D4E48B74CD8B43EA022FC","756cc6e1-bc09-45ee-aeb4-d648e3ad8b2c","683bf07d-1a26-40b1-9cff-5abdc1eed0ee","","null","<div style=""display: flex; justify-content: center; align-items: center;"">
                <img src=""images/causal/causal_series_2/causal_series_2_c.jpg"" style=""width: 300px; height: 300px;"" />
              </div>","null",""
"","","","","","html-button-response","104","331513","0.0-104.0","69D7F4241A3D4E48B74CD8B43EA022FC","756cc6e1-bc09-45ee-aeb4-d648e3ad8b2c","683bf07d-1a26-40b1-9cff-5abdc1eed0ee","","888","
    <div style=""display: flex; justify-content: center; align-items: center;"">
      <img src=""images/red_deck_2.png"" style=""width: 300px; height: 300px; margin-right: 10px;"" />
      <img src=""images/blue_deck_1.png"" style=""width: 300px; height: 300px;"" />
    </div>","1","1"
"","","","","","html-keyboard-response","105","334514","0.0-105.0-1.0-0.0","69D7F4241A3D4E48B74CD8B43EA022FC","756cc6e1-bc09-45ee-aeb4-d648e3ad8b2c","683bf07d-1a26-40b1-9cff-5abdc1eed0ee","","null","<div style=""display: flex; justify-content: center; align-items: center;"">
                <img src=""images/semantic/semantic_series_1/semantic_series_1_d.jpg"" style=""width: 300px; height: 300px;"" />
              </div>","null",""
"","","","","","html-keyboard-response","106","337516","0.0-106.0","69D7F4241A3D4E48B74CD8B43EA022FC","756cc6e1-bc09-45ee-aeb4-d648e3ad8b2c","683bf07d-1a26-40b1-9cff-5abdc1eed0ee","","null","<div style=""display: flex; justify-content: center; align-items: center;"">
                <img src=""images/other/blank.jpg"" style=""width: 300px; height: 300px;"" />
              </div>","null",""
"","","","","","html-keyboard-response","107","340531","0.0-107.0","69D7F4241A3D4E48B74CD8B43EA022FC","756cc6e1-bc09-45ee-aeb4-d648e3ad8b2c","683bf07d-1a26-40b1-9cff-5abdc1eed0ee","","null","<div style=""display: flex; justify-content: center; align-items: center;"">
                <img src=""images/causal/causal_series_6/causal_series_6_a.jpg"" style=""width: 300px; height: 300px;"" />
              </div>","null",""
"","","","","","html-keyboard-response","108","343539","0.0-108.0","69D7F4241A3D4E48B74CD8B43EA022FC","756cc6e1-bc09-45ee-aeb4-d648e3ad8b2c","683bf07d-1a26-40b1-9cff-5abdc1eed0ee","","null","<div style=""display: flex; justify-content: center; align-items: center;"">
                <img src=""images/causal/causal_series_6/causal_series_6_b.jpg"" style=""width: 300px; height: 300px;"" />
              </div>","null",""
"","","","","","html-keyboard-response","109","346549","0.0-109.0","69D7F4241A3D4E48B74CD8B43EA022FC","756cc6e1-bc09-45ee-aeb4-d648e3ad8b2c","683bf07d-1a26-40b1-9cff-5abdc1eed0ee","","null","<div style=""display: flex; justify-content: center; align-items: center;"">
                <img src=""images/causal/causal_series_6/causal_series_6_c.jpg"" style=""width: 300px; height: 300px;"" />
              </div>","null",""
"","","","","","html-button-response","110","347748","0.0-110.0","69D7F4241A3D4E48B74CD8B43EA022FC","756cc6e1-bc09-45ee-aeb4-d648e3ad8b2c","683bf07d-1a26-40b1-9cff-5abdc1eed0ee","","1198","
    <div style=""display: flex; justify-content: center; align-items: center;"">
      <img src=""images/red_deck_2.png"" style=""width: 300px; height: 300px; margin-right: 10px;"" />
      <img src=""images/blue_deck_1.png"" style=""width: 300px; height: 300px;"" />
    </div>","0","0"
"","","","","","html-keyboard-response","111","350751","0.0-111.0-0.0-0.0","69D7F4241A3D4E48B74CD8B43EA022FC","756cc6e1-bc09-45ee-aeb4-d648e3ad8b2c","683bf07d-1a26-40b1-9cff-5abdc1eed0ee","","null","<div style=""display: flex; justify-content: center; align-items: center;"">
                <img src=""images/causal/causal_series_6/causal_series_6_d.jpg"" style=""width: 300px; height: 300px;"" />
              </div>","null",""
"","","","","","html-keyboard-response","112","353752","0.0-112.0","69D7F4241A3D4E48B74CD8B43EA022FC","756cc6e1-bc09-45ee-aeb4-d648e3ad8b2c","683bf07d-1a26-40b1-9cff-5abdc1eed0ee","","null","<div style=""display: flex; justify-content: center; align-items: center;"">
                <img src=""images/other/blank.jpg"" style=""width: 300px; height: 300px;"" />
              </div>","null",""
"","","","","","survey-text","113","366363","0.0-113.0","69D7F4241A3D4E48B74CD8B43EA022FC","756cc6e1-bc09-45ee-aeb4-d648e3ad8b2c","683bf07d-1a26-40b1-9cff-5abdc1eed0ee","","12608","","{""Q0"":""One is red and one is blue""}",""
"","","","","","survey-text","114","372674","0.0-114.0","69D7F4241A3D4E48B74CD8B43EA022FC","756cc6e1-bc09-45ee-aeb4-d648e3ad8b2c","683bf07d-1a26-40b1-9cff-5abdc1eed0ee","","6310","","{""Q0"":""Red""}",""
"","","","","","html-button-response","115","382275","0.0-115.0","69D7F4241A3D4E48B74CD8B43EA022FC","756cc6e1-bc09-45ee-aeb4-d648e3ad8b2c","683bf07d-1a26-40b1-9cff-5abdc1eed0ee","","9600","Which color deck does the fourth image continue the story from the series?","1",""
"","","","","","html-button-response","116","384872","0.0-116.0","69D7F4241A3D4E48B74CD8B43EA022FC","756cc6e1-bc09-45ee-aeb4-d648e3ad8b2c","683bf07d-1a26-40b1-9cff-5abdc1eed0ee","","2597","Which color deck does the fourth image not follow the story from the series?","0",""
"","","","","","survey-text","117","389076","0.0-117.0","69D7F4241A3D4E48B74CD8B43EA022FC","756cc6e1-bc09-45ee-aeb4-d648e3ad8b2c","683bf07d-1a26-40b1-9cff-5abdc1eed0ee","","4202","","{""Q0"":""MALE"",""Q1"":""33""}",""
"","","","","","instructions","118","396936","0.0-118.0","69D7F4241A3D4E48B74CD8B43EA022FC","756cc6e1-bc09-45ee-aeb4-d648e3ad8b2c","683bf07d-1a26-40b1-9cff-5abdc1eed0ee","[{""page_index"":0,""viewing_time"":7859}]","7859","","",""
