"success","timeout","failed_images","failed_audio","failed_video","trial_type","trial_index","time_elapsed","internal_node_id","subject_id","study_id","session_id","view_history","rt","stimulus","response","choice"
"true","false","[]","[]","[]","preload","0","9915","0.0-0.0","2E42C4FA95A843539EAACD36EFE41B17","902ecd79-fcee-4e5a-ad3d-0940da374663","61e1ec61-13c7-4a8f-bf47-a91ec9909364","","","","",""
"","","","","","instructions","1","15921","0.0-1.0","2E42C4FA95A843539EAACD36EFE41B17","902ecd79-fcee-4e5a-ad3d-0940da374663","61e1ec61-13c7-4a8f-bf47-a91ec9909364","[{""page_index"":0,""viewing_time"":6002}]","6005","","",""
"","","","","","instructions","2","25439","0.0-2.0","2E42C4FA95A843539EAACD36EFE41B17","902ecd79-fcee-4e5a-ad3d-0940da374663","61e1ec61-13c7-4a8f-bf47-a91ec9909364","[{""page_index"":0,""viewing_time"":9511}]","9515","","",""
"true","","","","","fullscreen","3","28409","0.0-3.0","2E42C4FA95A843539EAACD36EFE41B17","902ecd79-fcee-4e5a-ad3d-0940da374663","61e1ec61-13c7-4a8f-bf47-a91ec9909364","","1944","","",""
"","","","","","instructions","4","47923","0.0-4.0","2E42C4FA95A843539EAACD36EFE41B17","902ecd79-fcee-4e5a-ad3d-0940da374663","61e1ec61-13c7-4a8f-bf47-a91ec9909364","[{""page_index"":0,""viewing_time"":19508}]","19512","","",""
"","","","","","html-keyboard-response","5","50950","0.0-5.0","2E42C4FA95A843539EAACD36EFE41B17","902ecd79-fcee-4e5a-ad3d-0940da374663","61e1ec61-13c7-4a8f-bf47-a91ec9909364","","null","<div style=""display: flex; justify-content: center; align-items: center;"">
                <img src=""images/causal/causal_series_13/causal_series_13_a.jpg"" style=""width: 300px; height: 300px;"" />
              </div>","null",""
"","","","","","html-keyboard-response","6","53957","0.0-6.0","2E42C4FA95A843539EAACD36EFE41B17","902ecd79-fcee-4e5a-ad3d-0940da374663","61e1ec61-13c7-4a8f-bf47-a91ec9909364","","null","<div style=""display: flex; justify-content: center; align-items: center;"">
                <img src=""images/causal/causal_series_13/causal_series_13_b.jpg"" style=""width: 300px; height: 300px;"" />
              </div>","null",""
"","","","","","html-keyboard-response","7","56972","0.0-7.0","2E42C4FA95A843539EAACD36EFE41B17","902ecd79-fcee-4e5a-ad3d-0940da374663","61e1ec61-13c7-4a8f-bf47-a91ec9909364","","null","<div style=""display: flex; justify-content: center; align-items: center;"">
                <img src=""images/causal/causal_series_13/causal_series_13_c.jpg"" style=""width: 300px; height: 300px;"" />
              </div>","null",""
"","","","","","html-button-response","8","60469","0.0-8.0","2E42C4FA95A843539EAACD36EFE41B17","902ecd79-fcee-4e5a-ad3d-0940da374663","61e1ec61-13c7-4a8f-bf47-a91ec9909364","","3490","
    <div style=""display: flex; justify-content: center; align-items: center;"">
      <img src=""images/red_deck_2.png"" style=""width: 300px; height: 300px; margin-right: 10px;"" />
      <img src=""images/blue_deck_1.png"" style=""width: 300px; height: 300px;"" />
    </div>","1","1"
"","","","","","html-keyboard-response","9","63477","0.0-9.0-1.0-0.0","2E42C4FA95A843539EAACD36EFE41B17","902ecd79-fcee-4e5a-ad3d-0940da374663","61e1ec61-13c7-4a8f-bf47-a91ec9909364","","null","<div style=""display: flex; justify-content: center; align-items: center;"">
                <img src=""images/semantic/semantic_series_12/semantic_series_12_d.jpg"" style=""width: 300px; height: 300px;"" />
              </div>","null",""
"","","","","","html-keyboard-response","10","66489","0.0-10.0","2E42C4FA95A843539EAACD36EFE41B17","902ecd79-fcee-4e5a-ad3d-0940da374663","61e1ec61-13c7-4a8f-bf47-a91ec9909364","","null","<div style=""display: flex; justify-content: center; align-items: center;"">
                <img src=""images/other/blank.jpg"" style=""width: 300px; height: 300px;"" />
              </div>","null",""
"","","","","","html-keyboard-response","11","69499","0.0-11.0","2E42C4FA95A843539EAACD36EFE41B17","902ecd79-fcee-4e5a-ad3d-0940da374663","61e1ec61-13c7-4a8f-bf47-a91ec9909364","","null","<div style=""display: flex; justify-content: center; align-items: center;"">
                <img src=""images/causal/causal_series_8/causal_series_8_a.jpg"" style=""width: 300px; height: 300px;"" />
              </div>","null",""
"","","","","","html-keyboard-response","12","72505","0.0-12.0","2E42C4FA95A843539EAACD36EFE41B17","902ecd79-fcee-4e5a-ad3d-0940da374663","61e1ec61-13c7-4a8f-bf47-a91ec9909364","","null","<div style=""display: flex; justify-content: center; align-items: center;"">
                <img src=""images/causal/causal_series_8/causal_series_8_b.jpg"" style=""width: 300px; height: 300px;"" />
              </div>","null",""
"","","","","","html-keyboard-response","13","75514","0.0-13.0","2E42C4FA95A843539EAACD36EFE41B17","902ecd79-fcee-4e5a-ad3d-0940da374663","61e1ec61-13c7-4a8f-bf47-a91ec9909364","","null","<div style=""display: flex; justify-content: center; align-items: center;"">
                <img src=""images/causal/causal_series_8/causal_series_8_c.jpg"" style=""width: 300px; height: 300px;"" />
              </div>","null",""
"","","","","","html-button-response","14","77056","0.0-14.0","2E42C4FA95A843539EAACD36EFE41B17","902ecd79-fcee-4e5a-ad3d-0940da374663","61e1ec61-13c7-4a8f-bf47-a91ec9909364","","1538","
    <div style=""display: flex; justify-content: center; align-items: center;"">
      <img src=""images/red_deck_2.png"" style=""width: 300px; height: 300px; margin-right: 10px;"" />
      <img src=""images/blue_deck_1.png"" style=""width: 300px; height: 300px;"" />
    </div>","0","0"
"","","","","","html-keyboard-response","15","80072","0.0-15.0-0.0-0.0","2E42C4FA95A843539EAACD36EFE41B17","902ecd79-fcee-4e5a-ad3d-0940da374663","61e1ec61-13c7-4a8f-bf47-a91ec9909364","","null","<div style=""display: flex; justify-content: center; align-items: center;"">
                <img src=""images/causal/causal_series_8/causal_series_8_d.jpg"" style=""width: 300px; height: 300px;"" />
              </div>","null",""
"","","","","","html-keyboard-response","16","83086","0.0-16.0","2E42C4FA95A843539EAACD36EFE41B17","902ecd79-fcee-4e5a-ad3d-0940da374663","61e1ec61-13c7-4a8f-bf47-a91ec9909364","","null","<div style=""display: flex; justify-content: center; align-items: center;"">
                <img src=""images/other/blank.jpg"" style=""width: 300px; height: 300px;"" />
              </div>","null",""
"","","","","","html-keyboard-response","17","86092","0.0-17.0","2E42C4FA95A843539EAACD36EFE41B17","902ecd79-fcee-4e5a-ad3d-0940da374663","61e1ec61-13c7-4a8f-bf47-a91ec9909364","","null","<div style=""display: flex; justify-content: center; align-items: center;"">
                <img src=""images/causal/causal_series_12/causal_series_12_a.jpg"" style=""width: 300px; height: 300px;"" />
              </div>","null",""
"","","","","","html-keyboard-response","18","89101","0.0-18.0","2E42C4FA95A843539EAACD36EFE41B17","902ecd79-fcee-4e5a-ad3d-0940da374663","61e1ec61-13c7-4a8f-bf47-a91ec9909364","","null","<div style=""display: flex; justify-content: center; align-items: center;"">
                <img src=""images/causal/causal_series_12/causal_series_12_b.jpg"" style=""width: 300px; height: 300px;"" />
              </div>","null",""
"","","","","","html-keyboard-response","19","92113","0.0-19.0","2E42C4FA95A843539EAACD36EFE41B17","902ecd79-fcee-4e5a-ad3d-0940da374663","61e1ec61-13c7-4a8f-bf47-a91ec9909364","","null","<div style=""display: flex; justify-content: center; align-items: center;"">
                <img src=""images/causal/causal_series_12/causal_series_12_c.jpg"" style=""width: 300px; height: 300px;"" />
              </div>","null",""
"","","","","","html-button-response","20","93315","0.0-20.0","2E42C4FA95A843539EAACD36EFE41B17","902ecd79-fcee-4e5a-ad3d-0940da374663","61e1ec61-13c7-4a8f-bf47-a91ec9909364","","1197","
    <div style=""display: flex; justify-content: center; align-items: center;"">
      <img src=""images/red_deck_2.png"" style=""width: 300px; height: 300px; margin-right: 10px;"" />
      <img src=""images/blue_deck_1.png"" style=""width: 300px; height: 300px;"" />
    </div>","0","0"
"","","","","","html-keyboard-response","21","96320","0.0-21.0-0.0-0.0","2E42C4FA95A843539EAACD36EFE41B17","902ecd79-fcee-4e5a-ad3d-0940da374663","61e1ec61-13c7-4a8f-bf47-a91ec9909364","","null","<div style=""display: flex; justify-content: center; align-items: center;"">
                <img src=""images/causal/causal_series_12/causal_series_12_d.jpg"" style=""width: 300px; height: 300px;"" />
              </div>","null",""
"","","","","","html-keyboard-response","22","99337","0.0-22.0","2E42C4FA95A843539EAACD36EFE41B17","902ecd79-fcee-4e5a-ad3d-0940da374663","61e1ec61-13c7-4a8f-bf47-a91ec9909364","","null","<div style=""display: flex; justify-content: center; align-items: center;"">
                <img src=""images/other/blank.jpg"" style=""width: 300px; height: 300px;"" />
              </div>","null",""
"","","","","","html-keyboard-response","23","102351","0.0-23.0","2E42C4FA95A843539EAACD36EFE41B17","902ecd79-fcee-4e5a-ad3d-0940da374663","61e1ec61-13c7-4a8f-bf47-a91ec9909364","","null","<div style=""display: flex; justify-content: center; align-items: center;"">
                <img src=""images/causal/causal_series_7/causal_series_7_a.jpg"" style=""width: 300px; height: 300px;"" />
              </div>","null",""
"","","","","","html-keyboard-response","24","105354","0.0-24.0","2E42C4FA95A843539EAACD36EFE41B17","902ecd79-fcee-4e5a-ad3d-0940da374663","61e1ec61-13c7-4a8f-bf47-a91ec9909364","","null","<div style=""display: flex; justify-content: center; align-items: center;"">
                <img src=""images/causal/causal_series_7/causal_series_7_b.jpg"" style=""width: 300px; height: 300px;"" />
              </div>","null",""
"","","","","","html-keyboard-response","25","108367","0.0-25.0","2E42C4FA95A843539EAACD36EFE41B17","902ecd79-fcee-4e5a-ad3d-0940da374663","61e1ec61-13c7-4a8f-bf47-a91ec9909364","","null","<div style=""display: flex; justify-content: center; align-items: center;"">
                <img src=""images/causal/causal_series_7/causal_series_7_c.jpg"" style=""width: 300px; height: 300px;"" />
              </div>","null",""
"","","","","","html-button-response","26","109497","0.0-26.0","2E42C4FA95A843539EAACD36EFE41B17","902ecd79-fcee-4e5a-ad3d-0940da374663","61e1ec61-13c7-4a8f-bf47-a91ec9909364","","1123","
    <div style=""display: flex; justify-content: center; align-items: center;"">
      <img src=""images/red_deck_2.png"" style=""width: 300px; height: 300px; margin-right: 10px;"" />
      <img src=""images/blue_deck_1.png"" style=""width: 300px; height: 300px;"" />
    </div>","1","1"
"","","","","","html-keyboard-response","27","112514","0.0-27.0-1.0-0.0","2E42C4FA95A843539EAACD36EFE41B17","902ecd79-fcee-4e5a-ad3d-0940da374663","61e1ec61-13c7-4a8f-bf47-a91ec9909364","","null","<div style=""display: flex; justify-content: center; align-items: center;"">
                <img src=""images/semantic/semantic_series_6/semantic_series_6_d.jpg"" style=""width: 300px; height: 300px;"" />
              </div>","null",""
"","","","","","html-keyboard-response","28","115525","0.0-28.0","2E42C4FA95A843539EAACD36EFE41B17","902ecd79-fcee-4e5a-ad3d-0940da374663","61e1ec61-13c7-4a8f-bf47-a91ec9909364","","null","<div style=""display: flex; justify-content: center; align-items: center;"">
                <img src=""images/other/blank.jpg"" style=""width: 300px; height: 300px;"" />
              </div>","null",""
"","","","","","html-keyboard-response","29","118539","0.0-29.0","2E42C4FA95A843539EAACD36EFE41B17","902ecd79-fcee-4e5a-ad3d-0940da374663","61e1ec61-13c7-4a8f-bf47-a91ec9909364","","null","<div style=""display: flex; justify-content: center; align-items: center;"">
                <img src=""images/causal/causal_series_11/causal_series_11_a.jpg"" style=""width: 300px; height: 300px;"" />
              </div>","null",""
"","","","","","html-keyboard-response","30","121550","0.0-30.0","2E42C4FA95A843539EAACD36EFE41B17","902ecd79-fcee-4e5a-ad3d-0940da374663","61e1ec61-13c7-4a8f-bf47-a91ec9909364","","null","<div style=""display: flex; justify-content: center; align-items: center;"">
                <img src=""images/causal/causal_series_11/causal_series_11_b.jpg"" style=""width: 300px; height: 300px;"" />
              </div>","null",""
"","","","","","html-keyboard-response","31","124572","0.0-31.0","2E42C4FA95A843539EAACD36EFE41B17","902ecd79-fcee-4e5a-ad3d-0940da374663","61e1ec61-13c7-4a8f-bf47-a91ec9909364","","null","<div style=""display: flex; justify-content: center; align-items: center;"">
                <img src=""images/causal/causal_series_11/causal_series_11_c.jpg"" style=""width: 300px; height: 300px;"" />
              </div>","null",""
"","","","","","html-button-response","32","125603","0.0-32.0","2E42C4FA95A843539EAACD36EFE41B17","902ecd79-fcee-4e5a-ad3d-0940da374663","61e1ec61-13c7-4a8f-bf47-a91ec9909364","","1027","
    <div style=""display: flex; justify-content: center; align-items: center;"">
      <img src=""images/red_deck_2.png"" style=""width: 300px; height: 300px; margin-right: 10px;"" />
      <img src=""images/blue_deck_1.png"" style=""width: 300px; height: 300px;"" />
    </div>","1","1"
"","","","","","html-keyboard-response","33","128617","0.0-33.0-1.0-0.0","2E42C4FA95A843539EAACD36EFE41B17","902ecd79-fcee-4e5a-ad3d-0940da374663","61e1ec61-13c7-4a8f-bf47-a91ec9909364","","null","<div style=""display: flex; justify-content: center; align-items: center;"">
                <img src=""images/semantic/semantic_series_10/semantic_series_10_d.jpg"" style=""width: 300px; height: 300px;"" />
              </div>","null",""
"","","","","","html-keyboard-response","34","131627","0.0-34.0","2E42C4FA95A843539EAACD36EFE41B17","902ecd79-fcee-4e5a-ad3d-0940da374663","61e1ec61-13c7-4a8f-bf47-a91ec9909364","","null","<div style=""display: flex; justify-content: center; align-items: center;"">
                <img src=""images/other/blank.jpg"" style=""width: 300px; height: 300px;"" />
              </div>","null",""
"","","","","","html-keyboard-response","35","134639","0.0-35.0","2E42C4FA95A843539EAACD36EFE41B17","902ecd79-fcee-4e5a-ad3d-0940da374663","61e1ec61-13c7-4a8f-bf47-a91ec9909364","","null","<div style=""display: flex; justify-content: center; align-items: center;"">
                <img src=""images/causal/causal_series_16/causal_series_16_a.jpg"" style=""width: 300px; height: 300px;"" />
              </div>","null",""
"","","","","","html-keyboard-response","36","137648","0.0-36.0","2E42C4FA95A843539EAACD36EFE41B17","902ecd79-fcee-4e5a-ad3d-0940da374663","61e1ec61-13c7-4a8f-bf47-a91ec9909364","","null","<div style=""display: flex; justify-content: center; align-items: center;"">
                <img src=""images/causal/causal_series_16/causal_series_16_b.jpg"" style=""width: 300px; height: 300px;"" />
              </div>","null",""
"","","","","","html-keyboard-response","37","140654","0.0-37.0","2E42C4FA95A843539EAACD36EFE41B17","902ecd79-fcee-4e5a-ad3d-0940da374663","61e1ec61-13c7-4a8f-bf47-a91ec9909364","","null","<div style=""display: flex; justify-content: center; align-items: center;"">
                <img src=""images/causal/causal_series_16/causal_series_16_c.jpg"" style=""width: 300px; height: 300px;"" />
              </div>","null",""
"","","","","","html-button-response","38","141450","0.0-38.0","2E42C4FA95A843539EAACD36EFE41B17","902ecd79-fcee-4e5a-ad3d-0940da374663","61e1ec61-13c7-4a8f-bf47-a91ec9909364","","791","
    <div style=""display: flex; justify-content: center; align-items: center;"">
      <img src=""images/red_deck_2.png"" style=""width: 300px; height: 300px; margin-right: 10px;"" />
      <img src=""images/blue_deck_1.png"" style=""width: 300px; height: 300px;"" />
    </div>","0","0"
"","","","","","html-keyboard-response","39","144463","0.0-39.0-0.0-0.0","2E42C4FA95A843539EAACD36EFE41B17","902ecd79-fcee-4e5a-ad3d-0940da374663","61e1ec61-13c7-4a8f-bf47-a91ec9909364","","null","<div style=""display: flex; justify-content: center; align-items: center;"">
                <img src=""images/causal/causal_series_16/causal_series_16_d.jpg"" style=""width: 300px; height: 300px;"" />
              </div>","null",""
"","","","","","html-keyboard-response","40","147480","0.0-40.0","2E42C4FA95A843539EAACD36EFE41B17","902ecd79-fcee-4e5a-ad3d-0940da374663","61e1ec61-13c7-4a8f-bf47-a91ec9909364","","null","<div style=""display: flex; justify-content: center; align-items: center;"">
                <img src=""images/other/blank.jpg"" style=""width: 300px; height: 300px;"" />
              </div>","null",""
"","","","","","html-keyboard-response","41","150497","0.0-41.0","2E42C4FA95A843539EAACD36EFE41B17","902ecd79-fcee-4e5a-ad3d-0940da374663","61e1ec61-13c7-4a8f-bf47-a91ec9909364","","null","<div style=""display: flex; justify-content: center; align-items: center;"">
                <img src=""images/causal/causal_series_5/causal_series_5_a.jpg"" style=""width: 300px; height: 300px;"" />
              </div>","null",""
"","","","","","html-keyboard-response","42","153514","0.0-42.0","2E42C4FA95A843539EAACD36EFE41B17","902ecd79-fcee-4e5a-ad3d-0940da374663","61e1ec61-13c7-4a8f-bf47-a91ec9909364","","null","<div style=""display: flex; justify-content: center; align-items: center;"">
                <img src=""images/causal/causal_series_5/causal_series_5_b.jpg"" style=""width: 300px; height: 300px;"" />
              </div>","null",""
"","","","","","html-keyboard-response","43","156519","0.0-43.0","2E42C4FA95A843539EAACD36EFE41B17","902ecd79-fcee-4e5a-ad3d-0940da374663","61e1ec61-13c7-4a8f-bf47-a91ec9909364","","null","<div style=""display: flex; justify-content: center; align-items: center;"">
                <img src=""images/causal/causal_series_5/causal_series_5_c.jpg"" style=""width: 300px; height: 300px;"" />
              </div>","null",""
"","","","","","html-button-response","44","157156","0.0-44.0","2E42C4FA95A843539EAACD36EFE41B17","902ecd79-fcee-4e5a-ad3d-0940da374663","61e1ec61-13c7-4a8f-bf47-a91ec9909364","","632","
    <div style=""display: flex; justify-content: center; align-items: center;"">
      <img src=""images/red_deck_2.png"" style=""width: 300px; height: 300px; margin-right: 10px;"" />
      <img src=""images/blue_deck_1.png"" style=""width: 300px; height: 300px;"" />
    </div>","0","0"
"","","","","","html-keyboard-response","45","160168","0.0-45.0-0.0-0.0","2E42C4FA95A843539EAACD36EFE41B17","902ecd79-fcee-4e5a-ad3d-0940da374663","61e1ec61-13c7-4a8f-bf47-a91ec9909364","","null","<div style=""display: flex; justify-content: center; align-items: center;"">
                <img src=""images/causal/causal_series_5/causal_series_5_d.jpg"" style=""width: 300px; height: 300px;"" />
              </div>","null",""
"","","","","","html-keyboard-response","46","163177","0.0-46.0","2E42C4FA95A843539EAACD36EFE41B17","902ecd79-fcee-4e5a-ad3d-0940da374663","61e1ec61-13c7-4a8f-bf47-a91ec9909364","","null","<div style=""display: flex; justify-content: center; align-items: center;"">
                <img src=""images/other/blank.jpg"" style=""width: 300px; height: 300px;"" />
              </div>","null",""
"","","","","","html-keyboard-response","47","166186","0.0-47.0","2E42C4FA95A843539EAACD36EFE41B17","902ecd79-fcee-4e5a-ad3d-0940da374663","61e1ec61-13c7-4a8f-bf47-a91ec9909364","","null","<div style=""display: flex; justify-content: center; align-items: center;"">
                <img src=""images/causal/causal_series_1/causal_series_1_a.jpg"" style=""width: 300px; height: 300px;"" />
              </div>","null",""
"","","","","","html-keyboard-response","48","169192","0.0-48.0","2E42C4FA95A843539EAACD36EFE41B17","902ecd79-fcee-4e5a-ad3d-0940da374663","61e1ec61-13c7-4a8f-bf47-a91ec9909364","","null","<div style=""display: flex; justify-content: center; align-items: center;"">
                <img src=""images/causal/causal_series_1/causal_series_1_b.jpg"" style=""width: 300px; height: 300px;"" />
              </div>","null",""
"","","","","","html-keyboard-response","49","172200","0.0-49.0","2E42C4FA95A843539EAACD36EFE41B17","902ecd79-fcee-4e5a-ad3d-0940da374663","61e1ec61-13c7-4a8f-bf47-a91ec9909364","","null","<div style=""display: flex; justify-content: center; align-items: center;"">
                <img src=""images/causal/causal_series_1/causal_series_1_c.jpg"" style=""width: 300px; height: 300px;"" />
              </div>","null",""
"","","","","","html-button-response","50","172798","0.0-50.0","2E42C4FA95A843539EAACD36EFE41B17","902ecd79-fcee-4e5a-ad3d-0940da374663","61e1ec61-13c7-4a8f-bf47-a91ec9909364","","595","
    <div style=""display: flex; justify-content: center; align-items: center;"">
      <img src=""images/red_deck_2.png"" style=""width: 300px; height: 300px; margin-right: 10px;"" />
      <img src=""images/blue_deck_1.png"" style=""width: 300px; height: 300px;"" />
    </div>","1","1"
"","","","","","html-keyboard-response","51","175813","0.0-51.0-1.0-0.0","2E42C4FA95A843539EAACD36EFE41B17","902ecd79-fcee-4e5a-ad3d-0940da374663","61e1ec61-13c7-4a8f-bf47-a91ec9909364","","null","<div style=""display: flex; justify-content: center; align-items: center;"">
                <img src=""images/semantic/semantic_series_18/semantic_series_18_d.jpg"" style=""width: 300px; height: 300px;"" />
              </div>","null",""
"","","","","","html-keyboard-response","52","178824","0.0-52.0","2E42C4FA95A843539EAACD36EFE41B17","902ecd79-fcee-4e5a-ad3d-0940da374663","61e1ec61-13c7-4a8f-bf47-a91ec9909364","","null","<div style=""display: flex; justify-content: center; align-items: center;"">
                <img src=""images/other/blank.jpg"" style=""width: 300px; height: 300px;"" />
              </div>","null",""
"","","","","","html-keyboard-response","53","181831","0.0-53.0","2E42C4FA95A843539EAACD36EFE41B17","902ecd79-fcee-4e5a-ad3d-0940da374663","61e1ec61-13c7-4a8f-bf47-a91ec9909364","","null","<div style=""display: flex; justify-content: center; align-items: center;"">
                <img src=""images/causal/causal_series_4/causal_series_4_a.jpg"" style=""width: 300px; height: 300px;"" />
              </div>","null",""
"","","","","","html-keyboard-response","54","184844","0.0-54.0","2E42C4FA95A843539EAACD36EFE41B17","902ecd79-fcee-4e5a-ad3d-0940da374663","61e1ec61-13c7-4a8f-bf47-a91ec9909364","","null","<div style=""display: flex; justify-content: center; align-items: center;"">
                <img src=""images/causal/causal_series_4/causal_series_4_b.jpg"" style=""width: 300px; height: 300px;"" />
              </div>","null",""
"","","","","","html-keyboard-response","55","187858","0.0-55.0","2E42C4FA95A843539EAACD36EFE41B17","902ecd79-fcee-4e5a-ad3d-0940da374663","61e1ec61-13c7-4a8f-bf47-a91ec9909364","","null","<div style=""display: flex; justify-content: center; align-items: center;"">
                <img src=""images/causal/causal_series_4/causal_series_4_c.jpg"" style=""width: 300px; height: 300px;"" />
              </div>","null",""
"","","","","","html-button-response","56","188461","0.0-56.0","2E42C4FA95A843539EAACD36EFE41B17","902ecd79-fcee-4e5a-ad3d-0940da374663","61e1ec61-13c7-4a8f-bf47-a91ec9909364","","598","
    <div style=""display: flex; justify-content: center; align-items: center;"">
      <img src=""images/red_deck_2.png"" style=""width: 300px; height: 300px; margin-right: 10px;"" />
      <img src=""images/blue_deck_1.png"" style=""width: 300px; height: 300px;"" />
    </div>","1","1"
"","","","","","html-keyboard-response","57","191467","0.0-57.0-1.0-0.0","2E42C4FA95A843539EAACD36EFE41B17","902ecd79-fcee-4e5a-ad3d-0940da374663","61e1ec61-13c7-4a8f-bf47-a91ec9909364","","null","<div style=""display: flex; justify-content: center; align-items: center;"">
                <img src=""images/semantic/semantic_series_3/semantic_series_3_d.jpg"" style=""width: 300px; height: 300px;"" />
              </div>","null",""
"","","","","","html-keyboard-response","58","194471","0.0-58.0","2E42C4FA95A843539EAACD36EFE41B17","902ecd79-fcee-4e5a-ad3d-0940da374663","61e1ec61-13c7-4a8f-bf47-a91ec9909364","","null","<div style=""display: flex; justify-content: center; align-items: center;"">
                <img src=""images/other/blank.jpg"" style=""width: 300px; height: 300px;"" />
              </div>","null",""
"","","","","","html-keyboard-response","59","197488","0.0-59.0","2E42C4FA95A843539EAACD36EFE41B17","902ecd79-fcee-4e5a-ad3d-0940da374663","61e1ec61-13c7-4a8f-bf47-a91ec9909364","","null","<div style=""display: flex; justify-content: center; align-items: center;"">
                <img src=""images/causal/causal_series_6/causal_series_6_a.jpg"" style=""width: 300px; height: 300px;"" />
              </div>","null",""
"","","","","","html-keyboard-response","60","200499","0.0-60.0","2E42C4FA95A843539EAACD36EFE41B17","902ecd79-fcee-4e5a-ad3d-0940da374663","61e1ec61-13c7-4a8f-bf47-a91ec9909364","","null","<div style=""display: flex; justify-content: center; align-items: center;"">
                <img src=""images/causal/causal_series_6/causal_series_6_b.jpg"" style=""width: 300px; height: 300px;"" />
              </div>","null",""
"","","","","","html-keyboard-response","61","203503","0.0-61.0","2E42C4FA95A843539EAACD36EFE41B17","902ecd79-fcee-4e5a-ad3d-0940da374663","61e1ec61-13c7-4a8f-bf47-a91ec9909364","","null","<div style=""display: flex; justify-content: center; align-items: center;"">
                <img src=""images/causal/causal_series_6/causal_series_6_c.jpg"" style=""width: 300px; height: 300px;"" />
              </div>","null",""
"","","","","","html-button-response","62","206231","0.0-62.0","2E42C4FA95A843539EAACD36EFE41B17","902ecd79-fcee-4e5a-ad3d-0940da374663","61e1ec61-13c7-4a8f-bf47-a91ec9909364","","2723","
    <div style=""display: flex; justify-content: center; align-items: center;"">
      <img src=""images/red_deck_2.png"" style=""width: 300px; height: 300px; margin-right: 10px;"" />
      <img src=""images/blue_deck_1.png"" style=""width: 300px; height: 300px;"" />
    </div>","0","0"
"","","","","","html-keyboard-response","63","209238","0.0-63.0-0.0-0.0","2E42C4FA95A843539EAACD36EFE41B17","902ecd79-fcee-4e5a-ad3d-0940da374663","61e1ec61-13c7-4a8f-bf47-a91ec9909364","","null","<div style=""display: flex; justify-content: center; align-items: center;"">
                <img src=""images/causal/causal_series_6/causal_series_6_d.jpg"" style=""width: 300px; height: 300px;"" />
              </div>","null",""
"","","","","","html-keyboard-response","64","212250","0.0-64.0","2E42C4FA95A843539EAACD36EFE41B17","902ecd79-fcee-4e5a-ad3d-0940da374663","61e1ec61-13c7-4a8f-bf47-a91ec9909364","","null","<div style=""display: flex; justify-content: center; align-items: center;"">
                <img src=""images/other/blank.jpg"" style=""width: 300px; height: 300px;"" />
              </div>","null",""
"","","","","","html-keyboard-response","65","215266","0.0-65.0","2E42C4FA95A843539EAACD36EFE41B17","902ecd79-fcee-4e5a-ad3d-0940da374663","61e1ec61-13c7-4a8f-bf47-a91ec9909364","","null","<div style=""display: flex; justify-content: center; align-items: center;"">
                <img src=""images/causal/causal_series_3/causal_series_3_a.jpg"" style=""width: 300px; height: 300px;"" />
              </div>","null",""
"","","","","","html-keyboard-response","66","218284","0.0-66.0","2E42C4FA95A843539EAACD36EFE41B17","902ecd79-fcee-4e5a-ad3d-0940da374663","61e1ec61-13c7-4a8f-bf47-a91ec9909364","","null","<div style=""display: flex; justify-content: center; align-items: center;"">
                <img src=""images/causal/causal_series_3/causal_series_3_b.jpg"" style=""width: 300px; height: 300px;"" />
              </div>","null",""
"","","","","","html-keyboard-response","67","221302","0.0-67.0","2E42C4FA95A843539EAACD36EFE41B17","902ecd79-fcee-4e5a-ad3d-0940da374663","61e1ec61-13c7-4a8f-bf47-a91ec9909364","","null","<div style=""display: flex; justify-content: center; align-items: center;"">
                <img src=""images/causal/causal_series_3/causal_series_3_c.jpg"" style=""width: 300px; height: 300px;"" />
              </div>","null",""
"","","","","","html-button-response","68","221917","0.0-68.0","2E42C4FA95A843539EAACD36EFE41B17","902ecd79-fcee-4e5a-ad3d-0940da374663","61e1ec61-13c7-4a8f-bf47-a91ec9909364","","610","
    <div style=""display: flex; justify-content: center; align-items: center;"">
      <img src=""images/red_deck_2.png"" style=""width: 300px; height: 300px; margin-right: 10px;"" />
      <img src=""images/blue_deck_1.png"" style=""width: 300px; height: 300px;"" />
    </div>","1","1"
"","","","","","html-keyboard-response","69","224921","0.0-69.0-1.0-0.0","2E42C4FA95A843539EAACD36EFE41B17","902ecd79-fcee-4e5a-ad3d-0940da374663","61e1ec61-13c7-4a8f-bf47-a91ec9909364","","null","<div style=""display: flex; justify-content: center; align-items: center;"">
                <img src=""images/semantic/semantic_series_2/semantic_series_2_d.jpg"" style=""width: 300px; height: 300px;"" />
              </div>","null",""
"","","","","","html-keyboard-response","70","227939","0.0-70.0","2E42C4FA95A843539EAACD36EFE41B17","902ecd79-fcee-4e5a-ad3d-0940da374663","61e1ec61-13c7-4a8f-bf47-a91ec9909364","","null","<div style=""display: flex; justify-content: center; align-items: center;"">
                <img src=""images/other/blank.jpg"" style=""width: 300px; height: 300px;"" />
              </div>","null",""
"","","","","","html-keyboard-response","71","230948","0.0-71.0","2E42C4FA95A843539EAACD36EFE41B17","902ecd79-fcee-4e5a-ad3d-0940da374663","61e1ec61-13c7-4a8f-bf47-a91ec9909364","","null","<div style=""display: flex; justify-content: center; align-items: center;"">
                <img src=""images/causal/causal_series_17/causal_series_17_a.jpg"" style=""width: 300px; height: 300px;"" />
              </div>","null",""
"","","","","","html-keyboard-response","72","233958","0.0-72.0","2E42C4FA95A843539EAACD36EFE41B17","902ecd79-fcee-4e5a-ad3d-0940da374663","61e1ec61-13c7-4a8f-bf47-a91ec9909364","","null","<div style=""display: flex; justify-content: center; align-items: center;"">
                <img src=""images/causal/causal_series_17/causal_series_17_b.jpg"" style=""width: 300px; height: 300px;"" />
              </div>","null",""
"","","","","","html-keyboard-response","73","236962","0.0-73.0","2E42C4FA95A843539EAACD36EFE41B17","902ecd79-fcee-4e5a-ad3d-0940da374663","61e1ec61-13c7-4a8f-bf47-a91ec9909364","","null","<div style=""display: flex; justify-content: center; align-items: center;"">
                <img src=""images/causal/causal_series_17/causal_series_17_c.jpg"" style=""width: 300px; height: 300px;"" />
              </div>","null",""
"","","","","","html-button-response","74","237941","0.0-74.0","2E42C4FA95A843539EAACD36EFE41B17","902ecd79-fcee-4e5a-ad3d-0940da374663","61e1ec61-13c7-4a8f-bf47-a91ec9909364","","974","
    <div style=""display: flex; justify-content: center; align-items: center;"">
      <img src=""images/red_deck_2.png"" style=""width: 300px; height: 300px; margin-right: 10px;"" />
      <img src=""images/blue_deck_1.png"" style=""width: 300px; height: 300px;"" />
    </div>","1","1"
"","","","","","html-keyboard-response","75","240958","0.0-75.0-1.0-0.0","2E42C4FA95A843539EAACD36EFE41B17","902ecd79-fcee-4e5a-ad3d-0940da374663","61e1ec61-13c7-4a8f-bf47-a91ec9909364","","null","<div style=""display: flex; justify-content: center; align-items: center;"">
                <img src=""images/semantic/semantic_series_16/semantic_series_16_d.jpg"" style=""width: 300px; height: 300px;"" />
              </div>","null",""
"","","","","","html-keyboard-response","76","243961","0.0-76.0","2E42C4FA95A843539EAACD36EFE41B17","902ecd79-fcee-4e5a-ad3d-0940da374663","61e1ec61-13c7-4a8f-bf47-a91ec9909364","","null","<div style=""display: flex; justify-content: center; align-items: center;"">
                <img src=""images/other/blank.jpg"" style=""width: 300px; height: 300px;"" />
              </div>","null",""
"","","","","","html-keyboard-response","77","246975","0.0-77.0","2E42C4FA95A843539EAACD36EFE41B17","902ecd79-fcee-4e5a-ad3d-0940da374663","61e1ec61-13c7-4a8f-bf47-a91ec9909364","","null","<div style=""display: flex; justify-content: center; align-items: center;"">
                <img src=""images/causal/causal_series_10/causal_series_10_a.jpg"" style=""width: 300px; height: 300px;"" />
              </div>","null",""
"","","","","","html-keyboard-response","78","249984","0.0-78.0","2E42C4FA95A843539EAACD36EFE41B17","902ecd79-fcee-4e5a-ad3d-0940da374663","61e1ec61-13c7-4a8f-bf47-a91ec9909364","","null","<div style=""display: flex; justify-content: center; align-items: center;"">
                <img src=""images/causal/causal_series_10/causal_series_10_b.jpg"" style=""width: 300px; height: 300px;"" />
              </div>","null",""
"","","","","","html-keyboard-response","79","252994","0.0-79.0","2E42C4FA95A843539EAACD36EFE41B17","902ecd79-fcee-4e5a-ad3d-0940da374663","61e1ec61-13c7-4a8f-bf47-a91ec9909364","","null","<div style=""display: flex; justify-content: center; align-items: center;"">
                <img src=""images/causal/causal_series_10/causal_series_10_c.jpg"" style=""width: 300px; height: 300px;"" />
              </div>","null",""
"","","","","","html-button-response","80","254026","0.0-80.0","2E42C4FA95A843539EAACD36EFE41B17","902ecd79-fcee-4e5a-ad3d-0940da374663","61e1ec61-13c7-4a8f-bf47-a91ec9909364","","1027","
    <div style=""display: flex; justify-content: center; align-items: center;"">
      <img src=""images/red_deck_2.png"" style=""width: 300px; height: 300px; margin-right: 10px;"" />
      <img src=""images/blue_deck_1.png"" style=""width: 300px; height: 300px;"" />
    </div>","0","0"
"","","","","","html-keyboard-response","81","257043","0.0-81.0-0.0-0.0","2E42C4FA95A843539EAACD36EFE41B17","902ecd79-fcee-4e5a-ad3d-0940da374663","61e1ec61-13c7-4a8f-bf47-a91ec9909364","","null","<div style=""display: flex; justify-content: center; align-items: center;"">
                <img src=""images/causal/causal_series_10/causal_series_10_d.jpg"" style=""width: 300px; height: 300px;"" />
              </div>","null",""
"","","","","","html-keyboard-response","82","260054","0.0-82.0","2E42C4FA95A843539EAACD36EFE41B17","902ecd79-fcee-4e5a-ad3d-0940da374663","61e1ec61-13c7-4a8f-bf47-a91ec9909364","","null","<div style=""display: flex; justify-content: center; align-items: center;"">
                <img src=""images/other/blank.jpg"" style=""width: 300px; height: 300px;"" />
              </div>","null",""
"","","","","","html-keyboard-response","83","263067","0.0-83.0","2E42C4FA95A843539EAACD36EFE41B17","902ecd79-fcee-4e5a-ad3d-0940da374663","61e1ec61-13c7-4a8f-bf47-a91ec9909364","","null","<div style=""display: flex; justify-content: center; align-items: center;"">
                <img src=""images/causal/causal_series_14/causal_series_14_a.jpg"" style=""width: 300px; height: 300px;"" />
              </div>","null",""
"","","","","","html-keyboard-response","84","266076","0.0-84.0","2E42C4FA95A843539EAACD36EFE41B17","902ecd79-fcee-4e5a-ad3d-0940da374663","61e1ec61-13c7-4a8f-bf47-a91ec9909364","","null","<div style=""display: flex; justify-content: center; align-items: center;"">
                <img src=""images/causal/causal_series_14/causal_series_14_b.jpg"" style=""width: 300px; height: 300px;"" />
              </div>","null",""
"","","","","","html-keyboard-response","85","269084","0.0-85.0","2E42C4FA95A843539EAACD36EFE41B17","902ecd79-fcee-4e5a-ad3d-0940da374663","61e1ec61-13c7-4a8f-bf47-a91ec9909364","","null","<div style=""display: flex; justify-content: center; align-items: center;"">
                <img src=""images/causal/causal_series_14/causal_series_14_c.jpg"" style=""width: 300px; height: 300px;"" />
              </div>","null",""
"","","","","","html-button-response","86","269944","0.0-86.0","2E42C4FA95A843539EAACD36EFE41B17","902ecd79-fcee-4e5a-ad3d-0940da374663","61e1ec61-13c7-4a8f-bf47-a91ec9909364","","856","
    <div style=""display: flex; justify-content: center; align-items: center;"">
      <img src=""images/red_deck_2.png"" style=""width: 300px; height: 300px; margin-right: 10px;"" />
      <img src=""images/blue_deck_1.png"" style=""width: 300px; height: 300px;"" />
    </div>","1","1"
"","","","","","html-keyboard-response","87","272969","0.0-87.0-1.0-0.0","2E42C4FA95A843539EAACD36EFE41B17","902ecd79-fcee-4e5a-ad3d-0940da374663","61e1ec61-13c7-4a8f-bf47-a91ec9909364","","null","<div style=""display: flex; justify-content: center; align-items: center;"">
                <img src=""images/semantic/semantic_series_13/semantic_series_13_d.jpg"" style=""width: 300px; height: 300px;"" />
              </div>","null",""
"","","","","","html-keyboard-response","88","275986","0.0-88.0","2E42C4FA95A843539EAACD36EFE41B17","902ecd79-fcee-4e5a-ad3d-0940da374663","61e1ec61-13c7-4a8f-bf47-a91ec9909364","","null","<div style=""display: flex; justify-content: center; align-items: center;"">
                <img src=""images/other/blank.jpg"" style=""width: 300px; height: 300px;"" />
              </div>","null",""
"","","","","","html-keyboard-response","89","279003","0.0-89.0","2E42C4FA95A843539EAACD36EFE41B17","902ecd79-fcee-4e5a-ad3d-0940da374663","61e1ec61-13c7-4a8f-bf47-a91ec9909364","","null","<div style=""display: flex; justify-content: center; align-items: center;"">
                <img src=""images/causal/causal_series_15/causal_series_15_a.jpg"" style=""width: 300px; height: 300px;"" />
              </div>","null",""
"","","","","","html-keyboard-response","90","282013","0.0-90.0","2E42C4FA95A843539EAACD36EFE41B17","902ecd79-fcee-4e5a-ad3d-0940da374663","61e1ec61-13c7-4a8f-bf47-a91ec9909364","","null","<div style=""display: flex; justify-content: center; align-items: center;"">
                <img src=""images/causal/causal_series_15/causal_series_15_b.jpg"" style=""width: 300px; height: 300px;"" />
              </div>","null",""
"","","","","","html-keyboard-response","91","285022","0.0-91.0","2E42C4FA95A843539EAACD36EFE41B17","902ecd79-fcee-4e5a-ad3d-0940da374663","61e1ec61-13c7-4a8f-bf47-a91ec9909364","","null","<div style=""display: flex; justify-content: center; align-items: center;"">
                <img src=""images/causal/causal_series_15/causal_series_15_c.jpg"" style=""width: 300px; height: 300px;"" />
              </div>","null",""
"","","","","","html-button-response","92","285876","0.0-92.0","2E42C4FA95A843539EAACD36EFE41B17","902ecd79-fcee-4e5a-ad3d-0940da374663","61e1ec61-13c7-4a8f-bf47-a91ec9909364","","850","
    <div style=""display: flex; justify-content: center; align-items: center;"">
      <img src=""images/red_deck_2.png"" style=""width: 300px; height: 300px; margin-right: 10px;"" />
      <img src=""images/blue_deck_1.png"" style=""width: 300px; height: 300px;"" />
    </div>","1","1"
"","","","","","html-keyboard-response","93","288887","0.0-93.0-1.0-0.0","2E42C4FA95A843539EAACD36EFE41B17","902ecd79-fcee-4e5a-ad3d-0940da374663","61e1ec61-13c7-4a8f-bf47-a91ec9909364","","null","<div style=""display: flex; justify-content: center; align-items: center;"">
                <img src=""images/semantic/semantic_series_14/semantic_series_14_d.jpg"" style=""width: 300px; height: 300px;"" />
              </div>","null",""
"","","","","","html-keyboard-response","94","291897","0.0-94.0","2E42C4FA95A843539EAACD36EFE41B17","902ecd79-fcee-4e5a-ad3d-0940da374663","61e1ec61-13c7-4a8f-bf47-a91ec9909364","","null","<div style=""display: flex; justify-content: center; align-items: center;"">
                <img src=""images/other/blank.jpg"" style=""width: 300px; height: 300px;"" />
              </div>","null",""
"","","","","","html-keyboard-response","95","294912","0.0-95.0","2E42C4FA95A843539EAACD36EFE41B17","902ecd79-fcee-4e5a-ad3d-0940da374663","61e1ec61-13c7-4a8f-bf47-a91ec9909364","","null","<div style=""display: flex; justify-content: center; align-items: center;"">
                <img src=""images/causal/causal_series_9/causal_series_9_a.jpg"" style=""width: 300px; height: 300px;"" />
              </div>","null",""
"","","","","","html-keyboard-response","96","297925","0.0-96.0","2E42C4FA95A843539EAACD36EFE41B17","902ecd79-fcee-4e5a-ad3d-0940da374663","61e1ec61-13c7-4a8f-bf47-a91ec9909364","","null","<div style=""display: flex; justify-content: center; align-items: center;"">
                <img src=""images/causal/causal_series_9/causal_series_9_b.jpg"" style=""width: 300px; height: 300px;"" />
              </div>","null",""
"","","","","","html-keyboard-response","97","300934","0.0-97.0","2E42C4FA95A843539EAACD36EFE41B17","902ecd79-fcee-4e5a-ad3d-0940da374663","61e1ec61-13c7-4a8f-bf47-a91ec9909364","","null","<div style=""display: flex; justify-content: center; align-items: center;"">
                <img src=""images/causal/causal_series_9/causal_series_9_c.jpg"" style=""width: 300px; height: 300px;"" />
              </div>","null",""
"","","","","","html-button-response","98","302659","0.0-98.0","2E42C4FA95A843539EAACD36EFE41B17","902ecd79-fcee-4e5a-ad3d-0940da374663","61e1ec61-13c7-4a8f-bf47-a91ec9909364","","1720","
    <div style=""display: flex; justify-content: center; align-items: center;"">
      <img src=""images/red_deck_2.png"" style=""width: 300px; height: 300px; margin-right: 10px;"" />
      <img src=""images/blue_deck_1.png"" style=""width: 300px; height: 300px;"" />
    </div>","0","0"
"","","","","","html-keyboard-response","99","305678","0.0-99.0-0.0-0.0","2E42C4FA95A843539EAACD36EFE41B17","902ecd79-fcee-4e5a-ad3d-0940da374663","61e1ec61-13c7-4a8f-bf47-a91ec9909364","","null","<div style=""display: flex; justify-content: center; align-items: center;"">
                <img src=""images/causal/causal_series_9/causal_series_9_d.jpg"" style=""width: 300px; height: 300px;"" />
              </div>","null",""
"","","","","","html-keyboard-response","100","308691","0.0-100.0","2E42C4FA95A843539EAACD36EFE41B17","902ecd79-fcee-4e5a-ad3d-0940da374663","61e1ec61-13c7-4a8f-bf47-a91ec9909364","","null","<div style=""display: flex; justify-content: center; align-items: center;"">
                <img src=""images/other/blank.jpg"" style=""width: 300px; height: 300px;"" />
              </div>","null",""
"","","","","","html-keyboard-response","101","311696","0.0-101.0","2E42C4FA95A843539EAACD36EFE41B17","902ecd79-fcee-4e5a-ad3d-0940da374663","61e1ec61-13c7-4a8f-bf47-a91ec9909364","","null","<div style=""display: flex; justify-content: center; align-items: center;"">
                <img src=""images/causal/causal_series_2/causal_series_2_a.jpg"" style=""width: 300px; height: 300px;"" />
              </div>","null",""
"","","","","","html-keyboard-response","102","314710","0.0-102.0","2E42C4FA95A843539EAACD36EFE41B17","902ecd79-fcee-4e5a-ad3d-0940da374663","61e1ec61-13c7-4a8f-bf47-a91ec9909364","","null","<div style=""display: flex; justify-content: center; align-items: center;"">
                <img src=""images/causal/causal_series_2/causal_series_2_b.jpg"" style=""width: 300px; height: 300px;"" />
              </div>","null",""
"","","","","","html-keyboard-response","103","317717","0.0-103.0","2E42C4FA95A843539EAACD36EFE41B17","902ecd79-fcee-4e5a-ad3d-0940da374663","61e1ec61-13c7-4a8f-bf47-a91ec9909364","","null","<div style=""display: flex; justify-content: center; align-items: center;"">
                <img src=""images/causal/causal_series_2/causal_series_2_c.jpg"" style=""width: 300px; height: 300px;"" />
              </div>","null",""
"","","","","","html-button-response","104","318605","0.0-104.0","2E42C4FA95A843539EAACD36EFE41B17","902ecd79-fcee-4e5a-ad3d-0940da374663","61e1ec61-13c7-4a8f-bf47-a91ec9909364","","883","
    <div style=""display: flex; justify-content: center; align-items: center;"">
      <img src=""images/red_deck_2.png"" style=""width: 300px; height: 300px; margin-right: 10px;"" />
      <img src=""images/blue_deck_1.png"" style=""width: 300px; height: 300px;"" />
    </div>","1","1"
"","","","","","html-keyboard-response","105","321613","0.0-105.0-1.0-0.0","2E42C4FA95A843539EAACD36EFE41B17","902ecd79-fcee-4e5a-ad3d-0940da374663","61e1ec61-13c7-4a8f-bf47-a91ec9909364","","null","<div style=""display: flex; justify-content: center; align-items: center;"">
                <img src=""images/semantic/semantic_series_1/semantic_series_1_d.jpg"" style=""width: 300px; height: 300px;"" />
              </div>","null",""
"","","","","","html-keyboard-response","106","324621","0.0-106.0","2E42C4FA95A843539EAACD36EFE41B17","902ecd79-fcee-4e5a-ad3d-0940da374663","61e1ec61-13c7-4a8f-bf47-a91ec9909364","","null","<div style=""display: flex; justify-content: center; align-items: center;"">
                <img src=""images/other/blank.jpg"" style=""width: 300px; height: 300px;"" />
              </div>","null",""
"","","","","","html-keyboard-response","107","327627","0.0-107.0","2E42C4FA95A843539EAACD36EFE41B17","902ecd79-fcee-4e5a-ad3d-0940da374663","61e1ec61-13c7-4a8f-bf47-a91ec9909364","","null","<div style=""display: flex; justify-content: center; align-items: center;"">
                <img src=""images/causal/causal_series_18/causal_series_18_a.jpg"" style=""width: 300px; height: 300px;"" />
              </div>","null",""
"","","","","","html-keyboard-response","108","330644","0.0-108.0","2E42C4FA95A843539EAACD36EFE41B17","902ecd79-fcee-4e5a-ad3d-0940da374663","61e1ec61-13c7-4a8f-bf47-a91ec9909364","","null","<div style=""display: flex; justify-content: center; align-items: center;"">
                <img src=""images/causal/causal_series_18/causal_series_18_b.jpg"" style=""width: 300px; height: 300px;"" />
              </div>","null",""
"","","","","","html-keyboard-response","109","333650","0.0-109.0","2E42C4FA95A843539EAACD36EFE41B17","902ecd79-fcee-4e5a-ad3d-0940da374663","61e1ec61-13c7-4a8f-bf47-a91ec9909364","","null","<div style=""display: flex; justify-content: center; align-items: center;"">
                <img src=""images/causal/causal_series_18/causal_series_18_c.jpg"" style=""width: 300px; height: 300px;"" />
              </div>","null",""
"","","","","","html-button-response","110","335017","0.0-110.0","2E42C4FA95A843539EAACD36EFE41B17","902ecd79-fcee-4e5a-ad3d-0940da374663","61e1ec61-13c7-4a8f-bf47-a91ec9909364","","1363","
    <div style=""display: flex; justify-content: center; align-items: center;"">
      <img src=""images/red_deck_2.png"" style=""width: 300px; height: 300px; margin-right: 10px;"" />
      <img src=""images/blue_deck_1.png"" style=""width: 300px; height: 300px;"" />
    </div>","1","1"
"","","","","","html-keyboard-response","111","338037","0.0-111.0-1.0-0.0","2E42C4FA95A843539EAACD36EFE41B17","902ecd79-fcee-4e5a-ad3d-0940da374663","61e1ec61-13c7-4a8f-bf47-a91ec9909364","","null","<div style=""display: flex; justify-content: center; align-items: center;"">
                <img src=""images/semantic/semantic_series_17/semantic_series_17_d.jpg"" style=""width: 300px; height: 300px;"" />
              </div>","null",""
"","","","","","html-keyboard-response","112","341047","0.0-112.0","2E42C4FA95A843539EAACD36EFE41B17","902ecd79-fcee-4e5a-ad3d-0940da374663","61e1ec61-13c7-4a8f-bf47-a91ec9909364","","null","<div style=""display: flex; justify-content: center; align-items: center;"">
                <img src=""images/other/blank.jpg"" style=""width: 300px; height: 300px;"" />
              </div>","null",""
"","","","","","survey-text","113","373377","0.0-113.0","2E42C4FA95A843539EAACD36EFE41B17","902ecd79-fcee-4e5a-ad3d-0940da374663","61e1ec61-13c7-4a8f-bf47-a91ec9909364","","32311","","{""Q0"":""Realistic Ai vs Drawings""}",""
"","","","","","survey-text","114","397902","0.0-114.0","2E42C4FA95A843539EAACD36EFE41B17","902ecd79-fcee-4e5a-ad3d-0940da374663","61e1ec61-13c7-4a8f-bf47-a91ec9909364","","24517","","{""Q0"":""Both seemed of equal interest""}",""
"","","","","","html-button-response","115","404497","0.0-115.0","2E42C4FA95A843539EAACD36EFE41B17","902ecd79-fcee-4e5a-ad3d-0940da374663","61e1ec61-13c7-4a8f-bf47-a91ec9909364","","6591","Which color deck does the fourth image continue the story from the series?","1",""
"","","","","","html-button-response","116","406908","0.0-116.0","2E42C4FA95A843539EAACD36EFE41B17","902ecd79-fcee-4e5a-ad3d-0940da374663","61e1ec61-13c7-4a8f-bf47-a91ec9909364","","2406","Which color deck does the fourth image not follow the story from the series?","0",""
"","","","","","survey-text","117","418781","0.0-117.0","2E42C4FA95A843539EAACD36EFE41B17","902ecd79-fcee-4e5a-ad3d-0940da374663","61e1ec61-13c7-4a8f-bf47-a91ec9909364","","11826","","{""Q0"":""Female"",""Q1"":""20""}",""
"","","","","","instructions","118","425624","0.0-118.0","2E42C4FA95A843539EAACD36EFE41B17","902ecd79-fcee-4e5a-ad3d-0940da374663","61e1ec61-13c7-4a8f-bf47-a91ec9909364","[{""page_index"":0,""viewing_time"":6835}]","6839","","",""
