"success","timeout","failed_images","failed_audio","failed_video","trial_type","trial_index","time_elapsed","internal_node_id","subject_id","study_id","session_id","view_history","rt","stimulus","response","series","repetition","phase","choice","question_order"
"true","false","[]","[]","[]","preload","0","157","0.0-0.0","A65AFD53EC9A433CB7C98B2422436A03","0199d692-1de4-74af-b422-bec87be521e3","0199d675-8795-765b-adc2-c813de8cd3d1","","","","","","","","",""
"","","","","","instructions","1","9172","0.0-1.0","A65AFD53EC9A433CB7C98B2422436A03","0199d692-1de4-74af-b422-bec87be521e3","0199d675-8795-765b-adc2-c813de8cd3d1","[{""page_index"":0,""viewing_time"":9015}]","9015","","","","","","",""
"","","","","","instructions","2","16939","0.0-2.0","A65AFD53EC9A433CB7C98B2422436A03","0199d692-1de4-74af-b422-bec87be521e3","0199d675-8795-765b-adc2-c813de8cd3d1","[{""page_index"":0,""viewing_time"":7766}]","7766","","","","","","",""
"true","","","","","fullscreen","3","24741","0.0-3.0","A65AFD53EC9A433CB7C98B2422436A03","0199d692-1de4-74af-b422-bec87be521e3","0199d675-8795-765b-adc2-c813de8cd3d1","","6799","","","","","","",""
"","","","","","instructions","4","47906","0.0-4.0","A65AFD53EC9A433CB7C98B2422436A03","0199d692-1de4-74af-b422-bec87be521e3","0199d675-8795-765b-adc2-c813de8cd3d1","[{""page_index"":0,""viewing_time"":23165}]","23165","","","","","","",""
"","","","","","html-keyboard-response","5","53909","0.0-5.0","A65AFD53EC9A433CB7C98B2422436A03","0199d692-1de4-74af-b422-bec87be521e3","0199d675-8795-765b-adc2-c813de8cd3d1","","null","<div style=""display: flex; justify-content: center; align-items: center;"">
                     <img src=""images/causal/causal_series_7/causal_series_7_a.png"" style=""width: 300px; height: 300px;"" />
                   </div>","null","7","2","A","",""
"","","","","","html-button-response","6","62445","0.0-6.0","A65AFD53EC9A433CB7C98B2422436A03","0199d692-1de4-74af-b422-bec87be521e3","0199d675-8795-765b-adc2-c813de8cd3d1","","8535","
        <div style=""display: flex; justify-content: center; align-items: center;"">
          <img src=""images/red_deck_2.png"" style=""width: 300px; height: 300px; margin-right: 10px;"" />
          <img src=""images/blue_deck_1.png"" style=""width: 300px; height: 300px;"" />
        </div>","0","7","2","choice","0",""
"","","","","","html-keyboard-response","7","68448","0.0-7.0-0.0-0.0","A65AFD53EC9A433CB7C98B2422436A03","0199d692-1de4-74af-b422-bec87be521e3","0199d675-8795-765b-adc2-c813de8cd3d1","","null","<div style=""display: flex; justify-content: center; align-items: center;"">
                     <img src=""images/causal/causal_series_7/causal_series_7_b.png"" style=""width: 300px; height: 300px;"" />
                   </div>","null","7","2","B","",""
"","","","","","html-keyboard-response","8","74451","0.0-7.0-0.0-1.0","A65AFD53EC9A433CB7C98B2422436A03","0199d692-1de4-74af-b422-bec87be521e3","0199d675-8795-765b-adc2-c813de8cd3d1","","null","<div style=""display: flex; justify-content: center; align-items: center;"">
                     <img src=""images/causal/causal_series_7/causal_series_7_c.png"" style=""width: 300px; height: 300px;"" />
                   </div>","null","7","2","C","",""
"","","","","","html-keyboard-response","9","80453","0.0-7.0-0.0-2.0","A65AFD53EC9A433CB7C98B2422436A03","0199d692-1de4-74af-b422-bec87be521e3","0199d675-8795-765b-adc2-c813de8cd3d1","","null","<div style=""display: flex; justify-content: center; align-items: center;"">
                     <img src=""images/causal/causal_series_7/causal_series_7_d.png"" style=""width: 300px; height: 300px;"" />
                   </div>","null","7","2","D","",""
"","","","","","survey-likert","10","87875","0.0-8.0","A65AFD53EC9A433CB7C98B2422436A03","0199d692-1de4-74af-b422-bec87be521e3","0199d675-8795-765b-adc2-c813de8cd3d1","","7420","","{""Q0"":2}","7","2","surprise_rating","","[0]"
"","","","","","survey-likert","11","91023","0.0-9.0","A65AFD53EC9A433CB7C98B2422436A03","0199d692-1de4-74af-b422-bec87be521e3","0199d675-8795-765b-adc2-c813de8cd3d1","","3146","","{""Q0"":3}","7","2","enjoyment_rating","","[0]"
"","","","","","html-keyboard-response","12","97026","0.0-10.0","A65AFD53EC9A433CB7C98B2422436A03","0199d692-1de4-74af-b422-bec87be521e3","0199d675-8795-765b-adc2-c813de8cd3d1","","null","<div style=""display: flex; justify-content: center; align-items: center;"">
                     <img src=""images/other/blank.png"" style=""width: 300px; height: 300px;"" />
                   </div>","null","0","0","blank","",""
"","","","","","html-keyboard-response","13","103029","0.0-11.0","A65AFD53EC9A433CB7C98B2422436A03","0199d692-1de4-74af-b422-bec87be521e3","0199d675-8795-765b-adc2-c813de8cd3d1","","null","<div style=""display: flex; justify-content: center; align-items: center;"">
                     <img src=""images/causal/causal_series_10/causal_series_10_a.png"" style=""width: 300px; height: 300px;"" />
                   </div>","null","10","1","A","",""
"","","","","","html-button-response","14","106106","0.0-12.0","A65AFD53EC9A433CB7C98B2422436A03","0199d692-1de4-74af-b422-bec87be521e3","0199d675-8795-765b-adc2-c813de8cd3d1","","3075","
        <div style=""display: flex; justify-content: center; align-items: center;"">
          <img src=""images/red_deck_2.png"" style=""width: 300px; height: 300px; margin-right: 10px;"" />
          <img src=""images/blue_deck_1.png"" style=""width: 300px; height: 300px;"" />
        </div>","1","10","1","choice","1",""
"","","","","","html-keyboard-response","15","112108","0.0-13.0-1.0-0.0","A65AFD53EC9A433CB7C98B2422436A03","0199d692-1de4-74af-b422-bec87be521e3","0199d675-8795-765b-adc2-c813de8cd3d1","","null","<div style=""display: flex; justify-content: center; align-items: center;"">
                     <img src=""images/semantic/semantic_series_10/semantic_series_10_b.png"" style=""width: 300px; height: 300px;"" />
                   </div>","null","10","1","B","",""
"","","","","","html-keyboard-response","16","118110","0.0-13.0-1.0-1.0","A65AFD53EC9A433CB7C98B2422436A03","0199d692-1de4-74af-b422-bec87be521e3","0199d675-8795-765b-adc2-c813de8cd3d1","","null","<div style=""display: flex; justify-content: center; align-items: center;"">
                     <img src=""images/semantic/semantic_series_10/semantic_series_10_c.png"" style=""width: 300px; height: 300px;"" />
                   </div>","null","10","1","C","",""
"","","","","","html-keyboard-response","17","124113","0.0-13.0-1.0-2.0","A65AFD53EC9A433CB7C98B2422436A03","0199d692-1de4-74af-b422-bec87be521e3","0199d675-8795-765b-adc2-c813de8cd3d1","","null","<div style=""display: flex; justify-content: center; align-items: center;"">
                     <img src=""images/semantic/semantic_series_10/semantic_series_10_d.png"" style=""width: 300px; height: 300px;"" />
                   </div>","null","10","1","D","",""
"","","","","","survey-likert","18","128872","0.0-14.0","A65AFD53EC9A433CB7C98B2422436A03","0199d692-1de4-74af-b422-bec87be521e3","0199d675-8795-765b-adc2-c813de8cd3d1","","4758","","{""Q0"":3}","10","1","surprise_rating","","[0]"
"","","","","","survey-likert","19","131316","0.0-15.0","A65AFD53EC9A433CB7C98B2422436A03","0199d692-1de4-74af-b422-bec87be521e3","0199d675-8795-765b-adc2-c813de8cd3d1","","2442","","{""Q0"":3}","10","1","enjoyment_rating","","[0]"
"","","","","","html-keyboard-response","20","137318","0.0-16.0","A65AFD53EC9A433CB7C98B2422436A03","0199d692-1de4-74af-b422-bec87be521e3","0199d675-8795-765b-adc2-c813de8cd3d1","","null","<div style=""display: flex; justify-content: center; align-items: center;"">
                     <img src=""images/other/blank.png"" style=""width: 300px; height: 300px;"" />
                   </div>","null","0","0","blank","",""
"","","","","","html-keyboard-response","21","143321","0.0-17.0","A65AFD53EC9A433CB7C98B2422436A03","0199d692-1de4-74af-b422-bec87be521e3","0199d675-8795-765b-adc2-c813de8cd3d1","","null","<div style=""display: flex; justify-content: center; align-items: center;"">
                     <img src=""images/causal/causal_series_5/causal_series_5_a.png"" style=""width: 300px; height: 300px;"" />
                   </div>","null","5","2","A","",""
"","","","","","html-button-response","22","144589","0.0-18.0","A65AFD53EC9A433CB7C98B2422436A03","0199d692-1de4-74af-b422-bec87be521e3","0199d675-8795-765b-adc2-c813de8cd3d1","","1266","
        <div style=""display: flex; justify-content: center; align-items: center;"">
          <img src=""images/red_deck_2.png"" style=""width: 300px; height: 300px; margin-right: 10px;"" />
          <img src=""images/blue_deck_1.png"" style=""width: 300px; height: 300px;"" />
        </div>","0","5","2","choice","0",""
"","","","","","html-keyboard-response","23","150592","0.0-19.0-0.0-0.0","A65AFD53EC9A433CB7C98B2422436A03","0199d692-1de4-74af-b422-bec87be521e3","0199d675-8795-765b-adc2-c813de8cd3d1","","null","<div style=""display: flex; justify-content: center; align-items: center;"">
                     <img src=""images/causal/causal_series_5/causal_series_5_b.png"" style=""width: 300px; height: 300px;"" />
                   </div>","null","5","2","B","",""
"","","","","","html-keyboard-response","24","156594","0.0-19.0-0.0-1.0","A65AFD53EC9A433CB7C98B2422436A03","0199d692-1de4-74af-b422-bec87be521e3","0199d675-8795-765b-adc2-c813de8cd3d1","","null","<div style=""display: flex; justify-content: center; align-items: center;"">
                     <img src=""images/causal/causal_series_5/causal_series_5_c.png"" style=""width: 300px; height: 300px;"" />
                   </div>","null","5","2","C","",""
"","","","","","html-keyboard-response","25","162597","0.0-19.0-0.0-2.0","A65AFD53EC9A433CB7C98B2422436A03","0199d692-1de4-74af-b422-bec87be521e3","0199d675-8795-765b-adc2-c813de8cd3d1","","null","<div style=""display: flex; justify-content: center; align-items: center;"">
                     <img src=""images/causal/causal_series_5/causal_series_5_d.png"" style=""width: 300px; height: 300px;"" />
                   </div>","null","5","2","D","",""
"","","","","","survey-likert","26","166172","0.0-20.0","A65AFD53EC9A433CB7C98B2422436A03","0199d692-1de4-74af-b422-bec87be521e3","0199d675-8795-765b-adc2-c813de8cd3d1","","3574","","{""Q0"":2}","5","2","surprise_rating","","[0]"
"","","","","","survey-likert","27","169508","0.0-21.0","A65AFD53EC9A433CB7C98B2422436A03","0199d692-1de4-74af-b422-bec87be521e3","0199d675-8795-765b-adc2-c813de8cd3d1","","3334","","{""Q0"":3}","5","2","enjoyment_rating","","[0]"
"","","","","","html-keyboard-response","28","175511","0.0-22.0","A65AFD53EC9A433CB7C98B2422436A03","0199d692-1de4-74af-b422-bec87be521e3","0199d675-8795-765b-adc2-c813de8cd3d1","","null","<div style=""display: flex; justify-content: center; align-items: center;"">
                     <img src=""images/other/blank.png"" style=""width: 300px; height: 300px;"" />
                   </div>","null","0","0","blank","",""
"","","","","","html-keyboard-response","29","181513","0.0-23.0","A65AFD53EC9A433CB7C98B2422436A03","0199d692-1de4-74af-b422-bec87be521e3","0199d675-8795-765b-adc2-c813de8cd3d1","","null","<div style=""display: flex; justify-content: center; align-items: center;"">
                     <img src=""images/causal/causal_series_10/causal_series_10_a.png"" style=""width: 300px; height: 300px;"" />
                   </div>","null","10","2","A","",""
"","","","","","html-button-response","30","182721","0.0-24.0","A65AFD53EC9A433CB7C98B2422436A03","0199d692-1de4-74af-b422-bec87be521e3","0199d675-8795-765b-adc2-c813de8cd3d1","","1207","
        <div style=""display: flex; justify-content: center; align-items: center;"">
          <img src=""images/red_deck_2.png"" style=""width: 300px; height: 300px; margin-right: 10px;"" />
          <img src=""images/blue_deck_1.png"" style=""width: 300px; height: 300px;"" />
        </div>","0","10","2","choice","0",""
"","","","","","html-keyboard-response","31","188723","0.0-25.0-0.0-0.0","A65AFD53EC9A433CB7C98B2422436A03","0199d692-1de4-74af-b422-bec87be521e3","0199d675-8795-765b-adc2-c813de8cd3d1","","null","<div style=""display: flex; justify-content: center; align-items: center;"">
                     <img src=""images/causal/causal_series_10/causal_series_10_b.png"" style=""width: 300px; height: 300px;"" />
                   </div>","null","10","2","B","",""
"","","","","","html-keyboard-response","32","194725","0.0-25.0-0.0-1.0","A65AFD53EC9A433CB7C98B2422436A03","0199d692-1de4-74af-b422-bec87be521e3","0199d675-8795-765b-adc2-c813de8cd3d1","","null","<div style=""display: flex; justify-content: center; align-items: center;"">
                     <img src=""images/causal/causal_series_10/causal_series_10_c.png"" style=""width: 300px; height: 300px;"" />
                   </div>","null","10","2","C","",""
"","","","","","html-keyboard-response","33","200727","0.0-25.0-0.0-2.0","A65AFD53EC9A433CB7C98B2422436A03","0199d692-1de4-74af-b422-bec87be521e3","0199d675-8795-765b-adc2-c813de8cd3d1","","null","<div style=""display: flex; justify-content: center; align-items: center;"">
                     <img src=""images/causal/causal_series_10/causal_series_10_d.png"" style=""width: 300px; height: 300px;"" />
                   </div>","null","10","2","D","",""
"","","","","","survey-likert","34","205023","0.0-26.0","A65AFD53EC9A433CB7C98B2422436A03","0199d692-1de4-74af-b422-bec87be521e3","0199d675-8795-765b-adc2-c813de8cd3d1","","4295","","{""Q0"":3}","10","2","surprise_rating","","[0]"
"","","","","","survey-likert","35","207372","0.0-27.0","A65AFD53EC9A433CB7C98B2422436A03","0199d692-1de4-74af-b422-bec87be521e3","0199d675-8795-765b-adc2-c813de8cd3d1","","2347","","{""Q0"":4}","10","2","enjoyment_rating","","[0]"
"","","","","","html-keyboard-response","36","213375","0.0-28.0","A65AFD53EC9A433CB7C98B2422436A03","0199d692-1de4-74af-b422-bec87be521e3","0199d675-8795-765b-adc2-c813de8cd3d1","","null","<div style=""display: flex; justify-content: center; align-items: center;"">
                     <img src=""images/other/blank.png"" style=""width: 300px; height: 300px;"" />
                   </div>","null","0","0","blank","",""
"","","","","","html-keyboard-response","37","219377","0.0-29.0","A65AFD53EC9A433CB7C98B2422436A03","0199d692-1de4-74af-b422-bec87be521e3","0199d675-8795-765b-adc2-c813de8cd3d1","","null","<div style=""display: flex; justify-content: center; align-items: center;"">
                     <img src=""images/causal/causal_series_3/causal_series_3_a.png"" style=""width: 300px; height: 300px;"" />
                   </div>","null","3","2","A","",""
"","","","","","html-button-response","38","220872","0.0-30.0","A65AFD53EC9A433CB7C98B2422436A03","0199d692-1de4-74af-b422-bec87be521e3","0199d675-8795-765b-adc2-c813de8cd3d1","","1493","
        <div style=""display: flex; justify-content: center; align-items: center;"">
          <img src=""images/red_deck_2.png"" style=""width: 300px; height: 300px; margin-right: 10px;"" />
          <img src=""images/blue_deck_1.png"" style=""width: 300px; height: 300px;"" />
        </div>","1","3","2","choice","1",""
"","","","","","html-keyboard-response","39","226875","0.0-31.0-1.0-0.0","A65AFD53EC9A433CB7C98B2422436A03","0199d692-1de4-74af-b422-bec87be521e3","0199d675-8795-765b-adc2-c813de8cd3d1","","null","<div style=""display: flex; justify-content: center; align-items: center;"">
                     <img src=""images/semantic/semantic_series_3/semantic_series_3_b.png"" style=""width: 300px; height: 300px;"" />
                   </div>","null","3","2","B","",""
"","","","","","html-keyboard-response","40","232877","0.0-31.0-1.0-1.0","A65AFD53EC9A433CB7C98B2422436A03","0199d692-1de4-74af-b422-bec87be521e3","0199d675-8795-765b-adc2-c813de8cd3d1","","null","<div style=""display: flex; justify-content: center; align-items: center;"">
                     <img src=""images/semantic/semantic_series_3/semantic_series_3_c.png"" style=""width: 300px; height: 300px;"" />
                   </div>","null","3","2","C","",""
"","","","","","html-keyboard-response","41","238880","0.0-31.0-1.0-2.0","A65AFD53EC9A433CB7C98B2422436A03","0199d692-1de4-74af-b422-bec87be521e3","0199d675-8795-765b-adc2-c813de8cd3d1","","null","<div style=""display: flex; justify-content: center; align-items: center;"">
                     <img src=""images/semantic/semantic_series_3/semantic_series_3_d.png"" style=""width: 300px; height: 300px;"" />
                   </div>","null","3","2","D","",""
"","","","","","survey-likert","42","242055","0.0-32.0","A65AFD53EC9A433CB7C98B2422436A03","0199d692-1de4-74af-b422-bec87be521e3","0199d675-8795-765b-adc2-c813de8cd3d1","","3174","","{""Q0"":3}","3","2","surprise_rating","","[0]"
"","","","","","survey-likert","43","244407","0.0-33.0","A65AFD53EC9A433CB7C98B2422436A03","0199d692-1de4-74af-b422-bec87be521e3","0199d675-8795-765b-adc2-c813de8cd3d1","","2350","","{""Q0"":3}","3","2","enjoyment_rating","","[0]"
"","","","","","html-keyboard-response","44","250410","0.0-34.0","A65AFD53EC9A433CB7C98B2422436A03","0199d692-1de4-74af-b422-bec87be521e3","0199d675-8795-765b-adc2-c813de8cd3d1","","null","<div style=""display: flex; justify-content: center; align-items: center;"">
                     <img src=""images/other/blank.png"" style=""width: 300px; height: 300px;"" />
                   </div>","null","0","0","blank","",""
"","","","","","html-keyboard-response","45","256412","0.0-35.0","A65AFD53EC9A433CB7C98B2422436A03","0199d692-1de4-74af-b422-bec87be521e3","0199d675-8795-765b-adc2-c813de8cd3d1","","null","<div style=""display: flex; justify-content: center; align-items: center;"">
                     <img src=""images/causal/causal_series_6/causal_series_6_a.png"" style=""width: 300px; height: 300px;"" />
                   </div>","null","6","2","A","",""
"","","","","","html-button-response","46","258687","0.0-36.0","A65AFD53EC9A433CB7C98B2422436A03","0199d692-1de4-74af-b422-bec87be521e3","0199d675-8795-765b-adc2-c813de8cd3d1","","2274","
        <div style=""display: flex; justify-content: center; align-items: center;"">
          <img src=""images/red_deck_2.png"" style=""width: 300px; height: 300px; margin-right: 10px;"" />
          <img src=""images/blue_deck_1.png"" style=""width: 300px; height: 300px;"" />
        </div>","1","6","2","choice","1",""
"","","","","","html-keyboard-response","47","264689","0.0-37.0-1.0-0.0","A65AFD53EC9A433CB7C98B2422436A03","0199d692-1de4-74af-b422-bec87be521e3","0199d675-8795-765b-adc2-c813de8cd3d1","","null","<div style=""display: flex; justify-content: center; align-items: center;"">
                     <img src=""images/semantic/semantic_series_6/semantic_series_6_b.png"" style=""width: 300px; height: 300px;"" />
                   </div>","null","6","2","B","",""
"","","","","","html-keyboard-response","48","270691","0.0-37.0-1.0-1.0","A65AFD53EC9A433CB7C98B2422436A03","0199d692-1de4-74af-b422-bec87be521e3","0199d675-8795-765b-adc2-c813de8cd3d1","","null","<div style=""display: flex; justify-content: center; align-items: center;"">
                     <img src=""images/semantic/semantic_series_6/semantic_series_6_c.png"" style=""width: 300px; height: 300px;"" />
                   </div>","null","6","2","C","",""
"","","","","","html-keyboard-response","49","276692","0.0-37.0-1.0-2.0","A65AFD53EC9A433CB7C98B2422436A03","0199d692-1de4-74af-b422-bec87be521e3","0199d675-8795-765b-adc2-c813de8cd3d1","","null","<div style=""display: flex; justify-content: center; align-items: center;"">
                     <img src=""images/semantic/semantic_series_6/semantic_series_6_d.png"" style=""width: 300px; height: 300px;"" />
                   </div>","null","6","2","D","",""
"","","","","","survey-likert","50","280955","0.0-38.0","A65AFD53EC9A433CB7C98B2422436A03","0199d692-1de4-74af-b422-bec87be521e3","0199d675-8795-765b-adc2-c813de8cd3d1","","4262","","{""Q0"":2}","6","2","surprise_rating","","[0]"
"","","","","","survey-likert","51","285607","0.0-39.0","A65AFD53EC9A433CB7C98B2422436A03","0199d692-1de4-74af-b422-bec87be521e3","0199d675-8795-765b-adc2-c813de8cd3d1","","4651","","{""Q0"":3}","6","2","enjoyment_rating","","[0]"
"","","","","","html-keyboard-response","52","291610","0.0-40.0","A65AFD53EC9A433CB7C98B2422436A03","0199d692-1de4-74af-b422-bec87be521e3","0199d675-8795-765b-adc2-c813de8cd3d1","","null","<div style=""display: flex; justify-content: center; align-items: center;"">
                     <img src=""images/other/blank.png"" style=""width: 300px; height: 300px;"" />
                   </div>","null","0","0","blank","",""
"","","","","","html-keyboard-response","53","297613","0.0-41.0","A65AFD53EC9A433CB7C98B2422436A03","0199d692-1de4-74af-b422-bec87be521e3","0199d675-8795-765b-adc2-c813de8cd3d1","","null","<div style=""display: flex; justify-content: center; align-items: center;"">
                     <img src=""images/causal/causal_series_1/causal_series_1_a.png"" style=""width: 300px; height: 300px;"" />
                   </div>","null","1","2","A","",""
"","","","","","html-button-response","54","299774","0.0-42.0","A65AFD53EC9A433CB7C98B2422436A03","0199d692-1de4-74af-b422-bec87be521e3","0199d675-8795-765b-adc2-c813de8cd3d1","","2159","
        <div style=""display: flex; justify-content: center; align-items: center;"">
          <img src=""images/red_deck_2.png"" style=""width: 300px; height: 300px; margin-right: 10px;"" />
          <img src=""images/blue_deck_1.png"" style=""width: 300px; height: 300px;"" />
        </div>","0","1","2","choice","0",""
"","","","","","html-keyboard-response","55","305776","0.0-43.0-0.0-0.0","A65AFD53EC9A433CB7C98B2422436A03","0199d692-1de4-74af-b422-bec87be521e3","0199d675-8795-765b-adc2-c813de8cd3d1","","null","<div style=""display: flex; justify-content: center; align-items: center;"">
                     <img src=""images/causal/causal_series_1/causal_series_1_b.png"" style=""width: 300px; height: 300px;"" />
                   </div>","null","1","2","B","",""
"","","","","","html-keyboard-response","56","311778","0.0-43.0-0.0-1.0","A65AFD53EC9A433CB7C98B2422436A03","0199d692-1de4-74af-b422-bec87be521e3","0199d675-8795-765b-adc2-c813de8cd3d1","","null","<div style=""display: flex; justify-content: center; align-items: center;"">
                     <img src=""images/causal/causal_series_1/causal_series_1_c.png"" style=""width: 300px; height: 300px;"" />
                   </div>","null","1","2","C","",""
"","","","","","html-keyboard-response","57","317780","0.0-43.0-0.0-2.0","A65AFD53EC9A433CB7C98B2422436A03","0199d692-1de4-74af-b422-bec87be521e3","0199d675-8795-765b-adc2-c813de8cd3d1","","null","<div style=""display: flex; justify-content: center; align-items: center;"">
                     <img src=""images/causal/causal_series_1/causal_series_1_d.png"" style=""width: 300px; height: 300px;"" />
                   </div>","null","1","2","D","",""
"","","","","","survey-likert","58","322105","0.0-44.0","A65AFD53EC9A433CB7C98B2422436A03","0199d692-1de4-74af-b422-bec87be521e3","0199d675-8795-765b-adc2-c813de8cd3d1","","4323","","{""Q0"":3}","1","2","surprise_rating","","[0]"
"","","","","","survey-likert","59","324223","0.0-45.0","A65AFD53EC9A433CB7C98B2422436A03","0199d692-1de4-74af-b422-bec87be521e3","0199d675-8795-765b-adc2-c813de8cd3d1","","2117","","{""Q0"":3}","1","2","enjoyment_rating","","[0]"
"","","","","","html-keyboard-response","60","330226","0.0-46.0","A65AFD53EC9A433CB7C98B2422436A03","0199d692-1de4-74af-b422-bec87be521e3","0199d675-8795-765b-adc2-c813de8cd3d1","","null","<div style=""display: flex; justify-content: center; align-items: center;"">
                     <img src=""images/other/blank.png"" style=""width: 300px; height: 300px;"" />
                   </div>","null","0","0","blank","",""
"","","","","","html-keyboard-response","61","336227","0.0-47.0","A65AFD53EC9A433CB7C98B2422436A03","0199d692-1de4-74af-b422-bec87be521e3","0199d675-8795-765b-adc2-c813de8cd3d1","","null","<div style=""display: flex; justify-content: center; align-items: center;"">
                     <img src=""images/causal/causal_series_2/causal_series_2_a.png"" style=""width: 300px; height: 300px;"" />
                   </div>","null","2","2","A","",""
"","","","","","html-button-response","62","337640","0.0-48.0","A65AFD53EC9A433CB7C98B2422436A03","0199d692-1de4-74af-b422-bec87be521e3","0199d675-8795-765b-adc2-c813de8cd3d1","","1410","
        <div style=""display: flex; justify-content: center; align-items: center;"">
          <img src=""images/red_deck_2.png"" style=""width: 300px; height: 300px; margin-right: 10px;"" />
          <img src=""images/blue_deck_1.png"" style=""width: 300px; height: 300px;"" />
        </div>","0","2","2","choice","0",""
"","","","","","html-keyboard-response","63","343641","0.0-49.0-0.0-0.0","A65AFD53EC9A433CB7C98B2422436A03","0199d692-1de4-74af-b422-bec87be521e3","0199d675-8795-765b-adc2-c813de8cd3d1","","null","<div style=""display: flex; justify-content: center; align-items: center;"">
                     <img src=""images/causal/causal_series_2/causal_series_2_b.png"" style=""width: 300px; height: 300px;"" />
                   </div>","null","2","2","B","",""
"","","","","","html-keyboard-response","64","349643","0.0-49.0-0.0-1.0","A65AFD53EC9A433CB7C98B2422436A03","0199d692-1de4-74af-b422-bec87be521e3","0199d675-8795-765b-adc2-c813de8cd3d1","","null","<div style=""display: flex; justify-content: center; align-items: center;"">
                     <img src=""images/causal/causal_series_2/causal_series_2_c.png"" style=""width: 300px; height: 300px;"" />
                   </div>","null","2","2","C","",""
"","","","","","html-keyboard-response","65","355645","0.0-49.0-0.0-2.0","A65AFD53EC9A433CB7C98B2422436A03","0199d692-1de4-74af-b422-bec87be521e3","0199d675-8795-765b-adc2-c813de8cd3d1","","null","<div style=""display: flex; justify-content: center; align-items: center;"">
                     <img src=""images/causal/causal_series_2/causal_series_2_d.png"" style=""width: 300px; height: 300px;"" />
                   </div>","null","2","2","D","",""
"","","","","","survey-likert","66","358307","0.0-50.0","A65AFD53EC9A433CB7C98B2422436A03","0199d692-1de4-74af-b422-bec87be521e3","0199d675-8795-765b-adc2-c813de8cd3d1","","2661","","{""Q0"":3}","2","2","surprise_rating","","[0]"
"","","","","","survey-likert","67","361073","0.0-51.0","A65AFD53EC9A433CB7C98B2422436A03","0199d692-1de4-74af-b422-bec87be521e3","0199d675-8795-765b-adc2-c813de8cd3d1","","2764","","{""Q0"":4}","2","2","enjoyment_rating","","[0]"
"","","","","","html-keyboard-response","68","367076","0.0-52.0","A65AFD53EC9A433CB7C98B2422436A03","0199d692-1de4-74af-b422-bec87be521e3","0199d675-8795-765b-adc2-c813de8cd3d1","","null","<div style=""display: flex; justify-content: center; align-items: center;"">
                     <img src=""images/other/blank.png"" style=""width: 300px; height: 300px;"" />
                   </div>","null","0","0","blank","",""
"","","","","","html-keyboard-response","69","373078","0.0-53.0","A65AFD53EC9A433CB7C98B2422436A03","0199d692-1de4-74af-b422-bec87be521e3","0199d675-8795-765b-adc2-c813de8cd3d1","","null","<div style=""display: flex; justify-content: center; align-items: center;"">
                     <img src=""images/causal/causal_series_4/causal_series_4_a.png"" style=""width: 300px; height: 300px;"" />
                   </div>","null","4","1","A","",""
"","","","","","html-button-response","70","375872","0.0-54.0","A65AFD53EC9A433CB7C98B2422436A03","0199d692-1de4-74af-b422-bec87be521e3","0199d675-8795-765b-adc2-c813de8cd3d1","","2792","
        <div style=""display: flex; justify-content: center; align-items: center;"">
          <img src=""images/red_deck_2.png"" style=""width: 300px; height: 300px; margin-right: 10px;"" />
          <img src=""images/blue_deck_1.png"" style=""width: 300px; height: 300px;"" />
        </div>","1","4","1","choice","1",""
"","","","","","html-keyboard-response","71","381875","0.0-55.0-1.0-0.0","A65AFD53EC9A433CB7C98B2422436A03","0199d692-1de4-74af-b422-bec87be521e3","0199d675-8795-765b-adc2-c813de8cd3d1","","null","<div style=""display: flex; justify-content: center; align-items: center;"">
                     <img src=""images/semantic/semantic_series_4/semantic_series_4_b.png"" style=""width: 300px; height: 300px;"" />
                   </div>","null","4","1","B","",""
"","","","","","html-keyboard-response","72","387877","0.0-55.0-1.0-1.0","A65AFD53EC9A433CB7C98B2422436A03","0199d692-1de4-74af-b422-bec87be521e3","0199d675-8795-765b-adc2-c813de8cd3d1","","null","<div style=""display: flex; justify-content: center; align-items: center;"">
                     <img src=""images/semantic/semantic_series_4/semantic_series_4_c.png"" style=""width: 300px; height: 300px;"" />
                   </div>","null","4","1","C","",""
"","","","","","html-keyboard-response","73","393880","0.0-55.0-1.0-2.0","A65AFD53EC9A433CB7C98B2422436A03","0199d692-1de4-74af-b422-bec87be521e3","0199d675-8795-765b-adc2-c813de8cd3d1","","null","<div style=""display: flex; justify-content: center; align-items: center;"">
                     <img src=""images/semantic/semantic_series_4/semantic_series_4_d.png"" style=""width: 300px; height: 300px;"" />
                   </div>","null","4","1","D","",""
"","","","","","survey-likert","74","396540","0.0-56.0","A65AFD53EC9A433CB7C98B2422436A03","0199d692-1de4-74af-b422-bec87be521e3","0199d675-8795-765b-adc2-c813de8cd3d1","","2658","","{""Q0"":3}","4","1","surprise_rating","","[0]"
"","","","","","survey-likert","75","398489","0.0-57.0","A65AFD53EC9A433CB7C98B2422436A03","0199d692-1de4-74af-b422-bec87be521e3","0199d675-8795-765b-adc2-c813de8cd3d1","","1948","","{""Q0"":4}","4","1","enjoyment_rating","","[0]"
"","","","","","html-keyboard-response","76","404491","0.0-58.0","A65AFD53EC9A433CB7C98B2422436A03","0199d692-1de4-74af-b422-bec87be521e3","0199d675-8795-765b-adc2-c813de8cd3d1","","null","<div style=""display: flex; justify-content: center; align-items: center;"">
                     <img src=""images/other/blank.png"" style=""width: 300px; height: 300px;"" />
                   </div>","null","0","0","blank","",""
"","","","","","html-keyboard-response","77","410494","0.0-59.0","A65AFD53EC9A433CB7C98B2422436A03","0199d692-1de4-74af-b422-bec87be521e3","0199d675-8795-765b-adc2-c813de8cd3d1","","null","<div style=""display: flex; justify-content: center; align-items: center;"">
                     <img src=""images/causal/causal_series_1/causal_series_1_a.png"" style=""width: 300px; height: 300px;"" />
                   </div>","null","1","1","A","",""
"","","","","","html-button-response","78","412472","0.0-60.0","A65AFD53EC9A433CB7C98B2422436A03","0199d692-1de4-74af-b422-bec87be521e3","0199d675-8795-765b-adc2-c813de8cd3d1","","1976","
        <div style=""display: flex; justify-content: center; align-items: center;"">
          <img src=""images/red_deck_2.png"" style=""width: 300px; height: 300px; margin-right: 10px;"" />
          <img src=""images/blue_deck_1.png"" style=""width: 300px; height: 300px;"" />
        </div>","0","1","1","choice","0",""
"","","","","","html-keyboard-response","79","418474","0.0-61.0-0.0-0.0","A65AFD53EC9A433CB7C98B2422436A03","0199d692-1de4-74af-b422-bec87be521e3","0199d675-8795-765b-adc2-c813de8cd3d1","","null","<div style=""display: flex; justify-content: center; align-items: center;"">
                     <img src=""images/causal/causal_series_1/causal_series_1_b.png"" style=""width: 300px; height: 300px;"" />
                   </div>","null","1","1","B","",""
"","","","","","html-keyboard-response","80","424477","0.0-61.0-0.0-1.0","A65AFD53EC9A433CB7C98B2422436A03","0199d692-1de4-74af-b422-bec87be521e3","0199d675-8795-765b-adc2-c813de8cd3d1","","null","<div style=""display: flex; justify-content: center; align-items: center;"">
                     <img src=""images/causal/causal_series_1/causal_series_1_c.png"" style=""width: 300px; height: 300px;"" />
                   </div>","null","1","1","C","",""
"","","","","","html-keyboard-response","81","430480","0.0-61.0-0.0-2.0","A65AFD53EC9A433CB7C98B2422436A03","0199d692-1de4-74af-b422-bec87be521e3","0199d675-8795-765b-adc2-c813de8cd3d1","","null","<div style=""display: flex; justify-content: center; align-items: center;"">
                     <img src=""images/causal/causal_series_1/causal_series_1_d.png"" style=""width: 300px; height: 300px;"" />
                   </div>","null","1","1","D","",""
"","","","","","survey-likert","82","432456","0.0-62.0","A65AFD53EC9A433CB7C98B2422436A03","0199d692-1de4-74af-b422-bec87be521e3","0199d675-8795-765b-adc2-c813de8cd3d1","","1975","","{""Q0"":3}","1","1","surprise_rating","","[0]"
"","","","","","survey-likert","83","434440","0.0-63.0","A65AFD53EC9A433CB7C98B2422436A03","0199d692-1de4-74af-b422-bec87be521e3","0199d675-8795-765b-adc2-c813de8cd3d1","","1982","","{""Q0"":3}","1","1","enjoyment_rating","","[0]"
"","","","","","html-keyboard-response","84","440443","0.0-64.0","A65AFD53EC9A433CB7C98B2422436A03","0199d692-1de4-74af-b422-bec87be521e3","0199d675-8795-765b-adc2-c813de8cd3d1","","null","<div style=""display: flex; justify-content: center; align-items: center;"">
                     <img src=""images/other/blank.png"" style=""width: 300px; height: 300px;"" />
                   </div>","null","0","0","blank","",""
"","","","","","html-keyboard-response","85","446445","0.0-65.0","A65AFD53EC9A433CB7C98B2422436A03","0199d692-1de4-74af-b422-bec87be521e3","0199d675-8795-765b-adc2-c813de8cd3d1","","null","<div style=""display: flex; justify-content: center; align-items: center;"">
                     <img src=""images/causal/causal_series_6/causal_series_6_a.png"" style=""width: 300px; height: 300px;"" />
                   </div>","null","6","1","A","",""
"","","","","","html-button-response","86","447505","0.0-66.0","A65AFD53EC9A433CB7C98B2422436A03","0199d692-1de4-74af-b422-bec87be521e3","0199d675-8795-765b-adc2-c813de8cd3d1","","1059","
        <div style=""display: flex; justify-content: center; align-items: center;"">
          <img src=""images/red_deck_2.png"" style=""width: 300px; height: 300px; margin-right: 10px;"" />
          <img src=""images/blue_deck_1.png"" style=""width: 300px; height: 300px;"" />
        </div>","0","6","1","choice","0",""
"","","","","","html-keyboard-response","87","453507","0.0-67.0-0.0-0.0","A65AFD53EC9A433CB7C98B2422436A03","0199d692-1de4-74af-b422-bec87be521e3","0199d675-8795-765b-adc2-c813de8cd3d1","","null","<div style=""display: flex; justify-content: center; align-items: center;"">
                     <img src=""images/causal/causal_series_6/causal_series_6_b.png"" style=""width: 300px; height: 300px;"" />
                   </div>","null","6","1","B","",""
"","","","","","html-keyboard-response","88","459509","0.0-67.0-0.0-1.0","A65AFD53EC9A433CB7C98B2422436A03","0199d692-1de4-74af-b422-bec87be521e3","0199d675-8795-765b-adc2-c813de8cd3d1","","null","<div style=""display: flex; justify-content: center; align-items: center;"">
                     <img src=""images/causal/causal_series_6/causal_series_6_c.png"" style=""width: 300px; height: 300px;"" />
                   </div>","null","6","1","C","",""
"","","","","","html-keyboard-response","89","465512","0.0-67.0-0.0-2.0","A65AFD53EC9A433CB7C98B2422436A03","0199d692-1de4-74af-b422-bec87be521e3","0199d675-8795-765b-adc2-c813de8cd3d1","","null","<div style=""display: flex; justify-content: center; align-items: center;"">
                     <img src=""images/causal/causal_series_6/causal_series_6_d.png"" style=""width: 300px; height: 300px;"" />
                   </div>","null","6","1","D","",""
"","","","","","survey-likert","90","468372","0.0-68.0","A65AFD53EC9A433CB7C98B2422436A03","0199d692-1de4-74af-b422-bec87be521e3","0199d675-8795-765b-adc2-c813de8cd3d1","","2859","","{""Q0"":3}","6","1","surprise_rating","","[0]"
"","","","","","survey-likert","91","470306","0.0-69.0","A65AFD53EC9A433CB7C98B2422436A03","0199d692-1de4-74af-b422-bec87be521e3","0199d675-8795-765b-adc2-c813de8cd3d1","","1932","","{""Q0"":4}","6","1","enjoyment_rating","","[0]"
"","","","","","html-keyboard-response","92","476309","0.0-70.0","A65AFD53EC9A433CB7C98B2422436A03","0199d692-1de4-74af-b422-bec87be521e3","0199d675-8795-765b-adc2-c813de8cd3d1","","null","<div style=""display: flex; justify-content: center; align-items: center;"">
                     <img src=""images/other/blank.png"" style=""width: 300px; height: 300px;"" />
                   </div>","null","0","0","blank","",""
"","","","","","html-keyboard-response","93","482312","0.0-71.0","A65AFD53EC9A433CB7C98B2422436A03","0199d692-1de4-74af-b422-bec87be521e3","0199d675-8795-765b-adc2-c813de8cd3d1","","null","<div style=""display: flex; justify-content: center; align-items: center;"">
                     <img src=""images/causal/causal_series_7/causal_series_7_a.png"" style=""width: 300px; height: 300px;"" />
                   </div>","null","7","1","A","",""
"","","","","","html-button-response","94","483447","0.0-72.0","A65AFD53EC9A433CB7C98B2422436A03","0199d692-1de4-74af-b422-bec87be521e3","0199d675-8795-765b-adc2-c813de8cd3d1","","1133","
        <div style=""display: flex; justify-content: center; align-items: center;"">
          <img src=""images/red_deck_2.png"" style=""width: 300px; height: 300px; margin-right: 10px;"" />
          <img src=""images/blue_deck_1.png"" style=""width: 300px; height: 300px;"" />
        </div>","1","7","1","choice","1",""
"","","","","","html-keyboard-response","95","489448","0.0-73.0-1.0-0.0","A65AFD53EC9A433CB7C98B2422436A03","0199d692-1de4-74af-b422-bec87be521e3","0199d675-8795-765b-adc2-c813de8cd3d1","","null","<div style=""display: flex; justify-content: center; align-items: center;"">
                     <img src=""images/semantic/semantic_series_7/semantic_series_7_b.png"" style=""width: 300px; height: 300px;"" />
                   </div>","null","7","1","B","",""
"","","","","","html-keyboard-response","96","495451","0.0-73.0-1.0-1.0","A65AFD53EC9A433CB7C98B2422436A03","0199d692-1de4-74af-b422-bec87be521e3","0199d675-8795-765b-adc2-c813de8cd3d1","","null","<div style=""display: flex; justify-content: center; align-items: center;"">
                     <img src=""images/semantic/semantic_series_7/semantic_series_7_c.png"" style=""width: 300px; height: 300px;"" />
                   </div>","null","7","1","C","",""
"","","","","","html-keyboard-response","97","501453","0.0-73.0-1.0-2.0","A65AFD53EC9A433CB7C98B2422436A03","0199d692-1de4-74af-b422-bec87be521e3","0199d675-8795-765b-adc2-c813de8cd3d1","","null","<div style=""display: flex; justify-content: center; align-items: center;"">
                     <img src=""images/semantic/semantic_series_7/semantic_series_7_d.png"" style=""width: 300px; height: 300px;"" />
                   </div>","null","7","1","D","",""
"","","","","","survey-likert","98","507688","0.0-74.0","A65AFD53EC9A433CB7C98B2422436A03","0199d692-1de4-74af-b422-bec87be521e3","0199d675-8795-765b-adc2-c813de8cd3d1","","6234","","{""Q0"":3}","7","1","surprise_rating","","[0]"
"","","","","","survey-likert","99","510179","0.0-75.0","A65AFD53EC9A433CB7C98B2422436A03","0199d692-1de4-74af-b422-bec87be521e3","0199d675-8795-765b-adc2-c813de8cd3d1","","2490","","{""Q0"":2}","7","1","enjoyment_rating","","[0]"
"","","","","","html-keyboard-response","100","516181","0.0-76.0","A65AFD53EC9A433CB7C98B2422436A03","0199d692-1de4-74af-b422-bec87be521e3","0199d675-8795-765b-adc2-c813de8cd3d1","","null","<div style=""display: flex; justify-content: center; align-items: center;"">
                     <img src=""images/other/blank.png"" style=""width: 300px; height: 300px;"" />
                   </div>","null","0","0","blank","",""
"","","","","","html-keyboard-response","101","522183","0.0-77.0","A65AFD53EC9A433CB7C98B2422436A03","0199d692-1de4-74af-b422-bec87be521e3","0199d675-8795-765b-adc2-c813de8cd3d1","","null","<div style=""display: flex; justify-content: center; align-items: center;"">
                     <img src=""images/causal/causal_series_4/causal_series_4_a.png"" style=""width: 300px; height: 300px;"" />
                   </div>","null","4","2","A","",""
"","","","","","html-button-response","102","523488","0.0-78.0","A65AFD53EC9A433CB7C98B2422436A03","0199d692-1de4-74af-b422-bec87be521e3","0199d675-8795-765b-adc2-c813de8cd3d1","","1303","
        <div style=""display: flex; justify-content: center; align-items: center;"">
          <img src=""images/red_deck_2.png"" style=""width: 300px; height: 300px; margin-right: 10px;"" />
          <img src=""images/blue_deck_1.png"" style=""width: 300px; height: 300px;"" />
        </div>","0","4","2","choice","0",""
"","","","","","html-keyboard-response","103","529490","0.0-79.0-0.0-0.0","A65AFD53EC9A433CB7C98B2422436A03","0199d692-1de4-74af-b422-bec87be521e3","0199d675-8795-765b-adc2-c813de8cd3d1","","null","<div style=""display: flex; justify-content: center; align-items: center;"">
                     <img src=""images/causal/causal_series_4/causal_series_4_b.png"" style=""width: 300px; height: 300px;"" />
                   </div>","null","4","2","B","",""
"","","","","","html-keyboard-response","104","535493","0.0-79.0-0.0-1.0","A65AFD53EC9A433CB7C98B2422436A03","0199d692-1de4-74af-b422-bec87be521e3","0199d675-8795-765b-adc2-c813de8cd3d1","","null","<div style=""display: flex; justify-content: center; align-items: center;"">
                     <img src=""images/causal/causal_series_4/causal_series_4_c.png"" style=""width: 300px; height: 300px;"" />
                   </div>","null","4","2","C","",""
"","","","","","html-keyboard-response","105","541495","0.0-79.0-0.0-2.0","A65AFD53EC9A433CB7C98B2422436A03","0199d692-1de4-74af-b422-bec87be521e3","0199d675-8795-765b-adc2-c813de8cd3d1","","null","<div style=""display: flex; justify-content: center; align-items: center;"">
                     <img src=""images/causal/causal_series_4/causal_series_4_d.png"" style=""width: 300px; height: 300px;"" />
                   </div>","null","4","2","D","",""
"","","","","","survey-likert","106","544823","0.0-80.0","A65AFD53EC9A433CB7C98B2422436A03","0199d692-1de4-74af-b422-bec87be521e3","0199d675-8795-765b-adc2-c813de8cd3d1","","3326","","{""Q0"":4}","4","2","surprise_rating","","[0]"
"","","","","","survey-likert","107","546339","0.0-81.0","A65AFD53EC9A433CB7C98B2422436A03","0199d692-1de4-74af-b422-bec87be521e3","0199d675-8795-765b-adc2-c813de8cd3d1","","1514","","{""Q0"":4}","4","2","enjoyment_rating","","[0]"
"","","","","","html-keyboard-response","108","552342","0.0-82.0","A65AFD53EC9A433CB7C98B2422436A03","0199d692-1de4-74af-b422-bec87be521e3","0199d675-8795-765b-adc2-c813de8cd3d1","","null","<div style=""display: flex; justify-content: center; align-items: center;"">
                     <img src=""images/other/blank.png"" style=""width: 300px; height: 300px;"" />
                   </div>","null","0","0","blank","",""
"","","","","","html-keyboard-response","109","558344","0.0-83.0","A65AFD53EC9A433CB7C98B2422436A03","0199d692-1de4-74af-b422-bec87be521e3","0199d675-8795-765b-adc2-c813de8cd3d1","","null","<div style=""display: flex; justify-content: center; align-items: center;"">
                     <img src=""images/causal/causal_series_9/causal_series_9_a.png"" style=""width: 300px; height: 300px;"" />
                   </div>","null","9","2","A","",""
"","","","","","html-button-response","110","559538","0.0-84.0","A65AFD53EC9A433CB7C98B2422436A03","0199d692-1de4-74af-b422-bec87be521e3","0199d675-8795-765b-adc2-c813de8cd3d1","","1192","
        <div style=""display: flex; justify-content: center; align-items: center;"">
          <img src=""images/red_deck_2.png"" style=""width: 300px; height: 300px; margin-right: 10px;"" />
          <img src=""images/blue_deck_1.png"" style=""width: 300px; height: 300px;"" />
        </div>","0","9","2","choice","0",""
"","","","","","html-keyboard-response","111","565540","0.0-85.0-0.0-0.0","A65AFD53EC9A433CB7C98B2422436A03","0199d692-1de4-74af-b422-bec87be521e3","0199d675-8795-765b-adc2-c813de8cd3d1","","null","<div style=""display: flex; justify-content: center; align-items: center;"">
                     <img src=""images/causal/causal_series_9/causal_series_9_b.png"" style=""width: 300px; height: 300px;"" />
                   </div>","null","9","2","B","",""
"","","","","","html-keyboard-response","112","571542","0.0-85.0-0.0-1.0","A65AFD53EC9A433CB7C98B2422436A03","0199d692-1de4-74af-b422-bec87be521e3","0199d675-8795-765b-adc2-c813de8cd3d1","","null","<div style=""display: flex; justify-content: center; align-items: center;"">
                     <img src=""images/causal/causal_series_9/causal_series_9_c.png"" style=""width: 300px; height: 300px;"" />
                   </div>","null","9","2","C","",""
"","","","","","html-keyboard-response","113","577544","0.0-85.0-0.0-2.0","A65AFD53EC9A433CB7C98B2422436A03","0199d692-1de4-74af-b422-bec87be521e3","0199d675-8795-765b-adc2-c813de8cd3d1","","null","<div style=""display: flex; justify-content: center; align-items: center;"">
                     <img src=""images/causal/causal_series_9/causal_series_9_d.png"" style=""width: 300px; height: 300px;"" />
                   </div>","null","9","2","D","",""
"","","","","","survey-likert","114","580189","0.0-86.0","A65AFD53EC9A433CB7C98B2422436A03","0199d692-1de4-74af-b422-bec87be521e3","0199d675-8795-765b-adc2-c813de8cd3d1","","2644","","{""Q0"":3}","9","2","surprise_rating","","[0]"
"","","","","","survey-likert","115","582756","0.0-87.0","A65AFD53EC9A433CB7C98B2422436A03","0199d692-1de4-74af-b422-bec87be521e3","0199d675-8795-765b-adc2-c813de8cd3d1","","2565","","{""Q0"":4}","9","2","enjoyment_rating","","[0]"
"","","","","","html-keyboard-response","116","588759","0.0-88.0","A65AFD53EC9A433CB7C98B2422436A03","0199d692-1de4-74af-b422-bec87be521e3","0199d675-8795-765b-adc2-c813de8cd3d1","","null","<div style=""display: flex; justify-content: center; align-items: center;"">
                     <img src=""images/other/blank.png"" style=""width: 300px; height: 300px;"" />
                   </div>","null","0","0","blank","",""
"","","","","","html-keyboard-response","117","594762","0.0-89.0","A65AFD53EC9A433CB7C98B2422436A03","0199d692-1de4-74af-b422-bec87be521e3","0199d675-8795-765b-adc2-c813de8cd3d1","","null","<div style=""display: flex; justify-content: center; align-items: center;"">
                     <img src=""images/causal/causal_series_8/causal_series_8_a.png"" style=""width: 300px; height: 300px;"" />
                   </div>","null","8","2","A","",""
"","","","","","html-button-response","118","596821","0.0-90.0","A65AFD53EC9A433CB7C98B2422436A03","0199d692-1de4-74af-b422-bec87be521e3","0199d675-8795-765b-adc2-c813de8cd3d1","","2057","
        <div style=""display: flex; justify-content: center; align-items: center;"">
          <img src=""images/red_deck_2.png"" style=""width: 300px; height: 300px; margin-right: 10px;"" />
          <img src=""images/blue_deck_1.png"" style=""width: 300px; height: 300px;"" />
        </div>","0","8","2","choice","0",""
"","","","","","html-keyboard-response","119","602823","0.0-91.0-0.0-0.0","A65AFD53EC9A433CB7C98B2422436A03","0199d692-1de4-74af-b422-bec87be521e3","0199d675-8795-765b-adc2-c813de8cd3d1","","null","<div style=""display: flex; justify-content: center; align-items: center;"">
                     <img src=""images/causal/causal_series_8/causal_series_8_b.png"" style=""width: 300px; height: 300px;"" />
                   </div>","null","8","2","B","",""
"","","","","","html-keyboard-response","120","608825","0.0-91.0-0.0-1.0","A65AFD53EC9A433CB7C98B2422436A03","0199d692-1de4-74af-b422-bec87be521e3","0199d675-8795-765b-adc2-c813de8cd3d1","","null","<div style=""display: flex; justify-content: center; align-items: center;"">
                     <img src=""images/causal/causal_series_8/causal_series_8_c.png"" style=""width: 300px; height: 300px;"" />
                   </div>","null","8","2","C","",""
"","","","","","html-keyboard-response","121","614827","0.0-91.0-0.0-2.0","A65AFD53EC9A433CB7C98B2422436A03","0199d692-1de4-74af-b422-bec87be521e3","0199d675-8795-765b-adc2-c813de8cd3d1","","null","<div style=""display: flex; justify-content: center; align-items: center;"">
                     <img src=""images/causal/causal_series_8/causal_series_8_d.png"" style=""width: 300px; height: 300px;"" />
                   </div>","null","8","2","D","",""
"","","","","","survey-likert","122","617622","0.0-92.0","A65AFD53EC9A433CB7C98B2422436A03","0199d692-1de4-74af-b422-bec87be521e3","0199d675-8795-765b-adc2-c813de8cd3d1","","2794","","{""Q0"":3}","8","2","surprise_rating","","[0]"
"","","","","","survey-likert","123","620170","0.0-93.0","A65AFD53EC9A433CB7C98B2422436A03","0199d692-1de4-74af-b422-bec87be521e3","0199d675-8795-765b-adc2-c813de8cd3d1","","2547","","{""Q0"":4}","8","2","enjoyment_rating","","[0]"
"","","","","","html-keyboard-response","124","626173","0.0-94.0","A65AFD53EC9A433CB7C98B2422436A03","0199d692-1de4-74af-b422-bec87be521e3","0199d675-8795-765b-adc2-c813de8cd3d1","","null","<div style=""display: flex; justify-content: center; align-items: center;"">
                     <img src=""images/other/blank.png"" style=""width: 300px; height: 300px;"" />
                   </div>","null","0","0","blank","",""
"","","","","","html-keyboard-response","125","632175","0.0-95.0","A65AFD53EC9A433CB7C98B2422436A03","0199d692-1de4-74af-b422-bec87be521e3","0199d675-8795-765b-adc2-c813de8cd3d1","","null","<div style=""display: flex; justify-content: center; align-items: center;"">
                     <img src=""images/causal/causal_series_2/causal_series_2_a.png"" style=""width: 300px; height: 300px;"" />
                   </div>","null","2","1","A","",""
"","","","","","html-button-response","126","635522","0.0-96.0","A65AFD53EC9A433CB7C98B2422436A03","0199d692-1de4-74af-b422-bec87be521e3","0199d675-8795-765b-adc2-c813de8cd3d1","","3345","
        <div style=""display: flex; justify-content: center; align-items: center;"">
          <img src=""images/red_deck_2.png"" style=""width: 300px; height: 300px; margin-right: 10px;"" />
          <img src=""images/blue_deck_1.png"" style=""width: 300px; height: 300px;"" />
        </div>","1","2","1","choice","1",""
"","","","","","html-keyboard-response","127","641524","0.0-97.0-1.0-0.0","A65AFD53EC9A433CB7C98B2422436A03","0199d692-1de4-74af-b422-bec87be521e3","0199d675-8795-765b-adc2-c813de8cd3d1","","null","<div style=""display: flex; justify-content: center; align-items: center;"">
                     <img src=""images/semantic/semantic_series_2/semantic_series_2_b.png"" style=""width: 300px; height: 300px;"" />
                   </div>","null","2","1","B","",""
"","","","","","html-keyboard-response","128","647526","0.0-97.0-1.0-1.0","A65AFD53EC9A433CB7C98B2422436A03","0199d692-1de4-74af-b422-bec87be521e3","0199d675-8795-765b-adc2-c813de8cd3d1","","null","<div style=""display: flex; justify-content: center; align-items: center;"">
                     <img src=""images/semantic/semantic_series_2/semantic_series_2_c.png"" style=""width: 300px; height: 300px;"" />
                   </div>","null","2","1","C","",""
"","","","","","html-keyboard-response","129","653529","0.0-97.0-1.0-2.0","A65AFD53EC9A433CB7C98B2422436A03","0199d692-1de4-74af-b422-bec87be521e3","0199d675-8795-765b-adc2-c813de8cd3d1","","null","<div style=""display: flex; justify-content: center; align-items: center;"">
                     <img src=""images/semantic/semantic_series_2/semantic_series_2_d.png"" style=""width: 300px; height: 300px;"" />
                   </div>","null","2","1","D","",""
"","","","","","survey-likert","130","655505","0.0-98.0","A65AFD53EC9A433CB7C98B2422436A03","0199d692-1de4-74af-b422-bec87be521e3","0199d675-8795-765b-adc2-c813de8cd3d1","","1976","","{""Q0"":3}","2","1","surprise_rating","","[0]"
"","","","","","survey-likert","131","657654","0.0-99.0","A65AFD53EC9A433CB7C98B2422436A03","0199d692-1de4-74af-b422-bec87be521e3","0199d675-8795-765b-adc2-c813de8cd3d1","","2147","","{""Q0"":4}","2","1","enjoyment_rating","","[0]"
"","","","","","html-keyboard-response","132","663656","0.0-100.0","A65AFD53EC9A433CB7C98B2422436A03","0199d692-1de4-74af-b422-bec87be521e3","0199d675-8795-765b-adc2-c813de8cd3d1","","null","<div style=""display: flex; justify-content: center; align-items: center;"">
                     <img src=""images/other/blank.png"" style=""width: 300px; height: 300px;"" />
                   </div>","null","0","0","blank","",""
"","","","","","html-keyboard-response","133","669657","0.0-101.0","A65AFD53EC9A433CB7C98B2422436A03","0199d692-1de4-74af-b422-bec87be521e3","0199d675-8795-765b-adc2-c813de8cd3d1","","null","<div style=""display: flex; justify-content: center; align-items: center;"">
                     <img src=""images/causal/causal_series_8/causal_series_8_a.png"" style=""width: 300px; height: 300px;"" />
                   </div>","null","8","1","A","",""
"","","","","","html-button-response","134","670504","0.0-102.0","A65AFD53EC9A433CB7C98B2422436A03","0199d692-1de4-74af-b422-bec87be521e3","0199d675-8795-765b-adc2-c813de8cd3d1","","846","
        <div style=""display: flex; justify-content: center; align-items: center;"">
          <img src=""images/red_deck_2.png"" style=""width: 300px; height: 300px; margin-right: 10px;"" />
          <img src=""images/blue_deck_1.png"" style=""width: 300px; height: 300px;"" />
        </div>","1","8","1","choice","1",""
"","","","","","html-keyboard-response","135","676507","0.0-103.0-1.0-0.0","A65AFD53EC9A433CB7C98B2422436A03","0199d692-1de4-74af-b422-bec87be521e3","0199d675-8795-765b-adc2-c813de8cd3d1","","null","<div style=""display: flex; justify-content: center; align-items: center;"">
                     <img src=""images/semantic/semantic_series_8/semantic_series_8_b.png"" style=""width: 300px; height: 300px;"" />
                   </div>","null","8","1","B","",""
"","","","","","html-keyboard-response","136","682509","0.0-103.0-1.0-1.0","A65AFD53EC9A433CB7C98B2422436A03","0199d692-1de4-74af-b422-bec87be521e3","0199d675-8795-765b-adc2-c813de8cd3d1","","null","<div style=""display: flex; justify-content: center; align-items: center;"">
                     <img src=""images/semantic/semantic_series_8/semantic_series_8_c.png"" style=""width: 300px; height: 300px;"" />
                   </div>","null","8","1","C","",""
"","","","","","html-keyboard-response","137","688512","0.0-103.0-1.0-2.0","A65AFD53EC9A433CB7C98B2422436A03","0199d692-1de4-74af-b422-bec87be521e3","0199d675-8795-765b-adc2-c813de8cd3d1","","null","<div style=""display: flex; justify-content: center; align-items: center;"">
                     <img src=""images/semantic/semantic_series_8/semantic_series_8_d.png"" style=""width: 300px; height: 300px;"" />
                   </div>","null","8","1","D","",""
"","","","","","survey-likert","138","694939","0.0-104.0","A65AFD53EC9A433CB7C98B2422436A03","0199d692-1de4-74af-b422-bec87be521e3","0199d675-8795-765b-adc2-c813de8cd3d1","","6426","","{""Q0"":3}","8","1","surprise_rating","","[0]"
"","","","","","survey-likert","139","696705","0.0-105.0","A65AFD53EC9A433CB7C98B2422436A03","0199d692-1de4-74af-b422-bec87be521e3","0199d675-8795-765b-adc2-c813de8cd3d1","","1764","","{""Q0"":4}","8","1","enjoyment_rating","","[0]"
"","","","","","html-keyboard-response","140","702708","0.0-106.0","A65AFD53EC9A433CB7C98B2422436A03","0199d692-1de4-74af-b422-bec87be521e3","0199d675-8795-765b-adc2-c813de8cd3d1","","null","<div style=""display: flex; justify-content: center; align-items: center;"">
                     <img src=""images/other/blank.png"" style=""width: 300px; height: 300px;"" />
                   </div>","null","0","0","blank","",""
"","","","","","html-keyboard-response","141","708710","0.0-107.0","A65AFD53EC9A433CB7C98B2422436A03","0199d692-1de4-74af-b422-bec87be521e3","0199d675-8795-765b-adc2-c813de8cd3d1","","null","<div style=""display: flex; justify-content: center; align-items: center;"">
                     <img src=""images/causal/causal_series_5/causal_series_5_a.png"" style=""width: 300px; height: 300px;"" />
                   </div>","null","5","1","A","",""
"","","","","","html-button-response","142","709788","0.0-108.0","A65AFD53EC9A433CB7C98B2422436A03","0199d692-1de4-74af-b422-bec87be521e3","0199d675-8795-765b-adc2-c813de8cd3d1","","1076","
        <div style=""display: flex; justify-content: center; align-items: center;"">
          <img src=""images/red_deck_2.png"" style=""width: 300px; height: 300px; margin-right: 10px;"" />
          <img src=""images/blue_deck_1.png"" style=""width: 300px; height: 300px;"" />
        </div>","1","5","1","choice","1",""
"","","","","","html-keyboard-response","143","715790","0.0-109.0-1.0-0.0","A65AFD53EC9A433CB7C98B2422436A03","0199d692-1de4-74af-b422-bec87be521e3","0199d675-8795-765b-adc2-c813de8cd3d1","","null","<div style=""display: flex; justify-content: center; align-items: center;"">
                     <img src=""images/semantic/semantic_series_5/semantic_series_5_b.png"" style=""width: 300px; height: 300px;"" />
                   </div>","null","5","1","B","",""
"","","","","","html-keyboard-response","144","721793","0.0-109.0-1.0-1.0","A65AFD53EC9A433CB7C98B2422436A03","0199d692-1de4-74af-b422-bec87be521e3","0199d675-8795-765b-adc2-c813de8cd3d1","","null","<div style=""display: flex; justify-content: center; align-items: center;"">
                     <img src=""images/semantic/semantic_series_5/semantic_series_5_c.png"" style=""width: 300px; height: 300px;"" />
                   </div>","null","5","1","C","",""
"","","","","","html-keyboard-response","145","727795","0.0-109.0-1.0-2.0","A65AFD53EC9A433CB7C98B2422436A03","0199d692-1de4-74af-b422-bec87be521e3","0199d675-8795-765b-adc2-c813de8cd3d1","","null","<div style=""display: flex; justify-content: center; align-items: center;"">
                     <img src=""images/semantic/semantic_series_5/semantic_series_5_d.png"" style=""width: 300px; height: 300px;"" />
                   </div>","null","5","1","D","",""
"","","","","","survey-likert","146","732937","0.0-110.0","A65AFD53EC9A433CB7C98B2422436A03","0199d692-1de4-74af-b422-bec87be521e3","0199d675-8795-765b-adc2-c813de8cd3d1","","5141","","{""Q0"":3}","5","1","surprise_rating","","[0]"
"","","","","","survey-likert","147","735154","0.0-111.0","A65AFD53EC9A433CB7C98B2422436A03","0199d692-1de4-74af-b422-bec87be521e3","0199d675-8795-765b-adc2-c813de8cd3d1","","2215","","{""Q0"":4}","5","1","enjoyment_rating","","[0]"
"","","","","","html-keyboard-response","148","741156","0.0-112.0","A65AFD53EC9A433CB7C98B2422436A03","0199d692-1de4-74af-b422-bec87be521e3","0199d675-8795-765b-adc2-c813de8cd3d1","","null","<div style=""display: flex; justify-content: center; align-items: center;"">
                     <img src=""images/other/blank.png"" style=""width: 300px; height: 300px;"" />
                   </div>","null","0","0","blank","",""
"","","","","","html-keyboard-response","149","747158","0.0-113.0","A65AFD53EC9A433CB7C98B2422436A03","0199d692-1de4-74af-b422-bec87be521e3","0199d675-8795-765b-adc2-c813de8cd3d1","","null","<div style=""display: flex; justify-content: center; align-items: center;"">
                     <img src=""images/causal/causal_series_3/causal_series_3_a.png"" style=""width: 300px; height: 300px;"" />
                   </div>","null","3","1","A","",""
"","","","","","html-button-response","150","749104","0.0-114.0","A65AFD53EC9A433CB7C98B2422436A03","0199d692-1de4-74af-b422-bec87be521e3","0199d675-8795-765b-adc2-c813de8cd3d1","","1944","
        <div style=""display: flex; justify-content: center; align-items: center;"">
          <img src=""images/red_deck_2.png"" style=""width: 300px; height: 300px; margin-right: 10px;"" />
          <img src=""images/blue_deck_1.png"" style=""width: 300px; height: 300px;"" />
        </div>","1","3","1","choice","1",""
"","","","","","html-keyboard-response","151","755106","0.0-115.0-1.0-0.0","A65AFD53EC9A433CB7C98B2422436A03","0199d692-1de4-74af-b422-bec87be521e3","0199d675-8795-765b-adc2-c813de8cd3d1","","null","<div style=""display: flex; justify-content: center; align-items: center;"">
                     <img src=""images/semantic/semantic_series_3/semantic_series_3_b.png"" style=""width: 300px; height: 300px;"" />
                   </div>","null","3","1","B","",""
"","","","","","html-keyboard-response","152","761109","0.0-115.0-1.0-1.0","A65AFD53EC9A433CB7C98B2422436A03","0199d692-1de4-74af-b422-bec87be521e3","0199d675-8795-765b-adc2-c813de8cd3d1","","null","<div style=""display: flex; justify-content: center; align-items: center;"">
                     <img src=""images/semantic/semantic_series_3/semantic_series_3_c.png"" style=""width: 300px; height: 300px;"" />
                   </div>","null","3","1","C","",""
"","","","","","html-keyboard-response","153","767111","0.0-115.0-1.0-2.0","A65AFD53EC9A433CB7C98B2422436A03","0199d692-1de4-74af-b422-bec87be521e3","0199d675-8795-765b-adc2-c813de8cd3d1","","null","<div style=""display: flex; justify-content: center; align-items: center;"">
                     <img src=""images/semantic/semantic_series_3/semantic_series_3_d.png"" style=""width: 300px; height: 300px;"" />
                   </div>","null","3","1","D","",""
"","","","","","survey-likert","154","771922","0.0-116.0","A65AFD53EC9A433CB7C98B2422436A03","0199d692-1de4-74af-b422-bec87be521e3","0199d675-8795-765b-adc2-c813de8cd3d1","","4809","","{""Q0"":0}","3","1","surprise_rating","","[0]"
"","","","","","survey-likert","155","774372","0.0-117.0","A65AFD53EC9A433CB7C98B2422436A03","0199d692-1de4-74af-b422-bec87be521e3","0199d675-8795-765b-adc2-c813de8cd3d1","","2448","","{""Q0"":1}","3","1","enjoyment_rating","","[0]"
"","","","","","html-keyboard-response","156","780375","0.0-118.0","A65AFD53EC9A433CB7C98B2422436A03","0199d692-1de4-74af-b422-bec87be521e3","0199d675-8795-765b-adc2-c813de8cd3d1","","null","<div style=""display: flex; justify-content: center; align-items: center;"">
                     <img src=""images/other/blank.png"" style=""width: 300px; height: 300px;"" />
                   </div>","null","0","0","blank","",""
"","","","","","html-keyboard-response","157","786376","0.0-119.0","A65AFD53EC9A433CB7C98B2422436A03","0199d692-1de4-74af-b422-bec87be521e3","0199d675-8795-765b-adc2-c813de8cd3d1","","null","<div style=""display: flex; justify-content: center; align-items: center;"">
                     <img src=""images/causal/causal_series_9/causal_series_9_a.png"" style=""width: 300px; height: 300px;"" />
                   </div>","null","9","1","A","",""
"","","","","","html-button-response","158","787437","0.0-120.0","A65AFD53EC9A433CB7C98B2422436A03","0199d692-1de4-74af-b422-bec87be521e3","0199d675-8795-765b-adc2-c813de8cd3d1","","1059","
        <div style=""display: flex; justify-content: center; align-items: center;"">
          <img src=""images/red_deck_2.png"" style=""width: 300px; height: 300px; margin-right: 10px;"" />
          <img src=""images/blue_deck_1.png"" style=""width: 300px; height: 300px;"" />
        </div>","1","9","1","choice","1",""
"","","","","","html-keyboard-response","159","793439","0.0-121.0-1.0-0.0","A65AFD53EC9A433CB7C98B2422436A03","0199d692-1de4-74af-b422-bec87be521e3","0199d675-8795-765b-adc2-c813de8cd3d1","","null","<div style=""display: flex; justify-content: center; align-items: center;"">
                     <img src=""images/semantic/semantic_series_9/semantic_series_9_b.png"" style=""width: 300px; height: 300px;"" />
                   </div>","null","9","1","B","",""
"","","","","","html-keyboard-response","160","799441","0.0-121.0-1.0-1.0","A65AFD53EC9A433CB7C98B2422436A03","0199d692-1de4-74af-b422-bec87be521e3","0199d675-8795-765b-adc2-c813de8cd3d1","","null","<div style=""display: flex; justify-content: center; align-items: center;"">
                     <img src=""images/semantic/semantic_series_9/semantic_series_9_c.png"" style=""width: 300px; height: 300px;"" />
                   </div>","null","9","1","C","",""
"","","","","","html-keyboard-response","161","805443","0.0-121.0-1.0-2.0","A65AFD53EC9A433CB7C98B2422436A03","0199d692-1de4-74af-b422-bec87be521e3","0199d675-8795-765b-adc2-c813de8cd3d1","","null","<div style=""display: flex; justify-content: center; align-items: center;"">
                     <img src=""images/semantic/semantic_series_9/semantic_series_9_d.png"" style=""width: 300px; height: 300px;"" />
                   </div>","null","9","1","D","",""
"","","","","","survey-likert","162","813806","0.0-122.0","A65AFD53EC9A433CB7C98B2422436A03","0199d692-1de4-74af-b422-bec87be521e3","0199d675-8795-765b-adc2-c813de8cd3d1","","8361","","{""Q0"":2}","9","1","surprise_rating","","[0]"
"","","","","","survey-likert","163","816672","0.0-123.0","A65AFD53EC9A433CB7C98B2422436A03","0199d692-1de4-74af-b422-bec87be521e3","0199d675-8795-765b-adc2-c813de8cd3d1","","2865","","{""Q0"":2}","9","1","enjoyment_rating","","[0]"
"","","","","","html-keyboard-response","164","822675","0.0-124.0","A65AFD53EC9A433CB7C98B2422436A03","0199d692-1de4-74af-b422-bec87be521e3","0199d675-8795-765b-adc2-c813de8cd3d1","","null","<div style=""display: flex; justify-content: center; align-items: center;"">
                     <img src=""images/other/blank.png"" style=""width: 300px; height: 300px;"" />
                   </div>","null","0","0","blank","",""
"","","","","","survey-text","165","844704","0.0-125.0","A65AFD53EC9A433CB7C98B2422436A03","0199d692-1de4-74af-b422-bec87be521e3","0199d675-8795-765b-adc2-c813de8cd3d1","","22024","","{""Q0"":""One had consistent story line while the other was just random.""}","","","","",""
"","","","","","html-button-response","166","847954","0.0-126.0","A65AFD53EC9A433CB7C98B2422436A03","0199d692-1de4-74af-b422-bec87be521e3","0199d675-8795-765b-adc2-c813de8cd3d1","","3249","Which color deck do the following sentences continue the story from?","0","","","","",""
"","","","","","html-button-response","167","849805","0.0-127.0","A65AFD53EC9A433CB7C98B2422436A03","0199d692-1de4-74af-b422-bec87be521e3","0199d675-8795-765b-adc2-c813de8cd3d1","","1850","Which color deck do the following sentences NOT follow the story from?","1","","","","",""
"","","","","","html-button-response","168","854053","0.0-128.0","A65AFD53EC9A433CB7C98B2422436A03","0199d692-1de4-74af-b422-bec87be521e3","0199d675-8795-765b-adc2-c813de8cd3d1","","4248","Which type of deck did you prefer overall?","1","","","","",""
"","","","","","survey-text","169","860626","0.0-129.0","A65AFD53EC9A433CB7C98B2422436A03","0199d692-1de4-74af-b422-bec87be521e3","0199d675-8795-765b-adc2-c813de8cd3d1","","6571","","{""Q0"":""FEMALE"",""Q1"":""27""}","","","","",""
"","","","","","instructions","170","870686","0.0-130.0","A65AFD53EC9A433CB7C98B2422436A03","0199d692-1de4-74af-b422-bec87be521e3","0199d675-8795-765b-adc2-c813de8cd3d1","[{""page_index"":0,""viewing_time"":10060}]","10060","","","","","","",""
