"success","timeout","failed_images","failed_audio","failed_video","trial_type","trial_index","time_elapsed","internal_node_id","subject_id","study_id","session_id","view_history","rt","stimulus","response","series","repetition","phase","choice","question_order"
"true","false","[]","[]","[]","preload","0","357","0.0-0.0","C994CF4C95E5496EBA547FABF5C49197","0199d5ff-6542-7ade-8af6-ebaf076fff25","0199d5ef-c7d4-7cab-a194-b2c3afbaf8e8","","","","","","","","",""
"","","","","","instructions","1","2362","0.0-1.0","C994CF4C95E5496EBA547FABF5C49197","0199d5ff-6542-7ade-8af6-ebaf076fff25","0199d5ef-c7d4-7cab-a194-b2c3afbaf8e8","[{""page_index"":0,""viewing_time"":2003}]","2004","","","","","","",""
"","","","","","instructions","2","20934","0.0-2.0","C994CF4C95E5496EBA547FABF5C49197","0199d5ff-6542-7ade-8af6-ebaf076fff25","0199d5ef-c7d4-7cab-a194-b2c3afbaf8e8","[{""page_index"":0,""viewing_time"":18572}]","18572","","","","","","",""
"true","","","","","fullscreen","3","26204","0.0-3.0","C994CF4C95E5496EBA547FABF5C49197","0199d5ff-6542-7ade-8af6-ebaf076fff25","0199d5ef-c7d4-7cab-a194-b2c3afbaf8e8","","4258","","","","","","",""
"","","","","","instructions","4","40021","0.0-4.0","C994CF4C95E5496EBA547FABF5C49197","0199d5ff-6542-7ade-8af6-ebaf076fff25","0199d5ef-c7d4-7cab-a194-b2c3afbaf8e8","[{""page_index"":0,""viewing_time"":13816}]","13817","","","","","","",""
"","","","","","html-keyboard-response","5","46038","0.0-5.0","C994CF4C95E5496EBA547FABF5C49197","0199d5ff-6542-7ade-8af6-ebaf076fff25","0199d5ef-c7d4-7cab-a194-b2c3afbaf8e8","","null","<div style=""display: flex; justify-content: center; align-items: center;"">
                     <img src=""images/causal/causal_series_7/causal_series_7_a.png"" style=""width: 300px; height: 300px;"" />
                   </div>","null","7","1","A","",""
"","","","","","html-keyboard-response","6","52043","0.0-6.0","C994CF4C95E5496EBA547FABF5C49197","0199d5ff-6542-7ade-8af6-ebaf076fff25","0199d5ef-c7d4-7cab-a194-b2c3afbaf8e8","","null","<div style=""display: flex; justify-content: center; align-items: center;"">
                     <img src=""images/causal/causal_series_7/causal_series_7_b.png"" style=""width: 300px; height: 300px;"" />
                   </div>","null","7","1","B","",""
"","","","","","html-keyboard-response","7","58059","0.0-7.0","C994CF4C95E5496EBA547FABF5C49197","0199d5ff-6542-7ade-8af6-ebaf076fff25","0199d5ef-c7d4-7cab-a194-b2c3afbaf8e8","","null","<div style=""display: flex; justify-content: center; align-items: center;"">
                     <img src=""images/causal/causal_series_7/causal_series_7_c.png"" style=""width: 300px; height: 300px;"" />
                   </div>","null","7","1","C","",""
"","","","","","html-button-response","8","62045","0.0-8.0","C994CF4C95E5496EBA547FABF5C49197","0199d5ff-6542-7ade-8af6-ebaf076fff25","0199d5ef-c7d4-7cab-a194-b2c3afbaf8e8","","3985","
        <div style=""display: flex; justify-content: center; align-items: center;"">
          <img src=""images/red_deck_2.png"" style=""width: 300px; height: 300px; margin-right: 10px;"" />
          <img src=""images/blue_deck_1.png"" style=""width: 300px; height: 300px;"" />
        </div>","1","7","1","choice","1",""
"","","","","","html-keyboard-response","9","68052","0.0-9.0-1.0-0.0","C994CF4C95E5496EBA547FABF5C49197","0199d5ff-6542-7ade-8af6-ebaf076fff25","0199d5ef-c7d4-7cab-a194-b2c3afbaf8e8","","null","<div style=""display: flex; justify-content: center; align-items: center;"">
                     <img src=""images/semantic/semantic_series_7/semantic_series_7_d.png"" style=""width: 300px; height: 300px;"" />
                   </div>","null","7","1","D","",""
"","","","","","html-keyboard-response","10","74062","0.0-9.0-1.0-1.0","C994CF4C95E5496EBA547FABF5C49197","0199d5ff-6542-7ade-8af6-ebaf076fff25","0199d5ef-c7d4-7cab-a194-b2c3afbaf8e8","","null","<div style=""display: flex; justify-content: center; align-items: center;"">
                     <img src=""images/semantic/semantic_series_7/semantic_series_7_e.png"" style=""width: 300px; height: 300px;"" />
                   </div>","null","7","1","E","",""
"","","","","","html-keyboard-response","11","80075","0.0-9.0-1.0-2.0","C994CF4C95E5496EBA547FABF5C49197","0199d5ff-6542-7ade-8af6-ebaf076fff25","0199d5ef-c7d4-7cab-a194-b2c3afbaf8e8","","null","<div style=""display: flex; justify-content: center; align-items: center;"">
                     <img src=""images/semantic/semantic_series_7/semantic_series_7_f.png"" style=""width: 300px; height: 300px;"" />
                   </div>","null","7","1","F","",""
"","","","","","survey-likert","12","83738","0.0-10.0","C994CF4C95E5496EBA547FABF5C49197","0199d5ff-6542-7ade-8af6-ebaf076fff25","0199d5ef-c7d4-7cab-a194-b2c3afbaf8e8","","3660","","{""Q0"":4}","7","1","surprise_rating","","[0]"
"","","","","","survey-likert","13","87204","0.0-11.0","C994CF4C95E5496EBA547FABF5C49197","0199d5ff-6542-7ade-8af6-ebaf076fff25","0199d5ef-c7d4-7cab-a194-b2c3afbaf8e8","","3464","","{""Q0"":3}","7","1","enjoyment_rating","","[0]"
"","","","","","html-keyboard-response","14","93210","0.0-12.0","C994CF4C95E5496EBA547FABF5C49197","0199d5ff-6542-7ade-8af6-ebaf076fff25","0199d5ef-c7d4-7cab-a194-b2c3afbaf8e8","","null","<div style=""display: flex; justify-content: center; align-items: center;"">
                     <img src=""images/other/blank.png"" style=""width: 300px; height: 300px;"" />
                   </div>","null","0","0","blank","",""
"","","","","","html-keyboard-response","15","99243","0.0-13.0","C994CF4C95E5496EBA547FABF5C49197","0199d5ff-6542-7ade-8af6-ebaf076fff25","0199d5ef-c7d4-7cab-a194-b2c3afbaf8e8","","null","<div style=""display: flex; justify-content: center; align-items: center;"">
                     <img src=""images/causal/causal_series_10/causal_series_10_a.png"" style=""width: 300px; height: 300px;"" />
                   </div>","null","10","2","A","",""
"","","","","","html-keyboard-response","16","105260","0.0-14.0","C994CF4C95E5496EBA547FABF5C49197","0199d5ff-6542-7ade-8af6-ebaf076fff25","0199d5ef-c7d4-7cab-a194-b2c3afbaf8e8","","null","<div style=""display: flex; justify-content: center; align-items: center;"">
                     <img src=""images/causal/causal_series_10/causal_series_10_b.png"" style=""width: 300px; height: 300px;"" />
                   </div>","null","10","2","B","",""
"","","","","","html-keyboard-response","17","111262","0.0-15.0","C994CF4C95E5496EBA547FABF5C49197","0199d5ff-6542-7ade-8af6-ebaf076fff25","0199d5ef-c7d4-7cab-a194-b2c3afbaf8e8","","null","<div style=""display: flex; justify-content: center; align-items: center;"">
                     <img src=""images/causal/causal_series_10/causal_series_10_c.png"" style=""width: 300px; height: 300px;"" />
                   </div>","null","10","2","C","",""
"","","","","","html-button-response","18","112546","0.0-16.0","C994CF4C95E5496EBA547FABF5C49197","0199d5ff-6542-7ade-8af6-ebaf076fff25","0199d5ef-c7d4-7cab-a194-b2c3afbaf8e8","","1282","
        <div style=""display: flex; justify-content: center; align-items: center;"">
          <img src=""images/red_deck_2.png"" style=""width: 300px; height: 300px; margin-right: 10px;"" />
          <img src=""images/blue_deck_1.png"" style=""width: 300px; height: 300px;"" />
        </div>","1","10","2","choice","1",""
"","","","","","html-keyboard-response","19","118558","0.0-17.0-1.0-0.0","C994CF4C95E5496EBA547FABF5C49197","0199d5ff-6542-7ade-8af6-ebaf076fff25","0199d5ef-c7d4-7cab-a194-b2c3afbaf8e8","","null","<div style=""display: flex; justify-content: center; align-items: center;"">
                     <img src=""images/semantic/semantic_series_10/semantic_series_10_d.png"" style=""width: 300px; height: 300px;"" />
                   </div>","null","10","2","D","",""
"","","","","","html-keyboard-response","20","124573","0.0-17.0-1.0-1.0","C994CF4C95E5496EBA547FABF5C49197","0199d5ff-6542-7ade-8af6-ebaf076fff25","0199d5ef-c7d4-7cab-a194-b2c3afbaf8e8","","null","<div style=""display: flex; justify-content: center; align-items: center;"">
                     <img src=""images/semantic/semantic_series_10/semantic_series_10_e.png"" style=""width: 300px; height: 300px;"" />
                   </div>","null","10","2","E","",""
"","","","","","html-keyboard-response","21","130578","0.0-17.0-1.0-2.0","C994CF4C95E5496EBA547FABF5C49197","0199d5ff-6542-7ade-8af6-ebaf076fff25","0199d5ef-c7d4-7cab-a194-b2c3afbaf8e8","","null","<div style=""display: flex; justify-content: center; align-items: center;"">
                     <img src=""images/semantic/semantic_series_10/semantic_series_10_f.png"" style=""width: 300px; height: 300px;"" />
                   </div>","null","10","2","F","",""
"","","","","","survey-likert","22","135746","0.0-18.0","C994CF4C95E5496EBA547FABF5C49197","0199d5ff-6542-7ade-8af6-ebaf076fff25","0199d5ef-c7d4-7cab-a194-b2c3afbaf8e8","","5167","","{""Q0"":3}","10","2","surprise_rating","","[0]"
"","","","","","survey-likert","23","140612","0.0-19.0","C994CF4C95E5496EBA547FABF5C49197","0199d5ff-6542-7ade-8af6-ebaf076fff25","0199d5ef-c7d4-7cab-a194-b2c3afbaf8e8","","4864","","{""Q0"":1}","10","2","enjoyment_rating","","[0]"
"","","","","","html-keyboard-response","24","146624","0.0-20.0","C994CF4C95E5496EBA547FABF5C49197","0199d5ff-6542-7ade-8af6-ebaf076fff25","0199d5ef-c7d4-7cab-a194-b2c3afbaf8e8","","null","<div style=""display: flex; justify-content: center; align-items: center;"">
                     <img src=""images/other/blank.png"" style=""width: 300px; height: 300px;"" />
                   </div>","null","0","0","blank","",""
"","","","","","html-keyboard-response","25","152636","0.0-21.0","C994CF4C95E5496EBA547FABF5C49197","0199d5ff-6542-7ade-8af6-ebaf076fff25","0199d5ef-c7d4-7cab-a194-b2c3afbaf8e8","","null","<div style=""display: flex; justify-content: center; align-items: center;"">
                     <img src=""images/causal/causal_series_8/causal_series_8_a.png"" style=""width: 300px; height: 300px;"" />
                   </div>","null","8","2","A","",""
"","","","","","html-keyboard-response","26","158644","0.0-22.0","C994CF4C95E5496EBA547FABF5C49197","0199d5ff-6542-7ade-8af6-ebaf076fff25","0199d5ef-c7d4-7cab-a194-b2c3afbaf8e8","","null","<div style=""display: flex; justify-content: center; align-items: center;"">
                     <img src=""images/causal/causal_series_8/causal_series_8_b.png"" style=""width: 300px; height: 300px;"" />
                   </div>","null","8","2","B","",""
"","","","","","html-keyboard-response","27","164657","0.0-23.0","C994CF4C95E5496EBA547FABF5C49197","0199d5ff-6542-7ade-8af6-ebaf076fff25","0199d5ef-c7d4-7cab-a194-b2c3afbaf8e8","","null","<div style=""display: flex; justify-content: center; align-items: center;"">
                     <img src=""images/causal/causal_series_8/causal_series_8_c.png"" style=""width: 300px; height: 300px;"" />
                   </div>","null","8","2","C","",""
"","","","","","html-button-response","28","166688","0.0-24.0","C994CF4C95E5496EBA547FABF5C49197","0199d5ff-6542-7ade-8af6-ebaf076fff25","0199d5ef-c7d4-7cab-a194-b2c3afbaf8e8","","2029","
        <div style=""display: flex; justify-content: center; align-items: center;"">
          <img src=""images/red_deck_2.png"" style=""width: 300px; height: 300px; margin-right: 10px;"" />
          <img src=""images/blue_deck_1.png"" style=""width: 300px; height: 300px;"" />
        </div>","0","8","2","choice","0",""
"","","","","","html-keyboard-response","29","172697","0.0-25.0-0.0-0.0","C994CF4C95E5496EBA547FABF5C49197","0199d5ff-6542-7ade-8af6-ebaf076fff25","0199d5ef-c7d4-7cab-a194-b2c3afbaf8e8","","null","<div style=""display: flex; justify-content: center; align-items: center;"">
                     <img src=""images/causal/causal_series_8/causal_series_8_d.png"" style=""width: 300px; height: 300px;"" />
                   </div>","null","8","2","D","",""
"","","","","","html-keyboard-response","30","178703","0.0-25.0-0.0-1.0","C994CF4C95E5496EBA547FABF5C49197","0199d5ff-6542-7ade-8af6-ebaf076fff25","0199d5ef-c7d4-7cab-a194-b2c3afbaf8e8","","null","<div style=""display: flex; justify-content: center; align-items: center;"">
                     <img src=""images/causal/causal_series_8/causal_series_8_e.png"" style=""width: 300px; height: 300px;"" />
                   </div>","null","8","2","E","",""
"","","","","","html-keyboard-response","31","184711","0.0-25.0-0.0-2.0","C994CF4C95E5496EBA547FABF5C49197","0199d5ff-6542-7ade-8af6-ebaf076fff25","0199d5ef-c7d4-7cab-a194-b2c3afbaf8e8","","null","<div style=""display: flex; justify-content: center; align-items: center;"">
                     <img src=""images/causal/causal_series_8/causal_series_8_f.png"" style=""width: 300px; height: 300px;"" />
                   </div>","null","8","2","F","",""
"","","","","","survey-likert","32","188578","0.0-26.0","C994CF4C95E5496EBA547FABF5C49197","0199d5ff-6542-7ade-8af6-ebaf076fff25","0199d5ef-c7d4-7cab-a194-b2c3afbaf8e8","","3865","","{""Q0"":2}","8","2","surprise_rating","","[0]"
"","","","","","survey-likert","33","191069","0.0-27.0","C994CF4C95E5496EBA547FABF5C49197","0199d5ff-6542-7ade-8af6-ebaf076fff25","0199d5ef-c7d4-7cab-a194-b2c3afbaf8e8","","2489","","{""Q0"":2}","8","2","enjoyment_rating","","[0]"
"","","","","","html-keyboard-response","34","197082","0.0-28.0","C994CF4C95E5496EBA547FABF5C49197","0199d5ff-6542-7ade-8af6-ebaf076fff25","0199d5ef-c7d4-7cab-a194-b2c3afbaf8e8","","null","<div style=""display: flex; justify-content: center; align-items: center;"">
                     <img src=""images/other/blank.png"" style=""width: 300px; height: 300px;"" />
                   </div>","null","0","0","blank","",""
"","","","","","html-keyboard-response","35","203096","0.0-29.0","C994CF4C95E5496EBA547FABF5C49197","0199d5ff-6542-7ade-8af6-ebaf076fff25","0199d5ef-c7d4-7cab-a194-b2c3afbaf8e8","","null","<div style=""display: flex; justify-content: center; align-items: center;"">
                     <img src=""images/causal/causal_series_3/causal_series_3_a.png"" style=""width: 300px; height: 300px;"" />
                   </div>","null","3","1","A","",""
"","","","","","html-keyboard-response","36","209107","0.0-30.0","C994CF4C95E5496EBA547FABF5C49197","0199d5ff-6542-7ade-8af6-ebaf076fff25","0199d5ef-c7d4-7cab-a194-b2c3afbaf8e8","","null","<div style=""display: flex; justify-content: center; align-items: center;"">
                     <img src=""images/causal/causal_series_3/causal_series_3_b.png"" style=""width: 300px; height: 300px;"" />
                   </div>","null","3","1","B","",""
"","","","","","html-keyboard-response","37","215112","0.0-31.0","C994CF4C95E5496EBA547FABF5C49197","0199d5ff-6542-7ade-8af6-ebaf076fff25","0199d5ef-c7d4-7cab-a194-b2c3afbaf8e8","","null","<div style=""display: flex; justify-content: center; align-items: center;"">
                     <img src=""images/causal/causal_series_3/causal_series_3_c.png"" style=""width: 300px; height: 300px;"" />
                   </div>","null","3","1","C","",""
"","","","","","html-button-response","38","217722","0.0-32.0","C994CF4C95E5496EBA547FABF5C49197","0199d5ff-6542-7ade-8af6-ebaf076fff25","0199d5ef-c7d4-7cab-a194-b2c3afbaf8e8","","2609","
        <div style=""display: flex; justify-content: center; align-items: center;"">
          <img src=""images/red_deck_2.png"" style=""width: 300px; height: 300px; margin-right: 10px;"" />
          <img src=""images/blue_deck_1.png"" style=""width: 300px; height: 300px;"" />
        </div>","0","3","1","choice","0",""
"","","","","","html-keyboard-response","39","223723","0.0-33.0-0.0-0.0","C994CF4C95E5496EBA547FABF5C49197","0199d5ff-6542-7ade-8af6-ebaf076fff25","0199d5ef-c7d4-7cab-a194-b2c3afbaf8e8","","null","<div style=""display: flex; justify-content: center; align-items: center;"">
                     <img src=""images/causal/causal_series_3/causal_series_3_d.png"" style=""width: 300px; height: 300px;"" />
                   </div>","null","3","1","D","",""
"","","","","","html-keyboard-response","40","229725","0.0-33.0-0.0-1.0","C994CF4C95E5496EBA547FABF5C49197","0199d5ff-6542-7ade-8af6-ebaf076fff25","0199d5ef-c7d4-7cab-a194-b2c3afbaf8e8","","null","<div style=""display: flex; justify-content: center; align-items: center;"">
                     <img src=""images/causal/causal_series_3/causal_series_3_e.png"" style=""width: 300px; height: 300px;"" />
                   </div>","null","3","1","E","",""
"","","","","","html-keyboard-response","41","235742","0.0-33.0-0.0-2.0","C994CF4C95E5496EBA547FABF5C49197","0199d5ff-6542-7ade-8af6-ebaf076fff25","0199d5ef-c7d4-7cab-a194-b2c3afbaf8e8","","null","<div style=""display: flex; justify-content: center; align-items: center;"">
                     <img src=""images/causal/causal_series_3/causal_series_3_f.png"" style=""width: 300px; height: 300px;"" />
                   </div>","null","3","1","F","",""
"","","","","","survey-likert","42","239494","0.0-34.0","C994CF4C95E5496EBA547FABF5C49197","0199d5ff-6542-7ade-8af6-ebaf076fff25","0199d5ef-c7d4-7cab-a194-b2c3afbaf8e8","","3750","","{""Q0"":2}","3","1","surprise_rating","","[0]"
"","","","","","survey-likert","43","242328","0.0-35.0","C994CF4C95E5496EBA547FABF5C49197","0199d5ff-6542-7ade-8af6-ebaf076fff25","0199d5ef-c7d4-7cab-a194-b2c3afbaf8e8","","2831","","{""Q0"":1}","3","1","enjoyment_rating","","[0]"
"","","","","","html-keyboard-response","44","248346","0.0-36.0","C994CF4C95E5496EBA547FABF5C49197","0199d5ff-6542-7ade-8af6-ebaf076fff25","0199d5ef-c7d4-7cab-a194-b2c3afbaf8e8","","null","<div style=""display: flex; justify-content: center; align-items: center;"">
                     <img src=""images/other/blank.png"" style=""width: 300px; height: 300px;"" />
                   </div>","null","0","0","blank","",""
"","","","","","html-keyboard-response","45","254359","0.0-37.0","C994CF4C95E5496EBA547FABF5C49197","0199d5ff-6542-7ade-8af6-ebaf076fff25","0199d5ef-c7d4-7cab-a194-b2c3afbaf8e8","","null","<div style=""display: flex; justify-content: center; align-items: center;"">
                     <img src=""images/causal/causal_series_5/causal_series_5_a.png"" style=""width: 300px; height: 300px;"" />
                   </div>","null","5","2","A","",""
"","","","","","html-keyboard-response","46","260364","0.0-38.0","C994CF4C95E5496EBA547FABF5C49197","0199d5ff-6542-7ade-8af6-ebaf076fff25","0199d5ef-c7d4-7cab-a194-b2c3afbaf8e8","","null","<div style=""display: flex; justify-content: center; align-items: center;"">
                     <img src=""images/causal/causal_series_5/causal_series_5_b.png"" style=""width: 300px; height: 300px;"" />
                   </div>","null","5","2","B","",""
"","","","","","html-keyboard-response","47","266366","0.0-39.0","C994CF4C95E5496EBA547FABF5C49197","0199d5ff-6542-7ade-8af6-ebaf076fff25","0199d5ef-c7d4-7cab-a194-b2c3afbaf8e8","","null","<div style=""display: flex; justify-content: center; align-items: center;"">
                     <img src=""images/causal/causal_series_5/causal_series_5_c.png"" style=""width: 300px; height: 300px;"" />
                   </div>","null","5","2","C","",""
"","","","","","html-button-response","48","268728","0.0-40.0","C994CF4C95E5496EBA547FABF5C49197","0199d5ff-6542-7ade-8af6-ebaf076fff25","0199d5ef-c7d4-7cab-a194-b2c3afbaf8e8","","2361","
        <div style=""display: flex; justify-content: center; align-items: center;"">
          <img src=""images/red_deck_2.png"" style=""width: 300px; height: 300px; margin-right: 10px;"" />
          <img src=""images/blue_deck_1.png"" style=""width: 300px; height: 300px;"" />
        </div>","1","5","2","choice","1",""
"","","","","","html-keyboard-response","49","274733","0.0-41.0-1.0-0.0","C994CF4C95E5496EBA547FABF5C49197","0199d5ff-6542-7ade-8af6-ebaf076fff25","0199d5ef-c7d4-7cab-a194-b2c3afbaf8e8","","null","<div style=""display: flex; justify-content: center; align-items: center;"">
                     <img src=""images/semantic/semantic_series_5/semantic_series_5_d.png"" style=""width: 300px; height: 300px;"" />
                   </div>","null","5","2","D","",""
"","","","","","html-keyboard-response","50","280740","0.0-41.0-1.0-1.0","C994CF4C95E5496EBA547FABF5C49197","0199d5ff-6542-7ade-8af6-ebaf076fff25","0199d5ef-c7d4-7cab-a194-b2c3afbaf8e8","","null","<div style=""display: flex; justify-content: center; align-items: center;"">
                     <img src=""images/semantic/semantic_series_5/semantic_series_5_e.png"" style=""width: 300px; height: 300px;"" />
                   </div>","null","5","2","E","",""
"","","","","","html-keyboard-response","51","286756","0.0-41.0-1.0-2.0","C994CF4C95E5496EBA547FABF5C49197","0199d5ff-6542-7ade-8af6-ebaf076fff25","0199d5ef-c7d4-7cab-a194-b2c3afbaf8e8","","null","<div style=""display: flex; justify-content: center; align-items: center;"">
                     <img src=""images/semantic/semantic_series_5/semantic_series_5_f.png"" style=""width: 300px; height: 300px;"" />
                   </div>","null","5","2","F","",""
"","","","","","survey-likert","52","289648","0.0-42.0","C994CF4C95E5496EBA547FABF5C49197","0199d5ff-6542-7ade-8af6-ebaf076fff25","0199d5ef-c7d4-7cab-a194-b2c3afbaf8e8","","2890","","{""Q0"":3}","5","2","surprise_rating","","[0]"
"","","","","","survey-likert","53","292043","0.0-43.0","C994CF4C95E5496EBA547FABF5C49197","0199d5ff-6542-7ade-8af6-ebaf076fff25","0199d5ef-c7d4-7cab-a194-b2c3afbaf8e8","","2393","","{""Q0"":1}","5","2","enjoyment_rating","","[0]"
"","","","","","html-keyboard-response","54","298056","0.0-44.0","C994CF4C95E5496EBA547FABF5C49197","0199d5ff-6542-7ade-8af6-ebaf076fff25","0199d5ef-c7d4-7cab-a194-b2c3afbaf8e8","","null","<div style=""display: flex; justify-content: center; align-items: center;"">
                     <img src=""images/other/blank.png"" style=""width: 300px; height: 300px;"" />
                   </div>","null","0","0","blank","",""
"","","","","","html-keyboard-response","55","304058","0.0-45.0","C994CF4C95E5496EBA547FABF5C49197","0199d5ff-6542-7ade-8af6-ebaf076fff25","0199d5ef-c7d4-7cab-a194-b2c3afbaf8e8","","null","<div style=""display: flex; justify-content: center; align-items: center;"">
                     <img src=""images/causal/causal_series_1/causal_series_1_a.png"" style=""width: 300px; height: 300px;"" />
                   </div>","null","1","2","A","",""
"","","","","","html-keyboard-response","56","310066","0.0-46.0","C994CF4C95E5496EBA547FABF5C49197","0199d5ff-6542-7ade-8af6-ebaf076fff25","0199d5ef-c7d4-7cab-a194-b2c3afbaf8e8","","null","<div style=""display: flex; justify-content: center; align-items: center;"">
                     <img src=""images/causal/causal_series_1/causal_series_1_b.png"" style=""width: 300px; height: 300px;"" />
                   </div>","null","1","2","B","",""
"","","","","","html-keyboard-response","57","316071","0.0-47.0","C994CF4C95E5496EBA547FABF5C49197","0199d5ff-6542-7ade-8af6-ebaf076fff25","0199d5ef-c7d4-7cab-a194-b2c3afbaf8e8","","null","<div style=""display: flex; justify-content: center; align-items: center;"">
                     <img src=""images/causal/causal_series_1/causal_series_1_c.png"" style=""width: 300px; height: 300px;"" />
                   </div>","null","1","2","C","",""
"","","","","","html-button-response","58","318029","0.0-48.0","C994CF4C95E5496EBA547FABF5C49197","0199d5ff-6542-7ade-8af6-ebaf076fff25","0199d5ef-c7d4-7cab-a194-b2c3afbaf8e8","","1955","
        <div style=""display: flex; justify-content: center; align-items: center;"">
          <img src=""images/red_deck_2.png"" style=""width: 300px; height: 300px; margin-right: 10px;"" />
          <img src=""images/blue_deck_1.png"" style=""width: 300px; height: 300px;"" />
        </div>","1","1","2","choice","1",""
"","","","","","html-keyboard-response","59","324045","0.0-49.0-1.0-0.0","C994CF4C95E5496EBA547FABF5C49197","0199d5ff-6542-7ade-8af6-ebaf076fff25","0199d5ef-c7d4-7cab-a194-b2c3afbaf8e8","","null","<div style=""display: flex; justify-content: center; align-items: center;"">
                     <img src=""images/semantic/semantic_series_1/semantic_series_1_d.png"" style=""width: 300px; height: 300px;"" />
                   </div>","null","1","2","D","",""
"","","","","","html-keyboard-response","60","330054","0.0-49.0-1.0-1.0","C994CF4C95E5496EBA547FABF5C49197","0199d5ff-6542-7ade-8af6-ebaf076fff25","0199d5ef-c7d4-7cab-a194-b2c3afbaf8e8","","null","<div style=""display: flex; justify-content: center; align-items: center;"">
                     <img src=""images/semantic/semantic_series_1/semantic_series_1_e.png"" style=""width: 300px; height: 300px;"" />
                   </div>","null","1","2","E","",""
"","","","","","html-keyboard-response","61","336063","0.0-49.0-1.0-2.0","C994CF4C95E5496EBA547FABF5C49197","0199d5ff-6542-7ade-8af6-ebaf076fff25","0199d5ef-c7d4-7cab-a194-b2c3afbaf8e8","","null","<div style=""display: flex; justify-content: center; align-items: center;"">
                     <img src=""images/semantic/semantic_series_1/semantic_series_1_f.png"" style=""width: 300px; height: 300px;"" />
                   </div>","null","1","2","F","",""
"","","","","","survey-likert","62","341259","0.0-50.0","C994CF4C95E5496EBA547FABF5C49197","0199d5ff-6542-7ade-8af6-ebaf076fff25","0199d5ef-c7d4-7cab-a194-b2c3afbaf8e8","","5195","","{""Q0"":1}","1","2","surprise_rating","","[0]"
"","","","","","survey-likert","63","345389","0.0-51.0","C994CF4C95E5496EBA547FABF5C49197","0199d5ff-6542-7ade-8af6-ebaf076fff25","0199d5ef-c7d4-7cab-a194-b2c3afbaf8e8","","4128","","{""Q0"":2}","1","2","enjoyment_rating","","[0]"
"","","","","","html-keyboard-response","64","351397","0.0-52.0","C994CF4C95E5496EBA547FABF5C49197","0199d5ff-6542-7ade-8af6-ebaf076fff25","0199d5ef-c7d4-7cab-a194-b2c3afbaf8e8","","null","<div style=""display: flex; justify-content: center; align-items: center;"">
                     <img src=""images/other/blank.png"" style=""width: 300px; height: 300px;"" />
                   </div>","null","0","0","blank","",""
"","","","","","html-keyboard-response","65","357407","0.0-53.0","C994CF4C95E5496EBA547FABF5C49197","0199d5ff-6542-7ade-8af6-ebaf076fff25","0199d5ef-c7d4-7cab-a194-b2c3afbaf8e8","","null","<div style=""display: flex; justify-content: center; align-items: center;"">
                     <img src=""images/causal/causal_series_4/causal_series_4_a.png"" style=""width: 300px; height: 300px;"" />
                   </div>","null","4","2","A","",""
"","","","","","html-keyboard-response","66","363413","0.0-54.0","C994CF4C95E5496EBA547FABF5C49197","0199d5ff-6542-7ade-8af6-ebaf076fff25","0199d5ef-c7d4-7cab-a194-b2c3afbaf8e8","","null","<div style=""display: flex; justify-content: center; align-items: center;"">
                     <img src=""images/causal/causal_series_4/causal_series_4_b.png"" style=""width: 300px; height: 300px;"" />
                   </div>","null","4","2","B","",""
"","","","","","html-keyboard-response","67","369429","0.0-55.0","C994CF4C95E5496EBA547FABF5C49197","0199d5ff-6542-7ade-8af6-ebaf076fff25","0199d5ef-c7d4-7cab-a194-b2c3afbaf8e8","","null","<div style=""display: flex; justify-content: center; align-items: center;"">
                     <img src=""images/causal/causal_series_4/causal_series_4_c.png"" style=""width: 300px; height: 300px;"" />
                   </div>","null","4","2","C","",""
"","","","","","html-button-response","68","370580","0.0-56.0","C994CF4C95E5496EBA547FABF5C49197","0199d5ff-6542-7ade-8af6-ebaf076fff25","0199d5ef-c7d4-7cab-a194-b2c3afbaf8e8","","1148","
        <div style=""display: flex; justify-content: center; align-items: center;"">
          <img src=""images/red_deck_2.png"" style=""width: 300px; height: 300px; margin-right: 10px;"" />
          <img src=""images/blue_deck_1.png"" style=""width: 300px; height: 300px;"" />
        </div>","0","4","2","choice","0",""
"","","","","","html-keyboard-response","69","376594","0.0-57.0-0.0-0.0","C994CF4C95E5496EBA547FABF5C49197","0199d5ff-6542-7ade-8af6-ebaf076fff25","0199d5ef-c7d4-7cab-a194-b2c3afbaf8e8","","null","<div style=""display: flex; justify-content: center; align-items: center;"">
                     <img src=""images/causal/causal_series_4/causal_series_4_d.png"" style=""width: 300px; height: 300px;"" />
                   </div>","null","4","2","D","",""
"","","","","","html-keyboard-response","70","382603","0.0-57.0-0.0-1.0","C994CF4C95E5496EBA547FABF5C49197","0199d5ff-6542-7ade-8af6-ebaf076fff25","0199d5ef-c7d4-7cab-a194-b2c3afbaf8e8","","null","<div style=""display: flex; justify-content: center; align-items: center;"">
                     <img src=""images/causal/causal_series_4/causal_series_4_e.png"" style=""width: 300px; height: 300px;"" />
                   </div>","null","4","2","E","",""
"","","","","","html-keyboard-response","71","388611","0.0-57.0-0.0-2.0","C994CF4C95E5496EBA547FABF5C49197","0199d5ff-6542-7ade-8af6-ebaf076fff25","0199d5ef-c7d4-7cab-a194-b2c3afbaf8e8","","null","<div style=""display: flex; justify-content: center; align-items: center;"">
                     <img src=""images/causal/causal_series_4/causal_series_4_f.png"" style=""width: 300px; height: 300px;"" />
                   </div>","null","4","2","F","",""
"","","","","","survey-likert","72","394692","0.0-58.0","C994CF4C95E5496EBA547FABF5C49197","0199d5ff-6542-7ade-8af6-ebaf076fff25","0199d5ef-c7d4-7cab-a194-b2c3afbaf8e8","","6080","","{""Q0"":3}","4","2","surprise_rating","","[0]"
"","","","","","survey-likert","73","397342","0.0-59.0","C994CF4C95E5496EBA547FABF5C49197","0199d5ff-6542-7ade-8af6-ebaf076fff25","0199d5ef-c7d4-7cab-a194-b2c3afbaf8e8","","2647","","{""Q0"":2}","4","2","enjoyment_rating","","[0]"
"","","","","","html-keyboard-response","74","403362","0.0-60.0","C994CF4C95E5496EBA547FABF5C49197","0199d5ff-6542-7ade-8af6-ebaf076fff25","0199d5ef-c7d4-7cab-a194-b2c3afbaf8e8","","null","<div style=""display: flex; justify-content: center; align-items: center;"">
                     <img src=""images/other/blank.png"" style=""width: 300px; height: 300px;"" />
                   </div>","null","0","0","blank","",""
"","","","","","html-keyboard-response","75","409363","0.0-61.0","C994CF4C95E5496EBA547FABF5C49197","0199d5ff-6542-7ade-8af6-ebaf076fff25","0199d5ef-c7d4-7cab-a194-b2c3afbaf8e8","","null","<div style=""display: flex; justify-content: center; align-items: center;"">
                     <img src=""images/causal/causal_series_10/causal_series_10_a.png"" style=""width: 300px; height: 300px;"" />
                   </div>","null","10","1","A","",""
"","","","","","html-keyboard-response","76","415375","0.0-62.0","C994CF4C95E5496EBA547FABF5C49197","0199d5ff-6542-7ade-8af6-ebaf076fff25","0199d5ef-c7d4-7cab-a194-b2c3afbaf8e8","","null","<div style=""display: flex; justify-content: center; align-items: center;"">
                     <img src=""images/causal/causal_series_10/causal_series_10_b.png"" style=""width: 300px; height: 300px;"" />
                   </div>","null","10","1","B","",""
"","","","","","html-keyboard-response","77","421386","0.0-63.0","C994CF4C95E5496EBA547FABF5C49197","0199d5ff-6542-7ade-8af6-ebaf076fff25","0199d5ef-c7d4-7cab-a194-b2c3afbaf8e8","","null","<div style=""display: flex; justify-content: center; align-items: center;"">
                     <img src=""images/causal/causal_series_10/causal_series_10_c.png"" style=""width: 300px; height: 300px;"" />
                   </div>","null","10","1","C","",""
"","","","","","html-button-response","78","422916","0.0-64.0","C994CF4C95E5496EBA547FABF5C49197","0199d5ff-6542-7ade-8af6-ebaf076fff25","0199d5ef-c7d4-7cab-a194-b2c3afbaf8e8","","1528","
        <div style=""display: flex; justify-content: center; align-items: center;"">
          <img src=""images/red_deck_2.png"" style=""width: 300px; height: 300px; margin-right: 10px;"" />
          <img src=""images/blue_deck_1.png"" style=""width: 300px; height: 300px;"" />
        </div>","1","10","1","choice","1",""
"","","","","","html-keyboard-response","79","428920","0.0-65.0-1.0-0.0","C994CF4C95E5496EBA547FABF5C49197","0199d5ff-6542-7ade-8af6-ebaf076fff25","0199d5ef-c7d4-7cab-a194-b2c3afbaf8e8","","null","<div style=""display: flex; justify-content: center; align-items: center;"">
                     <img src=""images/semantic/semantic_series_10/semantic_series_10_d.png"" style=""width: 300px; height: 300px;"" />
                   </div>","null","10","1","D","",""
"","","","","","html-keyboard-response","80","434936","0.0-65.0-1.0-1.0","C994CF4C95E5496EBA547FABF5C49197","0199d5ff-6542-7ade-8af6-ebaf076fff25","0199d5ef-c7d4-7cab-a194-b2c3afbaf8e8","","null","<div style=""display: flex; justify-content: center; align-items: center;"">
                     <img src=""images/semantic/semantic_series_10/semantic_series_10_e.png"" style=""width: 300px; height: 300px;"" />
                   </div>","null","10","1","E","",""
"","","","","","html-keyboard-response","81","440945","0.0-65.0-1.0-2.0","C994CF4C95E5496EBA547FABF5C49197","0199d5ff-6542-7ade-8af6-ebaf076fff25","0199d5ef-c7d4-7cab-a194-b2c3afbaf8e8","","null","<div style=""display: flex; justify-content: center; align-items: center;"">
                     <img src=""images/semantic/semantic_series_10/semantic_series_10_f.png"" style=""width: 300px; height: 300px;"" />
                   </div>","null","10","1","F","",""
"","","","","","survey-likert","82","446299","0.0-66.0","C994CF4C95E5496EBA547FABF5C49197","0199d5ff-6542-7ade-8af6-ebaf076fff25","0199d5ef-c7d4-7cab-a194-b2c3afbaf8e8","","5353","","{""Q0"":2}","10","1","surprise_rating","","[0]"
"","","","","","survey-likert","83","451224","0.0-67.0","C994CF4C95E5496EBA547FABF5C49197","0199d5ff-6542-7ade-8af6-ebaf076fff25","0199d5ef-c7d4-7cab-a194-b2c3afbaf8e8","","4923","","{""Q0"":1}","10","1","enjoyment_rating","","[0]"
"","","","","","html-keyboard-response","84","457236","0.0-68.0","C994CF4C95E5496EBA547FABF5C49197","0199d5ff-6542-7ade-8af6-ebaf076fff25","0199d5ef-c7d4-7cab-a194-b2c3afbaf8e8","","null","<div style=""display: flex; justify-content: center; align-items: center;"">
                     <img src=""images/other/blank.png"" style=""width: 300px; height: 300px;"" />
                   </div>","null","0","0","blank","",""
"","","","","","html-keyboard-response","85","463241","0.0-69.0","C994CF4C95E5496EBA547FABF5C49197","0199d5ff-6542-7ade-8af6-ebaf076fff25","0199d5ef-c7d4-7cab-a194-b2c3afbaf8e8","","null","<div style=""display: flex; justify-content: center; align-items: center;"">
                     <img src=""images/causal/causal_series_7/causal_series_7_a.png"" style=""width: 300px; height: 300px;"" />
                   </div>","null","7","2","A","",""
"","","","","","html-keyboard-response","86","469245","0.0-70.0","C994CF4C95E5496EBA547FABF5C49197","0199d5ff-6542-7ade-8af6-ebaf076fff25","0199d5ef-c7d4-7cab-a194-b2c3afbaf8e8","","null","<div style=""display: flex; justify-content: center; align-items: center;"">
                     <img src=""images/causal/causal_series_7/causal_series_7_b.png"" style=""width: 300px; height: 300px;"" />
                   </div>","null","7","2","B","",""
"","","","","","html-keyboard-response","87","475248","0.0-71.0","C994CF4C95E5496EBA547FABF5C49197","0199d5ff-6542-7ade-8af6-ebaf076fff25","0199d5ef-c7d4-7cab-a194-b2c3afbaf8e8","","null","<div style=""display: flex; justify-content: center; align-items: center;"">
                     <img src=""images/causal/causal_series_7/causal_series_7_c.png"" style=""width: 300px; height: 300px;"" />
                   </div>","null","7","2","C","",""
"","","","","","html-button-response","88","478180","0.0-72.0","C994CF4C95E5496EBA547FABF5C49197","0199d5ff-6542-7ade-8af6-ebaf076fff25","0199d5ef-c7d4-7cab-a194-b2c3afbaf8e8","","2931","
        <div style=""display: flex; justify-content: center; align-items: center;"">
          <img src=""images/red_deck_2.png"" style=""width: 300px; height: 300px; margin-right: 10px;"" />
          <img src=""images/blue_deck_1.png"" style=""width: 300px; height: 300px;"" />
        </div>","0","7","2","choice","0",""
"","","","","","html-keyboard-response","89","484183","0.0-73.0-0.0-0.0","C994CF4C95E5496EBA547FABF5C49197","0199d5ff-6542-7ade-8af6-ebaf076fff25","0199d5ef-c7d4-7cab-a194-b2c3afbaf8e8","","null","<div style=""display: flex; justify-content: center; align-items: center;"">
                     <img src=""images/causal/causal_series_7/causal_series_7_d.png"" style=""width: 300px; height: 300px;"" />
                   </div>","null","7","2","D","",""
"","","","","","html-keyboard-response","90","490197","0.0-73.0-0.0-1.0","C994CF4C95E5496EBA547FABF5C49197","0199d5ff-6542-7ade-8af6-ebaf076fff25","0199d5ef-c7d4-7cab-a194-b2c3afbaf8e8","","null","<div style=""display: flex; justify-content: center; align-items: center;"">
                     <img src=""images/causal/causal_series_7/causal_series_7_e.png"" style=""width: 300px; height: 300px;"" />
                   </div>","null","7","2","E","",""
"","","","","","html-keyboard-response","91","496207","0.0-73.0-0.0-2.0","C994CF4C95E5496EBA547FABF5C49197","0199d5ff-6542-7ade-8af6-ebaf076fff25","0199d5ef-c7d4-7cab-a194-b2c3afbaf8e8","","null","<div style=""display: flex; justify-content: center; align-items: center;"">
                     <img src=""images/causal/causal_series_7/causal_series_7_f.png"" style=""width: 300px; height: 300px;"" />
                   </div>","null","7","2","F","",""
"","","","","","survey-likert","92","502450","0.0-74.0","C994CF4C95E5496EBA547FABF5C49197","0199d5ff-6542-7ade-8af6-ebaf076fff25","0199d5ef-c7d4-7cab-a194-b2c3afbaf8e8","","6240","","{""Q0"":3}","7","2","surprise_rating","","[0]"
"","","","","","survey-likert","93","504882","0.0-75.0","C994CF4C95E5496EBA547FABF5C49197","0199d5ff-6542-7ade-8af6-ebaf076fff25","0199d5ef-c7d4-7cab-a194-b2c3afbaf8e8","","2430","","{""Q0"":3}","7","2","enjoyment_rating","","[0]"
"","","","","","html-keyboard-response","94","510887","0.0-76.0","C994CF4C95E5496EBA547FABF5C49197","0199d5ff-6542-7ade-8af6-ebaf076fff25","0199d5ef-c7d4-7cab-a194-b2c3afbaf8e8","","null","<div style=""display: flex; justify-content: center; align-items: center;"">
                     <img src=""images/other/blank.png"" style=""width: 300px; height: 300px;"" />
                   </div>","null","0","0","blank","",""
"","","","","","html-keyboard-response","95","516904","0.0-77.0","C994CF4C95E5496EBA547FABF5C49197","0199d5ff-6542-7ade-8af6-ebaf076fff25","0199d5ef-c7d4-7cab-a194-b2c3afbaf8e8","","null","<div style=""display: flex; justify-content: center; align-items: center;"">
                     <img src=""images/causal/causal_series_3/causal_series_3_a.png"" style=""width: 300px; height: 300px;"" />
                   </div>","null","3","2","A","",""
"","","","","","html-keyboard-response","96","522912","0.0-78.0","C994CF4C95E5496EBA547FABF5C49197","0199d5ff-6542-7ade-8af6-ebaf076fff25","0199d5ef-c7d4-7cab-a194-b2c3afbaf8e8","","null","<div style=""display: flex; justify-content: center; align-items: center;"">
                     <img src=""images/causal/causal_series_3/causal_series_3_b.png"" style=""width: 300px; height: 300px;"" />
                   </div>","null","3","2","B","",""
"","","","","","html-keyboard-response","97","528925","0.0-79.0","C994CF4C95E5496EBA547FABF5C49197","0199d5ff-6542-7ade-8af6-ebaf076fff25","0199d5ef-c7d4-7cab-a194-b2c3afbaf8e8","","null","<div style=""display: flex; justify-content: center; align-items: center;"">
                     <img src=""images/causal/causal_series_3/causal_series_3_c.png"" style=""width: 300px; height: 300px;"" />
                   </div>","null","3","2","C","",""
"","","","","","html-button-response","98","530956","0.0-80.0","C994CF4C95E5496EBA547FABF5C49197","0199d5ff-6542-7ade-8af6-ebaf076fff25","0199d5ef-c7d4-7cab-a194-b2c3afbaf8e8","","2028","
        <div style=""display: flex; justify-content: center; align-items: center;"">
          <img src=""images/red_deck_2.png"" style=""width: 300px; height: 300px; margin-right: 10px;"" />
          <img src=""images/blue_deck_1.png"" style=""width: 300px; height: 300px;"" />
        </div>","1","3","2","choice","1",""
"","","","","","html-keyboard-response","99","536968","0.0-81.0-1.0-0.0","C994CF4C95E5496EBA547FABF5C49197","0199d5ff-6542-7ade-8af6-ebaf076fff25","0199d5ef-c7d4-7cab-a194-b2c3afbaf8e8","","null","<div style=""display: flex; justify-content: center; align-items: center;"">
                     <img src=""images/semantic/semantic_series_3/semantic_series_3_d.png"" style=""width: 300px; height: 300px;"" />
                   </div>","null","3","2","D","",""
"","","","","","html-keyboard-response","100","542973","0.0-81.0-1.0-1.0","C994CF4C95E5496EBA547FABF5C49197","0199d5ff-6542-7ade-8af6-ebaf076fff25","0199d5ef-c7d4-7cab-a194-b2c3afbaf8e8","","null","<div style=""display: flex; justify-content: center; align-items: center;"">
                     <img src=""images/semantic/semantic_series_3/semantic_series_3_e.png"" style=""width: 300px; height: 300px;"" />
                   </div>","null","3","2","E","",""
"","","","","","html-keyboard-response","101","548978","0.0-81.0-1.0-2.0","C994CF4C95E5496EBA547FABF5C49197","0199d5ff-6542-7ade-8af6-ebaf076fff25","0199d5ef-c7d4-7cab-a194-b2c3afbaf8e8","","null","<div style=""display: flex; justify-content: center; align-items: center;"">
                     <img src=""images/semantic/semantic_series_3/semantic_series_3_f.png"" style=""width: 300px; height: 300px;"" />
                   </div>","null","3","2","F","",""
"","","","","","survey-likert","102","551344","0.0-82.0","C994CF4C95E5496EBA547FABF5C49197","0199d5ff-6542-7ade-8af6-ebaf076fff25","0199d5ef-c7d4-7cab-a194-b2c3afbaf8e8","","2365","","{""Q0"":3}","3","2","surprise_rating","","[0]"
"","","","","","survey-likert","103","554351","0.0-83.0","C994CF4C95E5496EBA547FABF5C49197","0199d5ff-6542-7ade-8af6-ebaf076fff25","0199d5ef-c7d4-7cab-a194-b2c3afbaf8e8","","3005","","{""Q0"":0}","3","2","enjoyment_rating","","[0]"
"","","","","","html-keyboard-response","104","560360","0.0-84.0","C994CF4C95E5496EBA547FABF5C49197","0199d5ff-6542-7ade-8af6-ebaf076fff25","0199d5ef-c7d4-7cab-a194-b2c3afbaf8e8","","null","<div style=""display: flex; justify-content: center; align-items: center;"">
                     <img src=""images/other/blank.png"" style=""width: 300px; height: 300px;"" />
                   </div>","null","0","0","blank","",""
"","","","","","html-keyboard-response","105","566361","0.0-85.0","C994CF4C95E5496EBA547FABF5C49197","0199d5ff-6542-7ade-8af6-ebaf076fff25","0199d5ef-c7d4-7cab-a194-b2c3afbaf8e8","","null","<div style=""display: flex; justify-content: center; align-items: center;"">
                     <img src=""images/causal/causal_series_9/causal_series_9_a.png"" style=""width: 300px; height: 300px;"" />
                   </div>","null","9","2","A","",""
"","","","","","html-keyboard-response","106","572376","0.0-86.0","C994CF4C95E5496EBA547FABF5C49197","0199d5ff-6542-7ade-8af6-ebaf076fff25","0199d5ef-c7d4-7cab-a194-b2c3afbaf8e8","","null","<div style=""display: flex; justify-content: center; align-items: center;"">
                     <img src=""images/causal/causal_series_9/causal_series_9_b.png"" style=""width: 300px; height: 300px;"" />
                   </div>","null","9","2","B","",""
"","","","","","html-keyboard-response","107","578388","0.0-87.0","C994CF4C95E5496EBA547FABF5C49197","0199d5ff-6542-7ade-8af6-ebaf076fff25","0199d5ef-c7d4-7cab-a194-b2c3afbaf8e8","","null","<div style=""display: flex; justify-content: center; align-items: center;"">
                     <img src=""images/causal/causal_series_9/causal_series_9_c.png"" style=""width: 300px; height: 300px;"" />
                   </div>","null","9","2","C","",""
"","","","","","html-button-response","108","581156","0.0-88.0","C994CF4C95E5496EBA547FABF5C49197","0199d5ff-6542-7ade-8af6-ebaf076fff25","0199d5ef-c7d4-7cab-a194-b2c3afbaf8e8","","2767","
        <div style=""display: flex; justify-content: center; align-items: center;"">
          <img src=""images/red_deck_2.png"" style=""width: 300px; height: 300px; margin-right: 10px;"" />
          <img src=""images/blue_deck_1.png"" style=""width: 300px; height: 300px;"" />
        </div>","0","9","2","choice","0",""
"","","","","","html-keyboard-response","109","587168","0.0-89.0-0.0-0.0","C994CF4C95E5496EBA547FABF5C49197","0199d5ff-6542-7ade-8af6-ebaf076fff25","0199d5ef-c7d4-7cab-a194-b2c3afbaf8e8","","null","<div style=""display: flex; justify-content: center; align-items: center;"">
                     <img src=""images/causal/causal_series_9/causal_series_9_d.png"" style=""width: 300px; height: 300px;"" />
                   </div>","null","9","2","D","",""
"","","","","","html-keyboard-response","110","593173","0.0-89.0-0.0-1.0","C994CF4C95E5496EBA547FABF5C49197","0199d5ff-6542-7ade-8af6-ebaf076fff25","0199d5ef-c7d4-7cab-a194-b2c3afbaf8e8","","null","<div style=""display: flex; justify-content: center; align-items: center;"">
                     <img src=""images/causal/causal_series_9/causal_series_9_e.png"" style=""width: 300px; height: 300px;"" />
                   </div>","null","9","2","E","",""
"","","","","","html-keyboard-response","111","599184","0.0-89.0-0.0-2.0","C994CF4C95E5496EBA547FABF5C49197","0199d5ff-6542-7ade-8af6-ebaf076fff25","0199d5ef-c7d4-7cab-a194-b2c3afbaf8e8","","null","<div style=""display: flex; justify-content: center; align-items: center;"">
                     <img src=""images/causal/causal_series_9/causal_series_9_f.png"" style=""width: 300px; height: 300px;"" />
                   </div>","null","9","2","F","",""
"","","","","","survey-likert","112","607077","0.0-90.0","C994CF4C95E5496EBA547FABF5C49197","0199d5ff-6542-7ade-8af6-ebaf076fff25","0199d5ef-c7d4-7cab-a194-b2c3afbaf8e8","","7891","","{""Q0"":2}","9","2","surprise_rating","","[0]"
"","","","","","survey-likert","113","610035","0.0-91.0","C994CF4C95E5496EBA547FABF5C49197","0199d5ff-6542-7ade-8af6-ebaf076fff25","0199d5ef-c7d4-7cab-a194-b2c3afbaf8e8","","2956","","{""Q0"":3}","9","2","enjoyment_rating","","[0]"
"","","","","","html-keyboard-response","114","616048","0.0-92.0","C994CF4C95E5496EBA547FABF5C49197","0199d5ff-6542-7ade-8af6-ebaf076fff25","0199d5ef-c7d4-7cab-a194-b2c3afbaf8e8","","null","<div style=""display: flex; justify-content: center; align-items: center;"">
                     <img src=""images/other/blank.png"" style=""width: 300px; height: 300px;"" />
                   </div>","null","0","0","blank","",""
"","","","","","html-keyboard-response","115","622063","0.0-93.0","C994CF4C95E5496EBA547FABF5C49197","0199d5ff-6542-7ade-8af6-ebaf076fff25","0199d5ef-c7d4-7cab-a194-b2c3afbaf8e8","","null","<div style=""display: flex; justify-content: center; align-items: center;"">
                     <img src=""images/causal/causal_series_4/causal_series_4_a.png"" style=""width: 300px; height: 300px;"" />
                   </div>","null","4","1","A","",""
"","","","","","html-keyboard-response","116","628068","0.0-94.0","C994CF4C95E5496EBA547FABF5C49197","0199d5ff-6542-7ade-8af6-ebaf076fff25","0199d5ef-c7d4-7cab-a194-b2c3afbaf8e8","","null","<div style=""display: flex; justify-content: center; align-items: center;"">
                     <img src=""images/causal/causal_series_4/causal_series_4_b.png"" style=""width: 300px; height: 300px;"" />
                   </div>","null","4","1","B","",""
"","","","","","html-keyboard-response","117","634070","0.0-95.0","C994CF4C95E5496EBA547FABF5C49197","0199d5ff-6542-7ade-8af6-ebaf076fff25","0199d5ef-c7d4-7cab-a194-b2c3afbaf8e8","","null","<div style=""display: flex; justify-content: center; align-items: center;"">
                     <img src=""images/causal/causal_series_4/causal_series_4_c.png"" style=""width: 300px; height: 300px;"" />
                   </div>","null","4","1","C","",""
"","","","","","html-button-response","118","636517","0.0-96.0","C994CF4C95E5496EBA547FABF5C49197","0199d5ff-6542-7ade-8af6-ebaf076fff25","0199d5ef-c7d4-7cab-a194-b2c3afbaf8e8","","2446","
        <div style=""display: flex; justify-content: center; align-items: center;"">
          <img src=""images/red_deck_2.png"" style=""width: 300px; height: 300px; margin-right: 10px;"" />
          <img src=""images/blue_deck_1.png"" style=""width: 300px; height: 300px;"" />
        </div>","1","4","1","choice","1",""
"","","","","","html-keyboard-response","119","642525","0.0-97.0-1.0-0.0","C994CF4C95E5496EBA547FABF5C49197","0199d5ff-6542-7ade-8af6-ebaf076fff25","0199d5ef-c7d4-7cab-a194-b2c3afbaf8e8","","null","<div style=""display: flex; justify-content: center; align-items: center;"">
                     <img src=""images/semantic/semantic_series_4/semantic_series_4_d.png"" style=""width: 300px; height: 300px;"" />
                   </div>","null","4","1","D","",""
"","","","","","html-keyboard-response","120","648539","0.0-97.0-1.0-1.0","C994CF4C95E5496EBA547FABF5C49197","0199d5ff-6542-7ade-8af6-ebaf076fff25","0199d5ef-c7d4-7cab-a194-b2c3afbaf8e8","","null","<div style=""display: flex; justify-content: center; align-items: center;"">
                     <img src=""images/semantic/semantic_series_4/semantic_series_4_e.png"" style=""width: 300px; height: 300px;"" />
                   </div>","null","4","1","E","",""
"","","","","","html-keyboard-response","121","654548","0.0-97.0-1.0-2.0","C994CF4C95E5496EBA547FABF5C49197","0199d5ff-6542-7ade-8af6-ebaf076fff25","0199d5ef-c7d4-7cab-a194-b2c3afbaf8e8","","null","<div style=""display: flex; justify-content: center; align-items: center;"">
                     <img src=""images/semantic/semantic_series_4/semantic_series_4_f.png"" style=""width: 300px; height: 300px;"" />
                   </div>","null","4","1","F","",""
"","","","","","survey-likert","122","660230","0.0-98.0","C994CF4C95E5496EBA547FABF5C49197","0199d5ff-6542-7ade-8af6-ebaf076fff25","0199d5ef-c7d4-7cab-a194-b2c3afbaf8e8","","5680","","{""Q0"":2}","4","1","surprise_rating","","[0]"
"","","","","","survey-likert","123","665274","0.0-99.0","C994CF4C95E5496EBA547FABF5C49197","0199d5ff-6542-7ade-8af6-ebaf076fff25","0199d5ef-c7d4-7cab-a194-b2c3afbaf8e8","","5042","","{""Q0"":0}","4","1","enjoyment_rating","","[0]"
"","","","","","html-keyboard-response","124","671291","0.0-100.0","C994CF4C95E5496EBA547FABF5C49197","0199d5ff-6542-7ade-8af6-ebaf076fff25","0199d5ef-c7d4-7cab-a194-b2c3afbaf8e8","","null","<div style=""display: flex; justify-content: center; align-items: center;"">
                     <img src=""images/other/blank.png"" style=""width: 300px; height: 300px;"" />
                   </div>","null","0","0","blank","",""
"","","","","","html-keyboard-response","125","677300","0.0-101.0","C994CF4C95E5496EBA547FABF5C49197","0199d5ff-6542-7ade-8af6-ebaf076fff25","0199d5ef-c7d4-7cab-a194-b2c3afbaf8e8","","null","<div style=""display: flex; justify-content: center; align-items: center;"">
                     <img src=""images/causal/causal_series_6/causal_series_6_a.png"" style=""width: 300px; height: 300px;"" />
                   </div>","null","6","1","A","",""
"","","","","","html-keyboard-response","126","683302","0.0-102.0","C994CF4C95E5496EBA547FABF5C49197","0199d5ff-6542-7ade-8af6-ebaf076fff25","0199d5ef-c7d4-7cab-a194-b2c3afbaf8e8","","null","<div style=""display: flex; justify-content: center; align-items: center;"">
                     <img src=""images/causal/causal_series_6/causal_series_6_b.png"" style=""width: 300px; height: 300px;"" />
                   </div>","null","6","1","B","",""
"","","","","","html-keyboard-response","127","689315","0.0-103.0","C994CF4C95E5496EBA547FABF5C49197","0199d5ff-6542-7ade-8af6-ebaf076fff25","0199d5ef-c7d4-7cab-a194-b2c3afbaf8e8","","null","<div style=""display: flex; justify-content: center; align-items: center;"">
                     <img src=""images/causal/causal_series_6/causal_series_6_c.png"" style=""width: 300px; height: 300px;"" />
                   </div>","null","6","1","C","",""
"","","","","","html-button-response","128","690625","0.0-104.0","C994CF4C95E5496EBA547FABF5C49197","0199d5ff-6542-7ade-8af6-ebaf076fff25","0199d5ef-c7d4-7cab-a194-b2c3afbaf8e8","","1309","
        <div style=""display: flex; justify-content: center; align-items: center;"">
          <img src=""images/red_deck_2.png"" style=""width: 300px; height: 300px; margin-right: 10px;"" />
          <img src=""images/blue_deck_1.png"" style=""width: 300px; height: 300px;"" />
        </div>","0","6","1","choice","0",""
"","","","","","html-keyboard-response","129","696631","0.0-105.0-0.0-0.0","C994CF4C95E5496EBA547FABF5C49197","0199d5ff-6542-7ade-8af6-ebaf076fff25","0199d5ef-c7d4-7cab-a194-b2c3afbaf8e8","","null","<div style=""display: flex; justify-content: center; align-items: center;"">
                     <img src=""images/causal/causal_series_6/causal_series_6_d.png"" style=""width: 300px; height: 300px;"" />
                   </div>","null","6","1","D","",""
"","","","","","html-keyboard-response","130","702645","0.0-105.0-0.0-1.0","C994CF4C95E5496EBA547FABF5C49197","0199d5ff-6542-7ade-8af6-ebaf076fff25","0199d5ef-c7d4-7cab-a194-b2c3afbaf8e8","","null","<div style=""display: flex; justify-content: center; align-items: center;"">
                     <img src=""images/causal/causal_series_6/causal_series_6_e.png"" style=""width: 300px; height: 300px;"" />
                   </div>","null","6","1","E","",""
"","","","","","html-keyboard-response","131","708658","0.0-105.0-0.0-2.0","C994CF4C95E5496EBA547FABF5C49197","0199d5ff-6542-7ade-8af6-ebaf076fff25","0199d5ef-c7d4-7cab-a194-b2c3afbaf8e8","","null","<div style=""display: flex; justify-content: center; align-items: center;"">
                     <img src=""images/causal/causal_series_6/causal_series_6_f.png"" style=""width: 300px; height: 300px;"" />
                   </div>","null","6","1","F","",""
"","","","","","survey-likert","132","714304","0.0-106.0","C994CF4C95E5496EBA547FABF5C49197","0199d5ff-6542-7ade-8af6-ebaf076fff25","0199d5ef-c7d4-7cab-a194-b2c3afbaf8e8","","5645","","{""Q0"":3}","6","1","surprise_rating","","[0]"
"","","","","","survey-likert","133","717280","0.0-107.0","C994CF4C95E5496EBA547FABF5C49197","0199d5ff-6542-7ade-8af6-ebaf076fff25","0199d5ef-c7d4-7cab-a194-b2c3afbaf8e8","","2974","","{""Q0"":3}","6","1","enjoyment_rating","","[0]"
"","","","","","html-keyboard-response","134","723292","0.0-108.0","C994CF4C95E5496EBA547FABF5C49197","0199d5ff-6542-7ade-8af6-ebaf076fff25","0199d5ef-c7d4-7cab-a194-b2c3afbaf8e8","","null","<div style=""display: flex; justify-content: center; align-items: center;"">
                     <img src=""images/other/blank.png"" style=""width: 300px; height: 300px;"" />
                   </div>","null","0","0","blank","",""
"","","","","","html-keyboard-response","135","729298","0.0-109.0","C994CF4C95E5496EBA547FABF5C49197","0199d5ff-6542-7ade-8af6-ebaf076fff25","0199d5ef-c7d4-7cab-a194-b2c3afbaf8e8","","null","<div style=""display: flex; justify-content: center; align-items: center;"">
                     <img src=""images/causal/causal_series_2/causal_series_2_a.png"" style=""width: 300px; height: 300px;"" />
                   </div>","null","2","2","A","",""
"","","","","","html-keyboard-response","136","735311","0.0-110.0","C994CF4C95E5496EBA547FABF5C49197","0199d5ff-6542-7ade-8af6-ebaf076fff25","0199d5ef-c7d4-7cab-a194-b2c3afbaf8e8","","null","<div style=""display: flex; justify-content: center; align-items: center;"">
                     <img src=""images/causal/causal_series_2/causal_series_2_b.png"" style=""width: 300px; height: 300px;"" />
                   </div>","null","2","2","B","",""
"","","","","","html-keyboard-response","137","741321","0.0-111.0","C994CF4C95E5496EBA547FABF5C49197","0199d5ff-6542-7ade-8af6-ebaf076fff25","0199d5ef-c7d4-7cab-a194-b2c3afbaf8e8","","null","<div style=""display: flex; justify-content: center; align-items: center;"">
                     <img src=""images/causal/causal_series_2/causal_series_2_c.png"" style=""width: 300px; height: 300px;"" />
                   </div>","null","2","2","C","",""
"","","","","","html-button-response","138","742783","0.0-112.0","C994CF4C95E5496EBA547FABF5C49197","0199d5ff-6542-7ade-8af6-ebaf076fff25","0199d5ef-c7d4-7cab-a194-b2c3afbaf8e8","","1460","
        <div style=""display: flex; justify-content: center; align-items: center;"">
          <img src=""images/red_deck_2.png"" style=""width: 300px; height: 300px; margin-right: 10px;"" />
          <img src=""images/blue_deck_1.png"" style=""width: 300px; height: 300px;"" />
        </div>","1","2","2","choice","1",""
"","","","","","html-keyboard-response","139","748797","0.0-113.0-1.0-0.0","C994CF4C95E5496EBA547FABF5C49197","0199d5ff-6542-7ade-8af6-ebaf076fff25","0199d5ef-c7d4-7cab-a194-b2c3afbaf8e8","","null","<div style=""display: flex; justify-content: center; align-items: center;"">
                     <img src=""images/semantic/semantic_series_2/semantic_series_2_d.png"" style=""width: 300px; height: 300px;"" />
                   </div>","null","2","2","D","",""
"","","","","","html-keyboard-response","140","754800","0.0-113.0-1.0-1.0","C994CF4C95E5496EBA547FABF5C49197","0199d5ff-6542-7ade-8af6-ebaf076fff25","0199d5ef-c7d4-7cab-a194-b2c3afbaf8e8","","null","<div style=""display: flex; justify-content: center; align-items: center;"">
                     <img src=""images/semantic/semantic_series_2/semantic_series_2_e.png"" style=""width: 300px; height: 300px;"" />
                   </div>","null","2","2","E","",""
"","","","","","html-keyboard-response","141","760807","0.0-113.0-1.0-2.0","C994CF4C95E5496EBA547FABF5C49197","0199d5ff-6542-7ade-8af6-ebaf076fff25","0199d5ef-c7d4-7cab-a194-b2c3afbaf8e8","","null","<div style=""display: flex; justify-content: center; align-items: center;"">
                     <img src=""images/semantic/semantic_series_2/semantic_series_2_f.png"" style=""width: 300px; height: 300px;"" />
                   </div>","null","2","2","F","",""
"","","","","","survey-likert","142","764329","0.0-114.0","C994CF4C95E5496EBA547FABF5C49197","0199d5ff-6542-7ade-8af6-ebaf076fff25","0199d5ef-c7d4-7cab-a194-b2c3afbaf8e8","","3520","","{""Q0"":1}","2","2","surprise_rating","","[0]"
"","","","","","survey-likert","143","767773","0.0-115.0","C994CF4C95E5496EBA547FABF5C49197","0199d5ff-6542-7ade-8af6-ebaf076fff25","0199d5ef-c7d4-7cab-a194-b2c3afbaf8e8","","3441","","{""Q0"":1}","2","2","enjoyment_rating","","[0]"
"","","","","","html-keyboard-response","144","773781","0.0-116.0","C994CF4C95E5496EBA547FABF5C49197","0199d5ff-6542-7ade-8af6-ebaf076fff25","0199d5ef-c7d4-7cab-a194-b2c3afbaf8e8","","null","<div style=""display: flex; justify-content: center; align-items: center;"">
                     <img src=""images/other/blank.png"" style=""width: 300px; height: 300px;"" />
                   </div>","null","0","0","blank","",""
"","","","","","html-keyboard-response","145","779784","0.0-117.0","C994CF4C95E5496EBA547FABF5C49197","0199d5ff-6542-7ade-8af6-ebaf076fff25","0199d5ef-c7d4-7cab-a194-b2c3afbaf8e8","","null","<div style=""display: flex; justify-content: center; align-items: center;"">
                     <img src=""images/causal/causal_series_1/causal_series_1_a.png"" style=""width: 300px; height: 300px;"" />
                   </div>","null","1","1","A","",""
"","","","","","html-keyboard-response","146","785795","0.0-118.0","C994CF4C95E5496EBA547FABF5C49197","0199d5ff-6542-7ade-8af6-ebaf076fff25","0199d5ef-c7d4-7cab-a194-b2c3afbaf8e8","","null","<div style=""display: flex; justify-content: center; align-items: center;"">
                     <img src=""images/causal/causal_series_1/causal_series_1_b.png"" style=""width: 300px; height: 300px;"" />
                   </div>","null","1","1","B","",""
"","","","","","html-keyboard-response","147","791806","0.0-119.0","C994CF4C95E5496EBA547FABF5C49197","0199d5ff-6542-7ade-8af6-ebaf076fff25","0199d5ef-c7d4-7cab-a194-b2c3afbaf8e8","","null","<div style=""display: flex; justify-content: center; align-items: center;"">
                     <img src=""images/causal/causal_series_1/causal_series_1_c.png"" style=""width: 300px; height: 300px;"" />
                   </div>","null","1","1","C","",""
"","","","","","html-button-response","148","795243","0.0-120.0","C994CF4C95E5496EBA547FABF5C49197","0199d5ff-6542-7ade-8af6-ebaf076fff25","0199d5ef-c7d4-7cab-a194-b2c3afbaf8e8","","3436","
        <div style=""display: flex; justify-content: center; align-items: center;"">
          <img src=""images/red_deck_2.png"" style=""width: 300px; height: 300px; margin-right: 10px;"" />
          <img src=""images/blue_deck_1.png"" style=""width: 300px; height: 300px;"" />
        </div>","0","1","1","choice","0",""
"","","","","","html-keyboard-response","149","801259","0.0-121.0-0.0-0.0","C994CF4C95E5496EBA547FABF5C49197","0199d5ff-6542-7ade-8af6-ebaf076fff25","0199d5ef-c7d4-7cab-a194-b2c3afbaf8e8","","null","<div style=""display: flex; justify-content: center; align-items: center;"">
                     <img src=""images/causal/causal_series_1/causal_series_1_d.png"" style=""width: 300px; height: 300px;"" />
                   </div>","null","1","1","D","",""
"","","","","","html-keyboard-response","150","807274","0.0-121.0-0.0-1.0","C994CF4C95E5496EBA547FABF5C49197","0199d5ff-6542-7ade-8af6-ebaf076fff25","0199d5ef-c7d4-7cab-a194-b2c3afbaf8e8","","null","<div style=""display: flex; justify-content: center; align-items: center;"">
                     <img src=""images/causal/causal_series_1/causal_series_1_e.png"" style=""width: 300px; height: 300px;"" />
                   </div>","null","1","1","E","",""
"","","","","","html-keyboard-response","151","813275","0.0-121.0-0.0-2.0","C994CF4C95E5496EBA547FABF5C49197","0199d5ff-6542-7ade-8af6-ebaf076fff25","0199d5ef-c7d4-7cab-a194-b2c3afbaf8e8","","null","<div style=""display: flex; justify-content: center; align-items: center;"">
                     <img src=""images/causal/causal_series_1/causal_series_1_f.png"" style=""width: 300px; height: 300px;"" />
                   </div>","null","1","1","F","",""
"","","","","","survey-likert","152","816578","0.0-122.0","C994CF4C95E5496EBA547FABF5C49197","0199d5ff-6542-7ade-8af6-ebaf076fff25","0199d5ef-c7d4-7cab-a194-b2c3afbaf8e8","","3301","","{""Q0"":2}","1","1","surprise_rating","","[0]"
"","","","","","survey-likert","153","819015","0.0-123.0","C994CF4C95E5496EBA547FABF5C49197","0199d5ff-6542-7ade-8af6-ebaf076fff25","0199d5ef-c7d4-7cab-a194-b2c3afbaf8e8","","2434","","{""Q0"":3}","1","1","enjoyment_rating","","[0]"
"","","","","","html-keyboard-response","154","825023","0.0-124.0","C994CF4C95E5496EBA547FABF5C49197","0199d5ff-6542-7ade-8af6-ebaf076fff25","0199d5ef-c7d4-7cab-a194-b2c3afbaf8e8","","null","<div style=""display: flex; justify-content: center; align-items: center;"">
                     <img src=""images/other/blank.png"" style=""width: 300px; height: 300px;"" />
                   </div>","null","0","0","blank","",""
"","","","","","html-keyboard-response","155","831040","0.0-125.0","C994CF4C95E5496EBA547FABF5C49197","0199d5ff-6542-7ade-8af6-ebaf076fff25","0199d5ef-c7d4-7cab-a194-b2c3afbaf8e8","","null","<div style=""display: flex; justify-content: center; align-items: center;"">
                     <img src=""images/causal/causal_series_9/causal_series_9_a.png"" style=""width: 300px; height: 300px;"" />
                   </div>","null","9","1","A","",""
"","","","","","html-keyboard-response","156","837052","0.0-126.0","C994CF4C95E5496EBA547FABF5C49197","0199d5ff-6542-7ade-8af6-ebaf076fff25","0199d5ef-c7d4-7cab-a194-b2c3afbaf8e8","","null","<div style=""display: flex; justify-content: center; align-items: center;"">
                     <img src=""images/causal/causal_series_9/causal_series_9_b.png"" style=""width: 300px; height: 300px;"" />
                   </div>","null","9","1","B","",""
"","","","","","html-keyboard-response","157","843056","0.0-127.0","C994CF4C95E5496EBA547FABF5C49197","0199d5ff-6542-7ade-8af6-ebaf076fff25","0199d5ef-c7d4-7cab-a194-b2c3afbaf8e8","","null","<div style=""display: flex; justify-content: center; align-items: center;"">
                     <img src=""images/causal/causal_series_9/causal_series_9_c.png"" style=""width: 300px; height: 300px;"" />
                   </div>","null","9","1","C","",""
"","","","","","html-button-response","158","845593","0.0-128.0","C994CF4C95E5496EBA547FABF5C49197","0199d5ff-6542-7ade-8af6-ebaf076fff25","0199d5ef-c7d4-7cab-a194-b2c3afbaf8e8","","2536","
        <div style=""display: flex; justify-content: center; align-items: center;"">
          <img src=""images/red_deck_2.png"" style=""width: 300px; height: 300px; margin-right: 10px;"" />
          <img src=""images/blue_deck_1.png"" style=""width: 300px; height: 300px;"" />
        </div>","1","9","1","choice","1",""
"","","","","","html-keyboard-response","159","851607","0.0-129.0-1.0-0.0","C994CF4C95E5496EBA547FABF5C49197","0199d5ff-6542-7ade-8af6-ebaf076fff25","0199d5ef-c7d4-7cab-a194-b2c3afbaf8e8","","null","<div style=""display: flex; justify-content: center; align-items: center;"">
                     <img src=""images/semantic/semantic_series_9/semantic_series_9_d.png"" style=""width: 300px; height: 300px;"" />
                   </div>","null","9","1","D","",""
"","","","","","html-keyboard-response","160","857613","0.0-129.0-1.0-1.0","C994CF4C95E5496EBA547FABF5C49197","0199d5ff-6542-7ade-8af6-ebaf076fff25","0199d5ef-c7d4-7cab-a194-b2c3afbaf8e8","","null","<div style=""display: flex; justify-content: center; align-items: center;"">
                     <img src=""images/semantic/semantic_series_9/semantic_series_9_e.png"" style=""width: 300px; height: 300px;"" />
                   </div>","null","9","1","E","",""
"","","","","","html-keyboard-response","161","863621","0.0-129.0-1.0-2.0","C994CF4C95E5496EBA547FABF5C49197","0199d5ff-6542-7ade-8af6-ebaf076fff25","0199d5ef-c7d4-7cab-a194-b2c3afbaf8e8","","null","<div style=""display: flex; justify-content: center; align-items: center;"">
                     <img src=""images/semantic/semantic_series_9/semantic_series_9_f.png"" style=""width: 300px; height: 300px;"" />
                   </div>","null","9","1","F","",""
"","","","","","survey-likert","162","867273","0.0-130.0","C994CF4C95E5496EBA547FABF5C49197","0199d5ff-6542-7ade-8af6-ebaf076fff25","0199d5ef-c7d4-7cab-a194-b2c3afbaf8e8","","3651","","{""Q0"":1}","9","1","surprise_rating","","[0]"
"","","","","","survey-likert","163","871090","0.0-131.0","C994CF4C95E5496EBA547FABF5C49197","0199d5ff-6542-7ade-8af6-ebaf076fff25","0199d5ef-c7d4-7cab-a194-b2c3afbaf8e8","","3815","","{""Q0"":0}","9","1","enjoyment_rating","","[0]"
"","","","","","html-keyboard-response","164","877096","0.0-132.0","C994CF4C95E5496EBA547FABF5C49197","0199d5ff-6542-7ade-8af6-ebaf076fff25","0199d5ef-c7d4-7cab-a194-b2c3afbaf8e8","","null","<div style=""display: flex; justify-content: center; align-items: center;"">
                     <img src=""images/other/blank.png"" style=""width: 300px; height: 300px;"" />
                   </div>","null","0","0","blank","",""
"","","","","","html-keyboard-response","165","883106","0.0-133.0","C994CF4C95E5496EBA547FABF5C49197","0199d5ff-6542-7ade-8af6-ebaf076fff25","0199d5ef-c7d4-7cab-a194-b2c3afbaf8e8","","null","<div style=""display: flex; justify-content: center; align-items: center;"">
                     <img src=""images/causal/causal_series_2/causal_series_2_a.png"" style=""width: 300px; height: 300px;"" />
                   </div>","null","2","1","A","",""
"","","","","","html-keyboard-response","166","889122","0.0-134.0","C994CF4C95E5496EBA547FABF5C49197","0199d5ff-6542-7ade-8af6-ebaf076fff25","0199d5ef-c7d4-7cab-a194-b2c3afbaf8e8","","null","<div style=""display: flex; justify-content: center; align-items: center;"">
                     <img src=""images/causal/causal_series_2/causal_series_2_b.png"" style=""width: 300px; height: 300px;"" />
                   </div>","null","2","1","B","",""
"","","","","","html-keyboard-response","167","895137","0.0-135.0","C994CF4C95E5496EBA547FABF5C49197","0199d5ff-6542-7ade-8af6-ebaf076fff25","0199d5ef-c7d4-7cab-a194-b2c3afbaf8e8","","null","<div style=""display: flex; justify-content: center; align-items: center;"">
                     <img src=""images/causal/causal_series_2/causal_series_2_c.png"" style=""width: 300px; height: 300px;"" />
                   </div>","null","2","1","C","",""
"","","","","","html-button-response","168","897315","0.0-136.0","C994CF4C95E5496EBA547FABF5C49197","0199d5ff-6542-7ade-8af6-ebaf076fff25","0199d5ef-c7d4-7cab-a194-b2c3afbaf8e8","","2177","
        <div style=""display: flex; justify-content: center; align-items: center;"">
          <img src=""images/red_deck_2.png"" style=""width: 300px; height: 300px; margin-right: 10px;"" />
          <img src=""images/blue_deck_1.png"" style=""width: 300px; height: 300px;"" />
        </div>","1","2","1","choice","1",""
"","","","","","html-keyboard-response","169","903324","0.0-137.0-1.0-0.0","C994CF4C95E5496EBA547FABF5C49197","0199d5ff-6542-7ade-8af6-ebaf076fff25","0199d5ef-c7d4-7cab-a194-b2c3afbaf8e8","","null","<div style=""display: flex; justify-content: center; align-items: center;"">
                     <img src=""images/semantic/semantic_series_2/semantic_series_2_d.png"" style=""width: 300px; height: 300px;"" />
                   </div>","null","2","1","D","",""
"","","","","","html-keyboard-response","170","909327","0.0-137.0-1.0-1.0","C994CF4C95E5496EBA547FABF5C49197","0199d5ff-6542-7ade-8af6-ebaf076fff25","0199d5ef-c7d4-7cab-a194-b2c3afbaf8e8","","null","<div style=""display: flex; justify-content: center; align-items: center;"">
                     <img src=""images/semantic/semantic_series_2/semantic_series_2_e.png"" style=""width: 300px; height: 300px;"" />
                   </div>","null","2","1","E","",""
"","","","","","html-keyboard-response","171","915338","0.0-137.0-1.0-2.0","C994CF4C95E5496EBA547FABF5C49197","0199d5ff-6542-7ade-8af6-ebaf076fff25","0199d5ef-c7d4-7cab-a194-b2c3afbaf8e8","","null","<div style=""display: flex; justify-content: center; align-items: center;"">
                     <img src=""images/semantic/semantic_series_2/semantic_series_2_f.png"" style=""width: 300px; height: 300px;"" />
                   </div>","null","2","1","F","",""
"","","","","","survey-likert","172","919949","0.0-138.0","C994CF4C95E5496EBA547FABF5C49197","0199d5ff-6542-7ade-8af6-ebaf076fff25","0199d5ef-c7d4-7cab-a194-b2c3afbaf8e8","","4609","","{""Q0"":1}","2","1","surprise_rating","","[0]"
"","","","","","survey-likert","173","923953","0.0-139.0","C994CF4C95E5496EBA547FABF5C49197","0199d5ff-6542-7ade-8af6-ebaf076fff25","0199d5ef-c7d4-7cab-a194-b2c3afbaf8e8","","4002","","{""Q0"":1}","2","1","enjoyment_rating","","[0]"
"","","","","","html-keyboard-response","174","929959","0.0-140.0","C994CF4C95E5496EBA547FABF5C49197","0199d5ff-6542-7ade-8af6-ebaf076fff25","0199d5ef-c7d4-7cab-a194-b2c3afbaf8e8","","null","<div style=""display: flex; justify-content: center; align-items: center;"">
                     <img src=""images/other/blank.png"" style=""width: 300px; height: 300px;"" />
                   </div>","null","0","0","blank","",""
"","","","","","html-keyboard-response","175","935970","0.0-141.0","C994CF4C95E5496EBA547FABF5C49197","0199d5ff-6542-7ade-8af6-ebaf076fff25","0199d5ef-c7d4-7cab-a194-b2c3afbaf8e8","","null","<div style=""display: flex; justify-content: center; align-items: center;"">
                     <img src=""images/causal/causal_series_8/causal_series_8_a.png"" style=""width: 300px; height: 300px;"" />
                   </div>","null","8","1","A","",""
"","","","","","html-keyboard-response","176","941987","0.0-142.0","C994CF4C95E5496EBA547FABF5C49197","0199d5ff-6542-7ade-8af6-ebaf076fff25","0199d5ef-c7d4-7cab-a194-b2c3afbaf8e8","","null","<div style=""display: flex; justify-content: center; align-items: center;"">
                     <img src=""images/causal/causal_series_8/causal_series_8_b.png"" style=""width: 300px; height: 300px;"" />
                   </div>","null","8","1","B","",""
"","","","","","html-keyboard-response","177","948005","0.0-143.0","C994CF4C95E5496EBA547FABF5C49197","0199d5ff-6542-7ade-8af6-ebaf076fff25","0199d5ef-c7d4-7cab-a194-b2c3afbaf8e8","","null","<div style=""display: flex; justify-content: center; align-items: center;"">
                     <img src=""images/causal/causal_series_8/causal_series_8_c.png"" style=""width: 300px; height: 300px;"" />
                   </div>","null","8","1","C","",""
"","","","","","html-button-response","178","952250","0.0-144.0","C994CF4C95E5496EBA547FABF5C49197","0199d5ff-6542-7ade-8af6-ebaf076fff25","0199d5ef-c7d4-7cab-a194-b2c3afbaf8e8","","4244","
        <div style=""display: flex; justify-content: center; align-items: center;"">
          <img src=""images/red_deck_2.png"" style=""width: 300px; height: 300px; margin-right: 10px;"" />
          <img src=""images/blue_deck_1.png"" style=""width: 300px; height: 300px;"" />
        </div>","0","8","1","choice","0",""
"","","","","","html-keyboard-response","179","958254","0.0-145.0-0.0-0.0","C994CF4C95E5496EBA547FABF5C49197","0199d5ff-6542-7ade-8af6-ebaf076fff25","0199d5ef-c7d4-7cab-a194-b2c3afbaf8e8","","null","<div style=""display: flex; justify-content: center; align-items: center;"">
                     <img src=""images/causal/causal_series_8/causal_series_8_d.png"" style=""width: 300px; height: 300px;"" />
                   </div>","null","8","1","D","",""
"","","","","","html-keyboard-response","180","964270","0.0-145.0-0.0-1.0","C994CF4C95E5496EBA547FABF5C49197","0199d5ff-6542-7ade-8af6-ebaf076fff25","0199d5ef-c7d4-7cab-a194-b2c3afbaf8e8","","null","<div style=""display: flex; justify-content: center; align-items: center;"">
                     <img src=""images/causal/causal_series_8/causal_series_8_e.png"" style=""width: 300px; height: 300px;"" />
                   </div>","null","8","1","E","",""
"","","","","","html-keyboard-response","181","970284","0.0-145.0-0.0-2.0","C994CF4C95E5496EBA547FABF5C49197","0199d5ff-6542-7ade-8af6-ebaf076fff25","0199d5ef-c7d4-7cab-a194-b2c3afbaf8e8","","null","<div style=""display: flex; justify-content: center; align-items: center;"">
                     <img src=""images/causal/causal_series_8/causal_series_8_f.png"" style=""width: 300px; height: 300px;"" />
                   </div>","null","8","1","F","",""
"","","","","","survey-likert","182","981021","0.0-146.0","C994CF4C95E5496EBA547FABF5C49197","0199d5ff-6542-7ade-8af6-ebaf076fff25","0199d5ef-c7d4-7cab-a194-b2c3afbaf8e8","","10736","","{""Q0"":2}","8","1","surprise_rating","","[0]"
"","","","","","survey-likert","183","983159","0.0-147.0","C994CF4C95E5496EBA547FABF5C49197","0199d5ff-6542-7ade-8af6-ebaf076fff25","0199d5ef-c7d4-7cab-a194-b2c3afbaf8e8","","2136","","{""Q0"":2}","8","1","enjoyment_rating","","[0]"
"","","","","","html-keyboard-response","184","989169","0.0-148.0","C994CF4C95E5496EBA547FABF5C49197","0199d5ff-6542-7ade-8af6-ebaf076fff25","0199d5ef-c7d4-7cab-a194-b2c3afbaf8e8","","null","<div style=""display: flex; justify-content: center; align-items: center;"">
                     <img src=""images/other/blank.png"" style=""width: 300px; height: 300px;"" />
                   </div>","null","0","0","blank","",""
"","","","","","html-keyboard-response","185","995183","0.0-149.0","C994CF4C95E5496EBA547FABF5C49197","0199d5ff-6542-7ade-8af6-ebaf076fff25","0199d5ef-c7d4-7cab-a194-b2c3afbaf8e8","","null","<div style=""display: flex; justify-content: center; align-items: center;"">
                     <img src=""images/causal/causal_series_5/causal_series_5_a.png"" style=""width: 300px; height: 300px;"" />
                   </div>","null","5","1","A","",""
"","","","","","html-keyboard-response","186","1001199","0.0-150.0","C994CF4C95E5496EBA547FABF5C49197","0199d5ff-6542-7ade-8af6-ebaf076fff25","0199d5ef-c7d4-7cab-a194-b2c3afbaf8e8","","null","<div style=""display: flex; justify-content: center; align-items: center;"">
                     <img src=""images/causal/causal_series_5/causal_series_5_b.png"" style=""width: 300px; height: 300px;"" />
                   </div>","null","5","1","B","",""
"","","","","","html-keyboard-response","187","1007205","0.0-151.0","C994CF4C95E5496EBA547FABF5C49197","0199d5ff-6542-7ade-8af6-ebaf076fff25","0199d5ef-c7d4-7cab-a194-b2c3afbaf8e8","","null","<div style=""display: flex; justify-content: center; align-items: center;"">
                     <img src=""images/causal/causal_series_5/causal_series_5_c.png"" style=""width: 300px; height: 300px;"" />
                   </div>","null","5","1","C","",""
"","","","","","html-button-response","188","1010015","0.0-152.0","C994CF4C95E5496EBA547FABF5C49197","0199d5ff-6542-7ade-8af6-ebaf076fff25","0199d5ef-c7d4-7cab-a194-b2c3afbaf8e8","","2809","
        <div style=""display: flex; justify-content: center; align-items: center;"">
          <img src=""images/red_deck_2.png"" style=""width: 300px; height: 300px; margin-right: 10px;"" />
          <img src=""images/blue_deck_1.png"" style=""width: 300px; height: 300px;"" />
        </div>","1","5","1","choice","1",""
"","","","","","html-keyboard-response","189","1016020","0.0-153.0-1.0-0.0","C994CF4C95E5496EBA547FABF5C49197","0199d5ff-6542-7ade-8af6-ebaf076fff25","0199d5ef-c7d4-7cab-a194-b2c3afbaf8e8","","null","<div style=""display: flex; justify-content: center; align-items: center;"">
                     <img src=""images/semantic/semantic_series_5/semantic_series_5_d.png"" style=""width: 300px; height: 300px;"" />
                   </div>","null","5","1","D","",""
"","","","","","html-keyboard-response","190","1022029","0.0-153.0-1.0-1.0","C994CF4C95E5496EBA547FABF5C49197","0199d5ff-6542-7ade-8af6-ebaf076fff25","0199d5ef-c7d4-7cab-a194-b2c3afbaf8e8","","null","<div style=""display: flex; justify-content: center; align-items: center;"">
                     <img src=""images/semantic/semantic_series_5/semantic_series_5_e.png"" style=""width: 300px; height: 300px;"" />
                   </div>","null","5","1","E","",""
"","","","","","html-keyboard-response","191","1028035","0.0-153.0-1.0-2.0","C994CF4C95E5496EBA547FABF5C49197","0199d5ff-6542-7ade-8af6-ebaf076fff25","0199d5ef-c7d4-7cab-a194-b2c3afbaf8e8","","null","<div style=""display: flex; justify-content: center; align-items: center;"">
                     <img src=""images/semantic/semantic_series_5/semantic_series_5_f.png"" style=""width: 300px; height: 300px;"" />
                   </div>","null","5","1","F","",""
"","","","","","survey-likert","192","1032261","0.0-154.0","C994CF4C95E5496EBA547FABF5C49197","0199d5ff-6542-7ade-8af6-ebaf076fff25","0199d5ef-c7d4-7cab-a194-b2c3afbaf8e8","","4223","","{""Q0"":2}","5","1","surprise_rating","","[0]"
"","","","","","survey-likert","193","1034658","0.0-155.0","C994CF4C95E5496EBA547FABF5C49197","0199d5ff-6542-7ade-8af6-ebaf076fff25","0199d5ef-c7d4-7cab-a194-b2c3afbaf8e8","","2395","","{""Q0"":1}","5","1","enjoyment_rating","","[0]"
"","","","","","html-keyboard-response","194","1040669","0.0-156.0","C994CF4C95E5496EBA547FABF5C49197","0199d5ff-6542-7ade-8af6-ebaf076fff25","0199d5ef-c7d4-7cab-a194-b2c3afbaf8e8","","null","<div style=""display: flex; justify-content: center; align-items: center;"">
                     <img src=""images/other/blank.png"" style=""width: 300px; height: 300px;"" />
                   </div>","null","0","0","blank","",""
"","","","","","html-keyboard-response","195","1046685","0.0-157.0","C994CF4C95E5496EBA547FABF5C49197","0199d5ff-6542-7ade-8af6-ebaf076fff25","0199d5ef-c7d4-7cab-a194-b2c3afbaf8e8","","null","<div style=""display: flex; justify-content: center; align-items: center;"">
                     <img src=""images/causal/causal_series_6/causal_series_6_a.png"" style=""width: 300px; height: 300px;"" />
                   </div>","null","6","2","A","",""
"","","","","","html-keyboard-response","196","1052690","0.0-158.0","C994CF4C95E5496EBA547FABF5C49197","0199d5ff-6542-7ade-8af6-ebaf076fff25","0199d5ef-c7d4-7cab-a194-b2c3afbaf8e8","","null","<div style=""display: flex; justify-content: center; align-items: center;"">
                     <img src=""images/causal/causal_series_6/causal_series_6_b.png"" style=""width: 300px; height: 300px;"" />
                   </div>","null","6","2","B","",""
"","","","","","html-keyboard-response","197","1058698","0.0-159.0","C994CF4C95E5496EBA547FABF5C49197","0199d5ff-6542-7ade-8af6-ebaf076fff25","0199d5ef-c7d4-7cab-a194-b2c3afbaf8e8","","null","<div style=""display: flex; justify-content: center; align-items: center;"">
                     <img src=""images/causal/causal_series_6/causal_series_6_c.png"" style=""width: 300px; height: 300px;"" />
                   </div>","null","6","2","C","",""
"","","","","","html-button-response","198","1061837","0.0-160.0","C994CF4C95E5496EBA547FABF5C49197","0199d5ff-6542-7ade-8af6-ebaf076fff25","0199d5ef-c7d4-7cab-a194-b2c3afbaf8e8","","3137","
        <div style=""display: flex; justify-content: center; align-items: center;"">
          <img src=""images/red_deck_2.png"" style=""width: 300px; height: 300px; margin-right: 10px;"" />
          <img src=""images/blue_deck_1.png"" style=""width: 300px; height: 300px;"" />
        </div>","0","6","2","choice","0",""
"","","","","","html-keyboard-response","199","1067843","0.0-161.0-0.0-0.0","C994CF4C95E5496EBA547FABF5C49197","0199d5ff-6542-7ade-8af6-ebaf076fff25","0199d5ef-c7d4-7cab-a194-b2c3afbaf8e8","","null","<div style=""display: flex; justify-content: center; align-items: center;"">
                     <img src=""images/causal/causal_series_6/causal_series_6_d.png"" style=""width: 300px; height: 300px;"" />
                   </div>","null","6","2","D","",""
"","","","","","html-keyboard-response","200","1073853","0.0-161.0-0.0-1.0","C994CF4C95E5496EBA547FABF5C49197","0199d5ff-6542-7ade-8af6-ebaf076fff25","0199d5ef-c7d4-7cab-a194-b2c3afbaf8e8","","null","<div style=""display: flex; justify-content: center; align-items: center;"">
                     <img src=""images/causal/causal_series_6/causal_series_6_e.png"" style=""width: 300px; height: 300px;"" />
                   </div>","null","6","2","E","",""
"","","","","","html-keyboard-response","201","1079869","0.0-161.0-0.0-2.0","C994CF4C95E5496EBA547FABF5C49197","0199d5ff-6542-7ade-8af6-ebaf076fff25","0199d5ef-c7d4-7cab-a194-b2c3afbaf8e8","","null","<div style=""display: flex; justify-content: center; align-items: center;"">
                     <img src=""images/causal/causal_series_6/causal_series_6_f.png"" style=""width: 300px; height: 300px;"" />
                   </div>","null","6","2","F","",""
"","","","","","survey-likert","202","1084691","0.0-162.0","C994CF4C95E5496EBA547FABF5C49197","0199d5ff-6542-7ade-8af6-ebaf076fff25","0199d5ef-c7d4-7cab-a194-b2c3afbaf8e8","","4821","","{""Q0"":2}","6","2","surprise_rating","","[0]"
"","","","","","survey-likert","203","1087065","0.0-163.0","C994CF4C95E5496EBA547FABF5C49197","0199d5ff-6542-7ade-8af6-ebaf076fff25","0199d5ef-c7d4-7cab-a194-b2c3afbaf8e8","","2372","","{""Q0"":3}","6","2","enjoyment_rating","","[0]"
"","","","","","html-keyboard-response","204","1093070","0.0-164.0","C994CF4C95E5496EBA547FABF5C49197","0199d5ff-6542-7ade-8af6-ebaf076fff25","0199d5ef-c7d4-7cab-a194-b2c3afbaf8e8","","null","<div style=""display: flex; justify-content: center; align-items: center;"">
                     <img src=""images/other/blank.png"" style=""width: 300px; height: 300px;"" />
                   </div>","null","0","0","blank","",""
"","","","","","survey-text","205","1156907","0.0-165.0","C994CF4C95E5496EBA547FABF5C49197","0199d5ff-6542-7ade-8af6-ebaf076fff25","0199d5ef-c7d4-7cab-a194-b2c3afbaf8e8","","63830","","{""Q0"":""The blue deck had cards that built continually on the story while the actions in the red deck were independant of each other ""}","","","","",""
"","","","","","html-button-response","206","1165805","0.0-166.0","C994CF4C95E5496EBA547FABF5C49197","0199d5ff-6542-7ade-8af6-ebaf076fff25","0199d5ef-c7d4-7cab-a194-b2c3afbaf8e8","","8895","Which color deck do the following sentences continue the story from?","0","","","","",""
"","","","","","html-button-response","207","1167205","0.0-167.0","C994CF4C95E5496EBA547FABF5C49197","0199d5ff-6542-7ade-8af6-ebaf076fff25","0199d5ef-c7d4-7cab-a194-b2c3afbaf8e8","","1399","Which color deck do the following sentences NOT follow the story from?","1","","","","",""
"","","","","","html-button-response","208","1170178","0.0-168.0","C994CF4C95E5496EBA547FABF5C49197","0199d5ff-6542-7ade-8af6-ebaf076fff25","0199d5ef-c7d4-7cab-a194-b2c3afbaf8e8","","2972","Which type of deck did you prefer overall?","1","","","","",""
"","","","","","survey-text","209","1175141","0.0-169.0","C994CF4C95E5496EBA547FABF5C49197","0199d5ff-6542-7ade-8af6-ebaf076fff25","0199d5ef-c7d4-7cab-a194-b2c3afbaf8e8","","4954","","{""Q0"":""Male"",""Q1"":""34""}","","","","",""
"","","","","","instructions","210","1184789","0.0-170.0","C994CF4C95E5496EBA547FABF5C49197","0199d5ff-6542-7ade-8af6-ebaf076fff25","0199d5ef-c7d4-7cab-a194-b2c3afbaf8e8","[{""page_index"":0,""viewing_time"":9646}]","9646","","","","","","",""
