"success","timeout","failed_images","failed_audio","failed_video","trial_type","trial_index","time_elapsed","internal_node_id","subject_id","study_id","session_id","view_history","rt","stimulus","response","series","repetition","phase","choice","question_order"
"true","false","[]","[]","[]","preload","0","2302","0.0-0.0","09BF60420B074B23AEBA62FFC0074D83","0199d676-490a-71e1-bd17-5c270796bab1","0199d675-8795-765b-adc2-c813de8cd3d1","","","","","","","","",""
"","","","","","instructions","1","12595","0.0-1.0","09BF60420B074B23AEBA62FFC0074D83","0199d676-490a-71e1-bd17-5c270796bab1","0199d675-8795-765b-adc2-c813de8cd3d1","[{""page_index"":0,""viewing_time"":10291}]","10291","","","","","","",""
"","","","","","instructions","2","26730","0.0-2.0","09BF60420B074B23AEBA62FFC0074D83","0199d676-490a-71e1-bd17-5c270796bab1","0199d675-8795-765b-adc2-c813de8cd3d1","[{""page_index"":0,""viewing_time"":14135}]","14135","","","","","","",""
"true","","","","","fullscreen","3","30123","0.0-3.0","09BF60420B074B23AEBA62FFC0074D83","0199d676-490a-71e1-bd17-5c270796bab1","0199d675-8795-765b-adc2-c813de8cd3d1","","2383","","","","","","",""
"","","","","","instructions","4","85330","0.0-4.0","09BF60420B074B23AEBA62FFC0074D83","0199d676-490a-71e1-bd17-5c270796bab1","0199d675-8795-765b-adc2-c813de8cd3d1","[{""page_index"":0,""viewing_time"":55207}]","55207","","","","","","",""
"","","","","","html-keyboard-response","5","91343","0.0-5.0","09BF60420B074B23AEBA62FFC0074D83","0199d676-490a-71e1-bd17-5c270796bab1","0199d675-8795-765b-adc2-c813de8cd3d1","","null","<div style=""display: flex; justify-content: center; align-items: center;"">
                     <img src=""images/causal/causal_series_6/causal_series_6_a.png"" style=""width: 300px; height: 300px;"" />
                   </div>","null","6","1","A","",""
"","","","","","html-button-response","6","95243","0.0-6.0","09BF60420B074B23AEBA62FFC0074D83","0199d676-490a-71e1-bd17-5c270796bab1","0199d675-8795-765b-adc2-c813de8cd3d1","","3898","
        <div style=""display: flex; justify-content: center; align-items: center;"">
          <img src=""images/red_deck_2.png"" style=""width: 300px; height: 300px; margin-right: 10px;"" />
          <img src=""images/blue_deck_1.png"" style=""width: 300px; height: 300px;"" />
        </div>","0","6","1","choice","0",""
"","","","","","html-keyboard-response","7","101259","0.0-7.0-0.0-0.0","09BF60420B074B23AEBA62FFC0074D83","0199d676-490a-71e1-bd17-5c270796bab1","0199d675-8795-765b-adc2-c813de8cd3d1","","null","<div style=""display: flex; justify-content: center; align-items: center;"">
                     <img src=""images/causal/causal_series_6/causal_series_6_b.png"" style=""width: 300px; height: 300px;"" />
                   </div>","null","6","1","B","",""
"","","","","","html-keyboard-response","8","107267","0.0-7.0-0.0-1.0","09BF60420B074B23AEBA62FFC0074D83","0199d676-490a-71e1-bd17-5c270796bab1","0199d675-8795-765b-adc2-c813de8cd3d1","","null","<div style=""display: flex; justify-content: center; align-items: center;"">
                     <img src=""images/causal/causal_series_6/causal_series_6_c.png"" style=""width: 300px; height: 300px;"" />
                   </div>","null","6","1","C","",""
"","","","","","html-keyboard-response","9","113281","0.0-7.0-0.0-2.0","09BF60420B074B23AEBA62FFC0074D83","0199d676-490a-71e1-bd17-5c270796bab1","0199d675-8795-765b-adc2-c813de8cd3d1","","null","<div style=""display: flex; justify-content: center; align-items: center;"">
                     <img src=""images/causal/causal_series_6/causal_series_6_d.png"" style=""width: 300px; height: 300px;"" />
                   </div>","null","6","1","D","",""
"","","","","","survey-likert","10","118055","0.0-8.0","09BF60420B074B23AEBA62FFC0074D83","0199d676-490a-71e1-bd17-5c270796bab1","0199d675-8795-765b-adc2-c813de8cd3d1","","4762","","{""Q0"":3}","6","1","surprise_rating","","[0]"
"","","","","","survey-likert","11","121499","0.0-9.0","09BF60420B074B23AEBA62FFC0074D83","0199d676-490a-71e1-bd17-5c270796bab1","0199d675-8795-765b-adc2-c813de8cd3d1","","3443","","{""Q0"":2}","6","1","enjoyment_rating","","[0]"
"","","","","","html-keyboard-response","12","127507","0.0-10.0","09BF60420B074B23AEBA62FFC0074D83","0199d676-490a-71e1-bd17-5c270796bab1","0199d675-8795-765b-adc2-c813de8cd3d1","","null","<div style=""display: flex; justify-content: center; align-items: center;"">
                     <img src=""images/other/blank.png"" style=""width: 300px; height: 300px;"" />
                   </div>","null","0","0","blank","",""
"","","","","","html-keyboard-response","13","133509","0.0-11.0","09BF60420B074B23AEBA62FFC0074D83","0199d676-490a-71e1-bd17-5c270796bab1","0199d675-8795-765b-adc2-c813de8cd3d1","","null","<div style=""display: flex; justify-content: center; align-items: center;"">
                     <img src=""images/causal/causal_series_3/causal_series_3_a.png"" style=""width: 300px; height: 300px;"" />
                   </div>","null","3","1","A","",""
"","","","","","html-button-response","14","136322","0.0-12.0","09BF60420B074B23AEBA62FFC0074D83","0199d676-490a-71e1-bd17-5c270796bab1","0199d675-8795-765b-adc2-c813de8cd3d1","","2812","
        <div style=""display: flex; justify-content: center; align-items: center;"">
          <img src=""images/red_deck_2.png"" style=""width: 300px; height: 300px; margin-right: 10px;"" />
          <img src=""images/blue_deck_1.png"" style=""width: 300px; height: 300px;"" />
        </div>","0","3","1","choice","0",""
"","","","","","html-keyboard-response","15","142338","0.0-13.0-0.0-0.0","09BF60420B074B23AEBA62FFC0074D83","0199d676-490a-71e1-bd17-5c270796bab1","0199d675-8795-765b-adc2-c813de8cd3d1","","null","<div style=""display: flex; justify-content: center; align-items: center;"">
                     <img src=""images/causal/causal_series_3/causal_series_3_b.png"" style=""width: 300px; height: 300px;"" />
                   </div>","null","3","1","B","",""
"","","","","","html-keyboard-response","16","148353","0.0-13.0-0.0-1.0","09BF60420B074B23AEBA62FFC0074D83","0199d676-490a-71e1-bd17-5c270796bab1","0199d675-8795-765b-adc2-c813de8cd3d1","","null","<div style=""display: flex; justify-content: center; align-items: center;"">
                     <img src=""images/causal/causal_series_3/causal_series_3_c.png"" style=""width: 300px; height: 300px;"" />
                   </div>","null","3","1","C","",""
"","","","","","html-keyboard-response","17","154363","0.0-13.0-0.0-2.0","09BF60420B074B23AEBA62FFC0074D83","0199d676-490a-71e1-bd17-5c270796bab1","0199d675-8795-765b-adc2-c813de8cd3d1","","null","<div style=""display: flex; justify-content: center; align-items: center;"">
                     <img src=""images/causal/causal_series_3/causal_series_3_d.png"" style=""width: 300px; height: 300px;"" />
                   </div>","null","3","1","D","",""
"","","","","","survey-likert","18","158659","0.0-14.0","09BF60420B074B23AEBA62FFC0074D83","0199d676-490a-71e1-bd17-5c270796bab1","0199d675-8795-765b-adc2-c813de8cd3d1","","4295","","{""Q0"":3}","3","1","surprise_rating","","[0]"
"","","","","","survey-likert","19","160419","0.0-15.0","09BF60420B074B23AEBA62FFC0074D83","0199d676-490a-71e1-bd17-5c270796bab1","0199d675-8795-765b-adc2-c813de8cd3d1","","1759","","{""Q0"":1}","3","1","enjoyment_rating","","[0]"
"","","","","","html-keyboard-response","20","166423","0.0-16.0","09BF60420B074B23AEBA62FFC0074D83","0199d676-490a-71e1-bd17-5c270796bab1","0199d675-8795-765b-adc2-c813de8cd3d1","","null","<div style=""display: flex; justify-content: center; align-items: center;"">
                     <img src=""images/other/blank.png"" style=""width: 300px; height: 300px;"" />
                   </div>","null","0","0","blank","",""
"","","","","","html-keyboard-response","21","172424","0.0-17.0","09BF60420B074B23AEBA62FFC0074D83","0199d676-490a-71e1-bd17-5c270796bab1","0199d675-8795-765b-adc2-c813de8cd3d1","","null","<div style=""display: flex; justify-content: center; align-items: center;"">
                     <img src=""images/causal/causal_series_2/causal_series_2_a.png"" style=""width: 300px; height: 300px;"" />
                   </div>","null","2","2","A","",""
"","","","","","html-button-response","22","174018","0.0-18.0","09BF60420B074B23AEBA62FFC0074D83","0199d676-490a-71e1-bd17-5c270796bab1","0199d675-8795-765b-adc2-c813de8cd3d1","","1593","
        <div style=""display: flex; justify-content: center; align-items: center;"">
          <img src=""images/red_deck_2.png"" style=""width: 300px; height: 300px; margin-right: 10px;"" />
          <img src=""images/blue_deck_1.png"" style=""width: 300px; height: 300px;"" />
        </div>","1","2","2","choice","1",""
"","","","","","html-keyboard-response","23","180030","0.0-19.0-1.0-0.0","09BF60420B074B23AEBA62FFC0074D83","0199d676-490a-71e1-bd17-5c270796bab1","0199d675-8795-765b-adc2-c813de8cd3d1","","null","<div style=""display: flex; justify-content: center; align-items: center;"">
                     <img src=""images/semantic/semantic_series_2/semantic_series_2_b.png"" style=""width: 300px; height: 300px;"" />
                   </div>","null","2","2","B","",""
"","","","","","html-keyboard-response","24","186040","0.0-19.0-1.0-1.0","09BF60420B074B23AEBA62FFC0074D83","0199d676-490a-71e1-bd17-5c270796bab1","0199d675-8795-765b-adc2-c813de8cd3d1","","null","<div style=""display: flex; justify-content: center; align-items: center;"">
                     <img src=""images/semantic/semantic_series_2/semantic_series_2_c.png"" style=""width: 300px; height: 300px;"" />
                   </div>","null","2","2","C","",""
"","","","","","html-keyboard-response","25","192041","0.0-19.0-1.0-2.0","09BF60420B074B23AEBA62FFC0074D83","0199d676-490a-71e1-bd17-5c270796bab1","0199d675-8795-765b-adc2-c813de8cd3d1","","null","<div style=""display: flex; justify-content: center; align-items: center;"">
                     <img src=""images/semantic/semantic_series_2/semantic_series_2_d.png"" style=""width: 300px; height: 300px;"" />
                   </div>","null","2","2","D","",""
"","","","","","survey-likert","26","201523","0.0-20.0","09BF60420B074B23AEBA62FFC0074D83","0199d676-490a-71e1-bd17-5c270796bab1","0199d675-8795-765b-adc2-c813de8cd3d1","","9481","","{""Q0"":3}","2","2","surprise_rating","","[0]"
"","","","","","survey-likert","27","203411","0.0-21.0","09BF60420B074B23AEBA62FFC0074D83","0199d676-490a-71e1-bd17-5c270796bab1","0199d675-8795-765b-adc2-c813de8cd3d1","","1887","","{""Q0"":1}","2","2","enjoyment_rating","","[0]"
"","","","","","html-keyboard-response","28","209419","0.0-22.0","09BF60420B074B23AEBA62FFC0074D83","0199d676-490a-71e1-bd17-5c270796bab1","0199d675-8795-765b-adc2-c813de8cd3d1","","null","<div style=""display: flex; justify-content: center; align-items: center;"">
                     <img src=""images/other/blank.png"" style=""width: 300px; height: 300px;"" />
                   </div>","null","0","0","blank","",""
"","","","","","html-keyboard-response","29","215424","0.0-23.0","09BF60420B074B23AEBA62FFC0074D83","0199d676-490a-71e1-bd17-5c270796bab1","0199d675-8795-765b-adc2-c813de8cd3d1","","null","<div style=""display: flex; justify-content: center; align-items: center;"">
                     <img src=""images/causal/causal_series_2/causal_series_2_a.png"" style=""width: 300px; height: 300px;"" />
                   </div>","null","2","1","A","",""
"","","","","","html-button-response","30","216803","0.0-24.0","09BF60420B074B23AEBA62FFC0074D83","0199d676-490a-71e1-bd17-5c270796bab1","0199d675-8795-765b-adc2-c813de8cd3d1","","1378","
        <div style=""display: flex; justify-content: center; align-items: center;"">
          <img src=""images/red_deck_2.png"" style=""width: 300px; height: 300px; margin-right: 10px;"" />
          <img src=""images/blue_deck_1.png"" style=""width: 300px; height: 300px;"" />
        </div>","0","2","1","choice","0",""
"","","","","","html-keyboard-response","31","222812","0.0-25.0-0.0-0.0","09BF60420B074B23AEBA62FFC0074D83","0199d676-490a-71e1-bd17-5c270796bab1","0199d675-8795-765b-adc2-c813de8cd3d1","","null","<div style=""display: flex; justify-content: center; align-items: center;"">
                     <img src=""images/causal/causal_series_2/causal_series_2_b.png"" style=""width: 300px; height: 300px;"" />
                   </div>","null","2","1","B","",""
"","","","","","html-keyboard-response","32","228820","0.0-25.0-0.0-1.0","09BF60420B074B23AEBA62FFC0074D83","0199d676-490a-71e1-bd17-5c270796bab1","0199d675-8795-765b-adc2-c813de8cd3d1","","null","<div style=""display: flex; justify-content: center; align-items: center;"">
                     <img src=""images/causal/causal_series_2/causal_series_2_c.png"" style=""width: 300px; height: 300px;"" />
                   </div>","null","2","1","C","",""
"","","","","","html-keyboard-response","33","234830","0.0-25.0-0.0-2.0","09BF60420B074B23AEBA62FFC0074D83","0199d676-490a-71e1-bd17-5c270796bab1","0199d675-8795-765b-adc2-c813de8cd3d1","","null","<div style=""display: flex; justify-content: center; align-items: center;"">
                     <img src=""images/causal/causal_series_2/causal_series_2_d.png"" style=""width: 300px; height: 300px;"" />
                   </div>","null","2","1","D","",""
"","","","","","survey-likert","34","239067","0.0-26.0","09BF60420B074B23AEBA62FFC0074D83","0199d676-490a-71e1-bd17-5c270796bab1","0199d675-8795-765b-adc2-c813de8cd3d1","","4236","","{""Q0"":3}","2","1","surprise_rating","","[0]"
"","","","","","survey-likert","35","240843","0.0-27.0","09BF60420B074B23AEBA62FFC0074D83","0199d676-490a-71e1-bd17-5c270796bab1","0199d675-8795-765b-adc2-c813de8cd3d1","","1775","","{""Q0"":2}","2","1","enjoyment_rating","","[0]"
"","","","","","html-keyboard-response","36","246853","0.0-28.0","09BF60420B074B23AEBA62FFC0074D83","0199d676-490a-71e1-bd17-5c270796bab1","0199d675-8795-765b-adc2-c813de8cd3d1","","null","<div style=""display: flex; justify-content: center; align-items: center;"">
                     <img src=""images/other/blank.png"" style=""width: 300px; height: 300px;"" />
                   </div>","null","0","0","blank","",""
"","","","","","html-keyboard-response","37","252865","0.0-29.0","09BF60420B074B23AEBA62FFC0074D83","0199d676-490a-71e1-bd17-5c270796bab1","0199d675-8795-765b-adc2-c813de8cd3d1","","null","<div style=""display: flex; justify-content: center; align-items: center;"">
                     <img src=""images/causal/causal_series_7/causal_series_7_a.png"" style=""width: 300px; height: 300px;"" />
                   </div>","null","7","2","A","",""
"","","","","","html-button-response","38","256578","0.0-30.0","09BF60420B074B23AEBA62FFC0074D83","0199d676-490a-71e1-bd17-5c270796bab1","0199d675-8795-765b-adc2-c813de8cd3d1","","3712","
        <div style=""display: flex; justify-content: center; align-items: center;"">
          <img src=""images/red_deck_2.png"" style=""width: 300px; height: 300px; margin-right: 10px;"" />
          <img src=""images/blue_deck_1.png"" style=""width: 300px; height: 300px;"" />
        </div>","0","7","2","choice","0",""
"","","","","","html-keyboard-response","39","262584","0.0-31.0-0.0-0.0","09BF60420B074B23AEBA62FFC0074D83","0199d676-490a-71e1-bd17-5c270796bab1","0199d675-8795-765b-adc2-c813de8cd3d1","","null","<div style=""display: flex; justify-content: center; align-items: center;"">
                     <img src=""images/causal/causal_series_7/causal_series_7_b.png"" style=""width: 300px; height: 300px;"" />
                   </div>","null","7","2","B","",""
"","","","","","html-keyboard-response","40","268597","0.0-31.0-0.0-1.0","09BF60420B074B23AEBA62FFC0074D83","0199d676-490a-71e1-bd17-5c270796bab1","0199d675-8795-765b-adc2-c813de8cd3d1","","null","<div style=""display: flex; justify-content: center; align-items: center;"">
                     <img src=""images/causal/causal_series_7/causal_series_7_c.png"" style=""width: 300px; height: 300px;"" />
                   </div>","null","7","2","C","",""
"","","","","","html-keyboard-response","41","274613","0.0-31.0-0.0-2.0","09BF60420B074B23AEBA62FFC0074D83","0199d676-490a-71e1-bd17-5c270796bab1","0199d675-8795-765b-adc2-c813de8cd3d1","","null","<div style=""display: flex; justify-content: center; align-items: center;"">
                     <img src=""images/causal/causal_series_7/causal_series_7_d.png"" style=""width: 300px; height: 300px;"" />
                   </div>","null","7","2","D","",""
"","","","","","survey-likert","42","280827","0.0-32.0","09BF60420B074B23AEBA62FFC0074D83","0199d676-490a-71e1-bd17-5c270796bab1","0199d675-8795-765b-adc2-c813de8cd3d1","","6213","","{""Q0"":2}","7","2","surprise_rating","","[0]"
"","","","","","survey-likert","43","285450","0.0-33.0","09BF60420B074B23AEBA62FFC0074D83","0199d676-490a-71e1-bd17-5c270796bab1","0199d675-8795-765b-adc2-c813de8cd3d1","","4623","","{""Q0"":2}","7","2","enjoyment_rating","","[0]"
"","","","","","html-keyboard-response","44","291466","0.0-34.0","09BF60420B074B23AEBA62FFC0074D83","0199d676-490a-71e1-bd17-5c270796bab1","0199d675-8795-765b-adc2-c813de8cd3d1","","null","<div style=""display: flex; justify-content: center; align-items: center;"">
                     <img src=""images/other/blank.png"" style=""width: 300px; height: 300px;"" />
                   </div>","null","0","0","blank","",""
"","","","","","html-keyboard-response","45","297477","0.0-35.0","09BF60420B074B23AEBA62FFC0074D83","0199d676-490a-71e1-bd17-5c270796bab1","0199d675-8795-765b-adc2-c813de8cd3d1","","null","<div style=""display: flex; justify-content: center; align-items: center;"">
                     <img src=""images/causal/causal_series_9/causal_series_9_a.png"" style=""width: 300px; height: 300px;"" />
                   </div>","null","9","2","A","",""
"","","","","","html-button-response","46","298475","0.0-36.0","09BF60420B074B23AEBA62FFC0074D83","0199d676-490a-71e1-bd17-5c270796bab1","0199d675-8795-765b-adc2-c813de8cd3d1","","997","
        <div style=""display: flex; justify-content: center; align-items: center;"">
          <img src=""images/red_deck_2.png"" style=""width: 300px; height: 300px; margin-right: 10px;"" />
          <img src=""images/blue_deck_1.png"" style=""width: 300px; height: 300px;"" />
        </div>","0","9","2","choice","0",""
"","","","","","html-keyboard-response","47","304481","0.0-37.0-0.0-0.0","09BF60420B074B23AEBA62FFC0074D83","0199d676-490a-71e1-bd17-5c270796bab1","0199d675-8795-765b-adc2-c813de8cd3d1","","null","<div style=""display: flex; justify-content: center; align-items: center;"">
                     <img src=""images/causal/causal_series_9/causal_series_9_b.png"" style=""width: 300px; height: 300px;"" />
                   </div>","null","9","2","B","",""
"","","","","","html-keyboard-response","48","310488","0.0-37.0-0.0-1.0","09BF60420B074B23AEBA62FFC0074D83","0199d676-490a-71e1-bd17-5c270796bab1","0199d675-8795-765b-adc2-c813de8cd3d1","","null","<div style=""display: flex; justify-content: center; align-items: center;"">
                     <img src=""images/causal/causal_series_9/causal_series_9_c.png"" style=""width: 300px; height: 300px;"" />
                   </div>","null","9","2","C","",""
"","","","","","html-keyboard-response","49","316492","0.0-37.0-0.0-2.0","09BF60420B074B23AEBA62FFC0074D83","0199d676-490a-71e1-bd17-5c270796bab1","0199d675-8795-765b-adc2-c813de8cd3d1","","null","<div style=""display: flex; justify-content: center; align-items: center;"">
                     <img src=""images/causal/causal_series_9/causal_series_9_d.png"" style=""width: 300px; height: 300px;"" />
                   </div>","null","9","2","D","",""
"","","","","","survey-likert","50","320707","0.0-38.0","09BF60420B074B23AEBA62FFC0074D83","0199d676-490a-71e1-bd17-5c270796bab1","0199d675-8795-765b-adc2-c813de8cd3d1","","4214","","{""Q0"":3}","9","2","surprise_rating","","[0]"
"","","","","","survey-likert","51","322507","0.0-39.0","09BF60420B074B23AEBA62FFC0074D83","0199d676-490a-71e1-bd17-5c270796bab1","0199d675-8795-765b-adc2-c813de8cd3d1","","1800","","{""Q0"":1}","9","2","enjoyment_rating","","[0]"
"","","","","","html-keyboard-response","52","328514","0.0-40.0","09BF60420B074B23AEBA62FFC0074D83","0199d676-490a-71e1-bd17-5c270796bab1","0199d675-8795-765b-adc2-c813de8cd3d1","","null","<div style=""display: flex; justify-content: center; align-items: center;"">
                     <img src=""images/other/blank.png"" style=""width: 300px; height: 300px;"" />
                   </div>","null","0","0","blank","",""
"","","","","","html-keyboard-response","53","334516","0.0-41.0","09BF60420B074B23AEBA62FFC0074D83","0199d676-490a-71e1-bd17-5c270796bab1","0199d675-8795-765b-adc2-c813de8cd3d1","","null","<div style=""display: flex; justify-content: center; align-items: center;"">
                     <img src=""images/causal/causal_series_5/causal_series_5_a.png"" style=""width: 300px; height: 300px;"" />
                   </div>","null","5","2","A","",""
"","","","","","html-button-response","54","335659","0.0-42.0","09BF60420B074B23AEBA62FFC0074D83","0199d676-490a-71e1-bd17-5c270796bab1","0199d675-8795-765b-adc2-c813de8cd3d1","","1127","
        <div style=""display: flex; justify-content: center; align-items: center;"">
          <img src=""images/red_deck_2.png"" style=""width: 300px; height: 300px; margin-right: 10px;"" />
          <img src=""images/blue_deck_1.png"" style=""width: 300px; height: 300px;"" />
        </div>","1","5","2","choice","1",""
"","","","","","html-keyboard-response","55","341669","0.0-43.0-1.0-0.0","09BF60420B074B23AEBA62FFC0074D83","0199d676-490a-71e1-bd17-5c270796bab1","0199d675-8795-765b-adc2-c813de8cd3d1","","null","<div style=""display: flex; justify-content: center; align-items: center;"">
                     <img src=""images/semantic/semantic_series_5/semantic_series_5_b.png"" style=""width: 300px; height: 300px;"" />
                   </div>","null","5","2","B","",""
"","","","","","html-keyboard-response","56","347677","0.0-43.0-1.0-1.0","09BF60420B074B23AEBA62FFC0074D83","0199d676-490a-71e1-bd17-5c270796bab1","0199d675-8795-765b-adc2-c813de8cd3d1","","null","<div style=""display: flex; justify-content: center; align-items: center;"">
                     <img src=""images/semantic/semantic_series_5/semantic_series_5_c.png"" style=""width: 300px; height: 300px;"" />
                   </div>","null","5","2","C","",""
"","","","","","html-keyboard-response","57","353678","0.0-43.0-1.0-2.0","09BF60420B074B23AEBA62FFC0074D83","0199d676-490a-71e1-bd17-5c270796bab1","0199d675-8795-765b-adc2-c813de8cd3d1","","null","<div style=""display: flex; justify-content: center; align-items: center;"">
                     <img src=""images/semantic/semantic_series_5/semantic_series_5_d.png"" style=""width: 300px; height: 300px;"" />
                   </div>","null","5","2","D","",""
"","","","","","survey-likert","58","355956","0.0-44.0","09BF60420B074B23AEBA62FFC0074D83","0199d676-490a-71e1-bd17-5c270796bab1","0199d675-8795-765b-adc2-c813de8cd3d1","","2277","","{""Q0"":4}","5","2","surprise_rating","","[0]"
"","","","","","survey-likert","59","358259","0.0-45.0","09BF60420B074B23AEBA62FFC0074D83","0199d676-490a-71e1-bd17-5c270796bab1","0199d675-8795-765b-adc2-c813de8cd3d1","","2302","","{""Q0"":3}","5","2","enjoyment_rating","","[0]"
"","","","","","html-keyboard-response","60","364265","0.0-46.0","09BF60420B074B23AEBA62FFC0074D83","0199d676-490a-71e1-bd17-5c270796bab1","0199d675-8795-765b-adc2-c813de8cd3d1","","null","<div style=""display: flex; justify-content: center; align-items: center;"">
                     <img src=""images/other/blank.png"" style=""width: 300px; height: 300px;"" />
                   </div>","null","0","0","blank","",""
"","","","","","html-keyboard-response","61","370272","0.0-47.0","09BF60420B074B23AEBA62FFC0074D83","0199d676-490a-71e1-bd17-5c270796bab1","0199d675-8795-765b-adc2-c813de8cd3d1","","null","<div style=""display: flex; justify-content: center; align-items: center;"">
                     <img src=""images/causal/causal_series_3/causal_series_3_a.png"" style=""width: 300px; height: 300px;"" />
                   </div>","null","3","2","A","",""
"","","","","","html-button-response","62","372107","0.0-48.0","09BF60420B074B23AEBA62FFC0074D83","0199d676-490a-71e1-bd17-5c270796bab1","0199d675-8795-765b-adc2-c813de8cd3d1","","1834","
        <div style=""display: flex; justify-content: center; align-items: center;"">
          <img src=""images/red_deck_2.png"" style=""width: 300px; height: 300px; margin-right: 10px;"" />
          <img src=""images/blue_deck_1.png"" style=""width: 300px; height: 300px;"" />
        </div>","1","3","2","choice","1",""
"","","","","","html-keyboard-response","63","378119","0.0-49.0-1.0-0.0","09BF60420B074B23AEBA62FFC0074D83","0199d676-490a-71e1-bd17-5c270796bab1","0199d675-8795-765b-adc2-c813de8cd3d1","","null","<div style=""display: flex; justify-content: center; align-items: center;"">
                     <img src=""images/semantic/semantic_series_3/semantic_series_3_b.png"" style=""width: 300px; height: 300px;"" />
                   </div>","null","3","2","B","",""
"","","","","","html-keyboard-response","64","384132","0.0-49.0-1.0-1.0","09BF60420B074B23AEBA62FFC0074D83","0199d676-490a-71e1-bd17-5c270796bab1","0199d675-8795-765b-adc2-c813de8cd3d1","","null","<div style=""display: flex; justify-content: center; align-items: center;"">
                     <img src=""images/semantic/semantic_series_3/semantic_series_3_c.png"" style=""width: 300px; height: 300px;"" />
                   </div>","null","3","2","C","",""
"","","","","","html-keyboard-response","65","390133","0.0-49.0-1.0-2.0","09BF60420B074B23AEBA62FFC0074D83","0199d676-490a-71e1-bd17-5c270796bab1","0199d675-8795-765b-adc2-c813de8cd3d1","","null","<div style=""display: flex; justify-content: center; align-items: center;"">
                     <img src=""images/semantic/semantic_series_3/semantic_series_3_d.png"" style=""width: 300px; height: 300px;"" />
                   </div>","null","3","2","D","",""
"","","","","","survey-likert","66","394292","0.0-50.0","09BF60420B074B23AEBA62FFC0074D83","0199d676-490a-71e1-bd17-5c270796bab1","0199d675-8795-765b-adc2-c813de8cd3d1","","4157","","{""Q0"":3}","3","2","surprise_rating","","[0]"
"","","","","","survey-likert","67","397611","0.0-51.0","09BF60420B074B23AEBA62FFC0074D83","0199d676-490a-71e1-bd17-5c270796bab1","0199d675-8795-765b-adc2-c813de8cd3d1","","3319","","{""Q0"":2}","3","2","enjoyment_rating","","[0]"
"","","","","","html-keyboard-response","68","403621","0.0-52.0","09BF60420B074B23AEBA62FFC0074D83","0199d676-490a-71e1-bd17-5c270796bab1","0199d675-8795-765b-adc2-c813de8cd3d1","","null","<div style=""display: flex; justify-content: center; align-items: center;"">
                     <img src=""images/other/blank.png"" style=""width: 300px; height: 300px;"" />
                   </div>","null","0","0","blank","",""
"","","","","","html-keyboard-response","69","409623","0.0-53.0","09BF60420B074B23AEBA62FFC0074D83","0199d676-490a-71e1-bd17-5c270796bab1","0199d675-8795-765b-adc2-c813de8cd3d1","","null","<div style=""display: flex; justify-content: center; align-items: center;"">
                     <img src=""images/causal/causal_series_1/causal_series_1_a.png"" style=""width: 300px; height: 300px;"" />
                   </div>","null","1","2","A","",""
"","","","","","html-button-response","70","411475","0.0-54.0","09BF60420B074B23AEBA62FFC0074D83","0199d676-490a-71e1-bd17-5c270796bab1","0199d675-8795-765b-adc2-c813de8cd3d1","","1851","
        <div style=""display: flex; justify-content: center; align-items: center;"">
          <img src=""images/red_deck_2.png"" style=""width: 300px; height: 300px; margin-right: 10px;"" />
          <img src=""images/blue_deck_1.png"" style=""width: 300px; height: 300px;"" />
        </div>","1","1","2","choice","1",""
"","","","","","html-keyboard-response","71","417476","0.0-55.0-1.0-0.0","09BF60420B074B23AEBA62FFC0074D83","0199d676-490a-71e1-bd17-5c270796bab1","0199d675-8795-765b-adc2-c813de8cd3d1","","null","<div style=""display: flex; justify-content: center; align-items: center;"">
                     <img src=""images/semantic/semantic_series_1/semantic_series_1_b.png"" style=""width: 300px; height: 300px;"" />
                   </div>","null","1","2","B","",""
"","","","","","html-keyboard-response","72","423478","0.0-55.0-1.0-1.0","09BF60420B074B23AEBA62FFC0074D83","0199d676-490a-71e1-bd17-5c270796bab1","0199d675-8795-765b-adc2-c813de8cd3d1","","null","<div style=""display: flex; justify-content: center; align-items: center;"">
                     <img src=""images/semantic/semantic_series_1/semantic_series_1_c.png"" style=""width: 300px; height: 300px;"" />
                   </div>","null","1","2","C","",""
"","","","","","html-keyboard-response","73","429480","0.0-55.0-1.0-2.0","09BF60420B074B23AEBA62FFC0074D83","0199d676-490a-71e1-bd17-5c270796bab1","0199d675-8795-765b-adc2-c813de8cd3d1","","null","<div style=""display: flex; justify-content: center; align-items: center;"">
                     <img src=""images/semantic/semantic_series_1/semantic_series_1_d.png"" style=""width: 300px; height: 300px;"" />
                   </div>","null","1","2","D","",""
"","","","","","survey-likert","74","434803","0.0-56.0","09BF60420B074B23AEBA62FFC0074D83","0199d676-490a-71e1-bd17-5c270796bab1","0199d675-8795-765b-adc2-c813de8cd3d1","","5322","","{""Q0"":3}","1","2","surprise_rating","","[0]"
"","","","","","survey-likert","75","436315","0.0-57.0","09BF60420B074B23AEBA62FFC0074D83","0199d676-490a-71e1-bd17-5c270796bab1","0199d675-8795-765b-adc2-c813de8cd3d1","","1511","","{""Q0"":2}","1","2","enjoyment_rating","","[0]"
"","","","","","html-keyboard-response","76","442318","0.0-58.0","09BF60420B074B23AEBA62FFC0074D83","0199d676-490a-71e1-bd17-5c270796bab1","0199d675-8795-765b-adc2-c813de8cd3d1","","null","<div style=""display: flex; justify-content: center; align-items: center;"">
                     <img src=""images/other/blank.png"" style=""width: 300px; height: 300px;"" />
                   </div>","null","0","0","blank","",""
"","","","","","html-keyboard-response","77","448334","0.0-59.0","09BF60420B074B23AEBA62FFC0074D83","0199d676-490a-71e1-bd17-5c270796bab1","0199d675-8795-765b-adc2-c813de8cd3d1","","null","<div style=""display: flex; justify-content: center; align-items: center;"">
                     <img src=""images/causal/causal_series_1/causal_series_1_a.png"" style=""width: 300px; height: 300px;"" />
                   </div>","null","1","1","A","",""
"","","","","","html-button-response","78","450163","0.0-60.0","09BF60420B074B23AEBA62FFC0074D83","0199d676-490a-71e1-bd17-5c270796bab1","0199d675-8795-765b-adc2-c813de8cd3d1","","1828","
        <div style=""display: flex; justify-content: center; align-items: center;"">
          <img src=""images/red_deck_2.png"" style=""width: 300px; height: 300px; margin-right: 10px;"" />
          <img src=""images/blue_deck_1.png"" style=""width: 300px; height: 300px;"" />
        </div>","0","1","1","choice","0",""
"","","","","","html-keyboard-response","79","456172","0.0-61.0-0.0-0.0","09BF60420B074B23AEBA62FFC0074D83","0199d676-490a-71e1-bd17-5c270796bab1","0199d675-8795-765b-adc2-c813de8cd3d1","","null","<div style=""display: flex; justify-content: center; align-items: center;"">
                     <img src=""images/causal/causal_series_1/causal_series_1_b.png"" style=""width: 300px; height: 300px;"" />
                   </div>","null","1","1","B","",""
"","","","","","html-keyboard-response","80","462179","0.0-61.0-0.0-1.0","09BF60420B074B23AEBA62FFC0074D83","0199d676-490a-71e1-bd17-5c270796bab1","0199d675-8795-765b-adc2-c813de8cd3d1","","null","<div style=""display: flex; justify-content: center; align-items: center;"">
                     <img src=""images/causal/causal_series_1/causal_series_1_c.png"" style=""width: 300px; height: 300px;"" />
                   </div>","null","1","1","C","",""
"","","","","","html-keyboard-response","81","468181","0.0-61.0-0.0-2.0","09BF60420B074B23AEBA62FFC0074D83","0199d676-490a-71e1-bd17-5c270796bab1","0199d675-8795-765b-adc2-c813de8cd3d1","","null","<div style=""display: flex; justify-content: center; align-items: center;"">
                     <img src=""images/causal/causal_series_1/causal_series_1_d.png"" style=""width: 300px; height: 300px;"" />
                   </div>","null","1","1","D","",""
"","","","","","survey-likert","82","471483","0.0-62.0","09BF60420B074B23AEBA62FFC0074D83","0199d676-490a-71e1-bd17-5c270796bab1","0199d675-8795-765b-adc2-c813de8cd3d1","","3301","","{""Q0"":3}","1","1","surprise_rating","","[0]"
"","","","","","survey-likert","83","473099","0.0-63.0","09BF60420B074B23AEBA62FFC0074D83","0199d676-490a-71e1-bd17-5c270796bab1","0199d675-8795-765b-adc2-c813de8cd3d1","","1615","","{""Q0"":2}","1","1","enjoyment_rating","","[0]"
"","","","","","html-keyboard-response","84","479113","0.0-64.0","09BF60420B074B23AEBA62FFC0074D83","0199d676-490a-71e1-bd17-5c270796bab1","0199d675-8795-765b-adc2-c813de8cd3d1","","null","<div style=""display: flex; justify-content: center; align-items: center;"">
                     <img src=""images/other/blank.png"" style=""width: 300px; height: 300px;"" />
                   </div>","null","0","0","blank","",""
"","","","","","html-keyboard-response","85","485123","0.0-65.0","09BF60420B074B23AEBA62FFC0074D83","0199d676-490a-71e1-bd17-5c270796bab1","0199d675-8795-765b-adc2-c813de8cd3d1","","null","<div style=""display: flex; justify-content: center; align-items: center;"">
                     <img src=""images/causal/causal_series_8/causal_series_8_a.png"" style=""width: 300px; height: 300px;"" />
                   </div>","null","8","1","A","",""
"","","","","","html-button-response","86","487667","0.0-66.0","09BF60420B074B23AEBA62FFC0074D83","0199d676-490a-71e1-bd17-5c270796bab1","0199d675-8795-765b-adc2-c813de8cd3d1","","2543","
        <div style=""display: flex; justify-content: center; align-items: center;"">
          <img src=""images/red_deck_2.png"" style=""width: 300px; height: 300px; margin-right: 10px;"" />
          <img src=""images/blue_deck_1.png"" style=""width: 300px; height: 300px;"" />
        </div>","0","8","1","choice","0",""
"","","","","","html-keyboard-response","87","493683","0.0-67.0-0.0-0.0","09BF60420B074B23AEBA62FFC0074D83","0199d676-490a-71e1-bd17-5c270796bab1","0199d675-8795-765b-adc2-c813de8cd3d1","","null","<div style=""display: flex; justify-content: center; align-items: center;"">
                     <img src=""images/causal/causal_series_8/causal_series_8_b.png"" style=""width: 300px; height: 300px;"" />
                   </div>","null","8","1","B","",""
"","","","","","html-keyboard-response","88","499687","0.0-67.0-0.0-1.0","09BF60420B074B23AEBA62FFC0074D83","0199d676-490a-71e1-bd17-5c270796bab1","0199d675-8795-765b-adc2-c813de8cd3d1","","null","<div style=""display: flex; justify-content: center; align-items: center;"">
                     <img src=""images/causal/causal_series_8/causal_series_8_c.png"" style=""width: 300px; height: 300px;"" />
                   </div>","null","8","1","C","",""
"","","","","","html-keyboard-response","89","505689","0.0-67.0-0.0-2.0","09BF60420B074B23AEBA62FFC0074D83","0199d676-490a-71e1-bd17-5c270796bab1","0199d675-8795-765b-adc2-c813de8cd3d1","","null","<div style=""display: flex; justify-content: center; align-items: center;"">
                     <img src=""images/causal/causal_series_8/causal_series_8_d.png"" style=""width: 300px; height: 300px;"" />
                   </div>","null","8","1","D","",""
"","","","","","survey-likert","90","509659","0.0-68.0","09BF60420B074B23AEBA62FFC0074D83","0199d676-490a-71e1-bd17-5c270796bab1","0199d675-8795-765b-adc2-c813de8cd3d1","","3969","","{""Q0"":4}","8","1","surprise_rating","","[0]"
"","","","","","survey-likert","91","511315","0.0-69.0","09BF60420B074B23AEBA62FFC0074D83","0199d676-490a-71e1-bd17-5c270796bab1","0199d675-8795-765b-adc2-c813de8cd3d1","","1655","","{""Q0"":3}","8","1","enjoyment_rating","","[0]"
"","","","","","html-keyboard-response","92","517324","0.0-70.0","09BF60420B074B23AEBA62FFC0074D83","0199d676-490a-71e1-bd17-5c270796bab1","0199d675-8795-765b-adc2-c813de8cd3d1","","null","<div style=""display: flex; justify-content: center; align-items: center;"">
                     <img src=""images/other/blank.png"" style=""width: 300px; height: 300px;"" />
                   </div>","null","0","0","blank","",""
"","","","","","html-keyboard-response","93","523328","0.0-71.0","09BF60420B074B23AEBA62FFC0074D83","0199d676-490a-71e1-bd17-5c270796bab1","0199d675-8795-765b-adc2-c813de8cd3d1","","null","<div style=""display: flex; justify-content: center; align-items: center;"">
                     <img src=""images/causal/causal_series_9/causal_series_9_a.png"" style=""width: 300px; height: 300px;"" />
                   </div>","null","9","1","A","",""
"","","","","","html-button-response","94","525787","0.0-72.0","09BF60420B074B23AEBA62FFC0074D83","0199d676-490a-71e1-bd17-5c270796bab1","0199d675-8795-765b-adc2-c813de8cd3d1","","2458","
        <div style=""display: flex; justify-content: center; align-items: center;"">
          <img src=""images/red_deck_2.png"" style=""width: 300px; height: 300px; margin-right: 10px;"" />
          <img src=""images/blue_deck_1.png"" style=""width: 300px; height: 300px;"" />
        </div>","1","9","1","choice","1",""
"","","","","","html-keyboard-response","95","531793","0.0-73.0-1.0-0.0","09BF60420B074B23AEBA62FFC0074D83","0199d676-490a-71e1-bd17-5c270796bab1","0199d675-8795-765b-adc2-c813de8cd3d1","","null","<div style=""display: flex; justify-content: center; align-items: center;"">
                     <img src=""images/semantic/semantic_series_9/semantic_series_9_b.png"" style=""width: 300px; height: 300px;"" />
                   </div>","null","9","1","B","",""
"","","","","","html-keyboard-response","96","537806","0.0-73.0-1.0-1.0","09BF60420B074B23AEBA62FFC0074D83","0199d676-490a-71e1-bd17-5c270796bab1","0199d675-8795-765b-adc2-c813de8cd3d1","","null","<div style=""display: flex; justify-content: center; align-items: center;"">
                     <img src=""images/semantic/semantic_series_9/semantic_series_9_c.png"" style=""width: 300px; height: 300px;"" />
                   </div>","null","9","1","C","",""
"","","","","","html-keyboard-response","97","543808","0.0-73.0-1.0-2.0","09BF60420B074B23AEBA62FFC0074D83","0199d676-490a-71e1-bd17-5c270796bab1","0199d675-8795-765b-adc2-c813de8cd3d1","","null","<div style=""display: flex; justify-content: center; align-items: center;"">
                     <img src=""images/semantic/semantic_series_9/semantic_series_9_d.png"" style=""width: 300px; height: 300px;"" />
                   </div>","null","9","1","D","",""
"","","","","","survey-likert","98","548131","0.0-74.0","09BF60420B074B23AEBA62FFC0074D83","0199d676-490a-71e1-bd17-5c270796bab1","0199d675-8795-765b-adc2-c813de8cd3d1","","4323","","{""Q0"":2}","9","1","surprise_rating","","[0]"
"","","","","","survey-likert","99","550011","0.0-75.0","09BF60420B074B23AEBA62FFC0074D83","0199d676-490a-71e1-bd17-5c270796bab1","0199d675-8795-765b-adc2-c813de8cd3d1","","1879","","{""Q0"":1}","9","1","enjoyment_rating","","[0]"
"","","","","","html-keyboard-response","100","556013","0.0-76.0","09BF60420B074B23AEBA62FFC0074D83","0199d676-490a-71e1-bd17-5c270796bab1","0199d675-8795-765b-adc2-c813de8cd3d1","","null","<div style=""display: flex; justify-content: center; align-items: center;"">
                     <img src=""images/other/blank.png"" style=""width: 300px; height: 300px;"" />
                   </div>","null","0","0","blank","",""
"","","","","","html-keyboard-response","101","562015","0.0-77.0","09BF60420B074B23AEBA62FFC0074D83","0199d676-490a-71e1-bd17-5c270796bab1","0199d675-8795-765b-adc2-c813de8cd3d1","","null","<div style=""display: flex; justify-content: center; align-items: center;"">
                     <img src=""images/causal/causal_series_4/causal_series_4_a.png"" style=""width: 300px; height: 300px;"" />
                   </div>","null","4","2","A","",""
"","","","","","html-button-response","102","563259","0.0-78.0","09BF60420B074B23AEBA62FFC0074D83","0199d676-490a-71e1-bd17-5c270796bab1","0199d675-8795-765b-adc2-c813de8cd3d1","","1243","
        <div style=""display: flex; justify-content: center; align-items: center;"">
          <img src=""images/red_deck_2.png"" style=""width: 300px; height: 300px; margin-right: 10px;"" />
          <img src=""images/blue_deck_1.png"" style=""width: 300px; height: 300px;"" />
        </div>","0","4","2","choice","0",""
"","","","","","html-keyboard-response","103","569261","0.0-79.0-0.0-0.0","09BF60420B074B23AEBA62FFC0074D83","0199d676-490a-71e1-bd17-5c270796bab1","0199d675-8795-765b-adc2-c813de8cd3d1","","null","<div style=""display: flex; justify-content: center; align-items: center;"">
                     <img src=""images/causal/causal_series_4/causal_series_4_b.png"" style=""width: 300px; height: 300px;"" />
                   </div>","null","4","2","B","",""
"","","","","","html-keyboard-response","104","575268","0.0-79.0-0.0-1.0","09BF60420B074B23AEBA62FFC0074D83","0199d676-490a-71e1-bd17-5c270796bab1","0199d675-8795-765b-adc2-c813de8cd3d1","","null","<div style=""display: flex; justify-content: center; align-items: center;"">
                     <img src=""images/causal/causal_series_4/causal_series_4_c.png"" style=""width: 300px; height: 300px;"" />
                   </div>","null","4","2","C","",""
"","","","","","html-keyboard-response","105","581279","0.0-79.0-0.0-2.0","09BF60420B074B23AEBA62FFC0074D83","0199d676-490a-71e1-bd17-5c270796bab1","0199d675-8795-765b-adc2-c813de8cd3d1","","null","<div style=""display: flex; justify-content: center; align-items: center;"">
                     <img src=""images/causal/causal_series_4/causal_series_4_d.png"" style=""width: 300px; height: 300px;"" />
                   </div>","null","4","2","D","",""
"","","","","","survey-likert","106","584571","0.0-80.0","09BF60420B074B23AEBA62FFC0074D83","0199d676-490a-71e1-bd17-5c270796bab1","0199d675-8795-765b-adc2-c813de8cd3d1","","3292","","{""Q0"":3}","4","2","surprise_rating","","[0]"
"","","","","","survey-likert","107","588411","0.0-81.0","09BF60420B074B23AEBA62FFC0074D83","0199d676-490a-71e1-bd17-5c270796bab1","0199d675-8795-765b-adc2-c813de8cd3d1","","3839","","{""Q0"":3}","4","2","enjoyment_rating","","[0]"
"","","","","","html-keyboard-response","108","594422","0.0-82.0","09BF60420B074B23AEBA62FFC0074D83","0199d676-490a-71e1-bd17-5c270796bab1","0199d675-8795-765b-adc2-c813de8cd3d1","","null","<div style=""display: flex; justify-content: center; align-items: center;"">
                     <img src=""images/other/blank.png"" style=""width: 300px; height: 300px;"" />
                   </div>","null","0","0","blank","",""
"","","","","","html-keyboard-response","109","600424","0.0-83.0","09BF60420B074B23AEBA62FFC0074D83","0199d676-490a-71e1-bd17-5c270796bab1","0199d675-8795-765b-adc2-c813de8cd3d1","","null","<div style=""display: flex; justify-content: center; align-items: center;"">
                     <img src=""images/causal/causal_series_8/causal_series_8_a.png"" style=""width: 300px; height: 300px;"" />
                   </div>","null","8","2","A","",""
"","","","","","html-button-response","110","604859","0.0-84.0","09BF60420B074B23AEBA62FFC0074D83","0199d676-490a-71e1-bd17-5c270796bab1","0199d675-8795-765b-adc2-c813de8cd3d1","","4434","
        <div style=""display: flex; justify-content: center; align-items: center;"">
          <img src=""images/red_deck_2.png"" style=""width: 300px; height: 300px; margin-right: 10px;"" />
          <img src=""images/blue_deck_1.png"" style=""width: 300px; height: 300px;"" />
        </div>","1","8","2","choice","1",""
"","","","","","html-keyboard-response","111","610862","0.0-85.0-1.0-0.0","09BF60420B074B23AEBA62FFC0074D83","0199d676-490a-71e1-bd17-5c270796bab1","0199d675-8795-765b-adc2-c813de8cd3d1","","null","<div style=""display: flex; justify-content: center; align-items: center;"">
                     <img src=""images/semantic/semantic_series_8/semantic_series_8_b.png"" style=""width: 300px; height: 300px;"" />
                   </div>","null","8","2","B","",""
"","","","","","html-keyboard-response","112","616865","0.0-85.0-1.0-1.0","09BF60420B074B23AEBA62FFC0074D83","0199d676-490a-71e1-bd17-5c270796bab1","0199d675-8795-765b-adc2-c813de8cd3d1","","null","<div style=""display: flex; justify-content: center; align-items: center;"">
                     <img src=""images/semantic/semantic_series_8/semantic_series_8_c.png"" style=""width: 300px; height: 300px;"" />
                   </div>","null","8","2","C","",""
"","","","","","html-keyboard-response","113","622874","0.0-85.0-1.0-2.0","09BF60420B074B23AEBA62FFC0074D83","0199d676-490a-71e1-bd17-5c270796bab1","0199d675-8795-765b-adc2-c813de8cd3d1","","null","<div style=""display: flex; justify-content: center; align-items: center;"">
                     <img src=""images/semantic/semantic_series_8/semantic_series_8_d.png"" style=""width: 300px; height: 300px;"" />
                   </div>","null","8","2","D","",""
"","","","","","survey-likert","114","625251","0.0-86.0","09BF60420B074B23AEBA62FFC0074D83","0199d676-490a-71e1-bd17-5c270796bab1","0199d675-8795-765b-adc2-c813de8cd3d1","","2376","","{""Q0"":4}","8","2","surprise_rating","","[0]"
"","","","","","survey-likert","115","627467","0.0-87.0","09BF60420B074B23AEBA62FFC0074D83","0199d676-490a-71e1-bd17-5c270796bab1","0199d675-8795-765b-adc2-c813de8cd3d1","","2215","","{""Q0"":2}","8","2","enjoyment_rating","","[0]"
"","","","","","html-keyboard-response","116","633469","0.0-88.0","09BF60420B074B23AEBA62FFC0074D83","0199d676-490a-71e1-bd17-5c270796bab1","0199d675-8795-765b-adc2-c813de8cd3d1","","null","<div style=""display: flex; justify-content: center; align-items: center;"">
                     <img src=""images/other/blank.png"" style=""width: 300px; height: 300px;"" />
                   </div>","null","0","0","blank","",""
"","","","","","html-keyboard-response","117","639481","0.0-89.0","09BF60420B074B23AEBA62FFC0074D83","0199d676-490a-71e1-bd17-5c270796bab1","0199d675-8795-765b-adc2-c813de8cd3d1","","null","<div style=""display: flex; justify-content: center; align-items: center;"">
                     <img src=""images/causal/causal_series_6/causal_series_6_a.png"" style=""width: 300px; height: 300px;"" />
                   </div>","null","6","2","A","",""
"","","","","","html-button-response","118","640883","0.0-90.0","09BF60420B074B23AEBA62FFC0074D83","0199d676-490a-71e1-bd17-5c270796bab1","0199d675-8795-765b-adc2-c813de8cd3d1","","1401","
        <div style=""display: flex; justify-content: center; align-items: center;"">
          <img src=""images/red_deck_2.png"" style=""width: 300px; height: 300px; margin-right: 10px;"" />
          <img src=""images/blue_deck_1.png"" style=""width: 300px; height: 300px;"" />
        </div>","1","6","2","choice","1",""
"","","","","","html-keyboard-response","119","646888","0.0-91.0-1.0-0.0","09BF60420B074B23AEBA62FFC0074D83","0199d676-490a-71e1-bd17-5c270796bab1","0199d675-8795-765b-adc2-c813de8cd3d1","","null","<div style=""display: flex; justify-content: center; align-items: center;"">
                     <img src=""images/semantic/semantic_series_6/semantic_series_6_b.png"" style=""width: 300px; height: 300px;"" />
                   </div>","null","6","2","B","",""
"","","","","","html-keyboard-response","120","652901","0.0-91.0-1.0-1.0","09BF60420B074B23AEBA62FFC0074D83","0199d676-490a-71e1-bd17-5c270796bab1","0199d675-8795-765b-adc2-c813de8cd3d1","","null","<div style=""display: flex; justify-content: center; align-items: center;"">
                     <img src=""images/semantic/semantic_series_6/semantic_series_6_c.png"" style=""width: 300px; height: 300px;"" />
                   </div>","null","6","2","C","",""
"","","","","","html-keyboard-response","121","658910","0.0-91.0-1.0-2.0","09BF60420B074B23AEBA62FFC0074D83","0199d676-490a-71e1-bd17-5c270796bab1","0199d675-8795-765b-adc2-c813de8cd3d1","","null","<div style=""display: flex; justify-content: center; align-items: center;"">
                     <img src=""images/semantic/semantic_series_6/semantic_series_6_d.png"" style=""width: 300px; height: 300px;"" />
                   </div>","null","6","2","D","",""
"","","","","","survey-likert","122","662027","0.0-92.0","09BF60420B074B23AEBA62FFC0074D83","0199d676-490a-71e1-bd17-5c270796bab1","0199d675-8795-765b-adc2-c813de8cd3d1","","3116","","{""Q0"":2}","6","2","surprise_rating","","[0]"
"","","","","","survey-likert","123","664571","0.0-93.0","09BF60420B074B23AEBA62FFC0074D83","0199d676-490a-71e1-bd17-5c270796bab1","0199d675-8795-765b-adc2-c813de8cd3d1","","2543","","{""Q0"":2}","6","2","enjoyment_rating","","[0]"
"","","","","","html-keyboard-response","124","670573","0.0-94.0","09BF60420B074B23AEBA62FFC0074D83","0199d676-490a-71e1-bd17-5c270796bab1","0199d675-8795-765b-adc2-c813de8cd3d1","","null","<div style=""display: flex; justify-content: center; align-items: center;"">
                     <img src=""images/other/blank.png"" style=""width: 300px; height: 300px;"" />
                   </div>","null","0","0","blank","",""
"","","","","","html-keyboard-response","125","676578","0.0-95.0","09BF60420B074B23AEBA62FFC0074D83","0199d676-490a-71e1-bd17-5c270796bab1","0199d675-8795-765b-adc2-c813de8cd3d1","","null","<div style=""display: flex; justify-content: center; align-items: center;"">
                     <img src=""images/causal/causal_series_4/causal_series_4_a.png"" style=""width: 300px; height: 300px;"" />
                   </div>","null","4","1","A","",""
"","","","","","html-button-response","126","679683","0.0-96.0","09BF60420B074B23AEBA62FFC0074D83","0199d676-490a-71e1-bd17-5c270796bab1","0199d675-8795-765b-adc2-c813de8cd3d1","","3104","
        <div style=""display: flex; justify-content: center; align-items: center;"">
          <img src=""images/red_deck_2.png"" style=""width: 300px; height: 300px; margin-right: 10px;"" />
          <img src=""images/blue_deck_1.png"" style=""width: 300px; height: 300px;"" />
        </div>","1","4","1","choice","1",""
"","","","","","html-keyboard-response","127","685689","0.0-97.0-1.0-0.0","09BF60420B074B23AEBA62FFC0074D83","0199d676-490a-71e1-bd17-5c270796bab1","0199d675-8795-765b-adc2-c813de8cd3d1","","null","<div style=""display: flex; justify-content: center; align-items: center;"">
                     <img src=""images/semantic/semantic_series_4/semantic_series_4_b.png"" style=""width: 300px; height: 300px;"" />
                   </div>","null","4","1","B","",""
"","","","","","html-keyboard-response","128","691703","0.0-97.0-1.0-1.0","09BF60420B074B23AEBA62FFC0074D83","0199d676-490a-71e1-bd17-5c270796bab1","0199d675-8795-765b-adc2-c813de8cd3d1","","null","<div style=""display: flex; justify-content: center; align-items: center;"">
                     <img src=""images/semantic/semantic_series_4/semantic_series_4_c.png"" style=""width: 300px; height: 300px;"" />
                   </div>","null","4","1","C","",""
"","","","","","html-keyboard-response","129","697707","0.0-97.0-1.0-2.0","09BF60420B074B23AEBA62FFC0074D83","0199d676-490a-71e1-bd17-5c270796bab1","0199d675-8795-765b-adc2-c813de8cd3d1","","null","<div style=""display: flex; justify-content: center; align-items: center;"">
                     <img src=""images/semantic/semantic_series_4/semantic_series_4_d.png"" style=""width: 300px; height: 300px;"" />
                   </div>","null","4","1","D","",""
"","","","","","survey-likert","130","702035","0.0-98.0","09BF60420B074B23AEBA62FFC0074D83","0199d676-490a-71e1-bd17-5c270796bab1","0199d675-8795-765b-adc2-c813de8cd3d1","","4327","","{""Q0"":3}","4","1","surprise_rating","","[0]"
"","","","","","survey-likert","131","706667","0.0-99.0","09BF60420B074B23AEBA62FFC0074D83","0199d676-490a-71e1-bd17-5c270796bab1","0199d675-8795-765b-adc2-c813de8cd3d1","","4631","","{""Q0"":4}","4","1","enjoyment_rating","","[0]"
"","","","","","html-keyboard-response","132","712679","0.0-100.0","09BF60420B074B23AEBA62FFC0074D83","0199d676-490a-71e1-bd17-5c270796bab1","0199d675-8795-765b-adc2-c813de8cd3d1","","null","<div style=""display: flex; justify-content: center; align-items: center;"">
                     <img src=""images/other/blank.png"" style=""width: 300px; height: 300px;"" />
                   </div>","null","0","0","blank","",""
"","","","","","html-keyboard-response","133","718694","0.0-101.0","09BF60420B074B23AEBA62FFC0074D83","0199d676-490a-71e1-bd17-5c270796bab1","0199d675-8795-765b-adc2-c813de8cd3d1","","null","<div style=""display: flex; justify-content: center; align-items: center;"">
                     <img src=""images/causal/causal_series_10/causal_series_10_a.png"" style=""width: 300px; height: 300px;"" />
                   </div>","null","10","2","A","",""
"","","","","","html-button-response","134","719883","0.0-102.0","09BF60420B074B23AEBA62FFC0074D83","0199d676-490a-71e1-bd17-5c270796bab1","0199d675-8795-765b-adc2-c813de8cd3d1","","1188","
        <div style=""display: flex; justify-content: center; align-items: center;"">
          <img src=""images/red_deck_2.png"" style=""width: 300px; height: 300px; margin-right: 10px;"" />
          <img src=""images/blue_deck_1.png"" style=""width: 300px; height: 300px;"" />
        </div>","0","10","2","choice","0",""
"","","","","","html-keyboard-response","135","725892","0.0-103.0-0.0-0.0","09BF60420B074B23AEBA62FFC0074D83","0199d676-490a-71e1-bd17-5c270796bab1","0199d675-8795-765b-adc2-c813de8cd3d1","","null","<div style=""display: flex; justify-content: center; align-items: center;"">
                     <img src=""images/causal/causal_series_10/causal_series_10_b.png"" style=""width: 300px; height: 300px;"" />
                   </div>","null","10","2","B","",""
"","","","","","html-keyboard-response","136","731897","0.0-103.0-0.0-1.0","09BF60420B074B23AEBA62FFC0074D83","0199d676-490a-71e1-bd17-5c270796bab1","0199d675-8795-765b-adc2-c813de8cd3d1","","null","<div style=""display: flex; justify-content: center; align-items: center;"">
                     <img src=""images/causal/causal_series_10/causal_series_10_c.png"" style=""width: 300px; height: 300px;"" />
                   </div>","null","10","2","C","",""
"","","","","","html-keyboard-response","137","737900","0.0-103.0-0.0-2.0","09BF60420B074B23AEBA62FFC0074D83","0199d676-490a-71e1-bd17-5c270796bab1","0199d675-8795-765b-adc2-c813de8cd3d1","","null","<div style=""display: flex; justify-content: center; align-items: center;"">
                     <img src=""images/causal/causal_series_10/causal_series_10_d.png"" style=""width: 300px; height: 300px;"" />
                   </div>","null","10","2","D","",""
"","","","","","survey-likert","138","740827","0.0-104.0","09BF60420B074B23AEBA62FFC0074D83","0199d676-490a-71e1-bd17-5c270796bab1","0199d675-8795-765b-adc2-c813de8cd3d1","","2926","","{""Q0"":4}","10","2","surprise_rating","","[0]"
"","","","","","survey-likert","139","745067","0.0-105.0","09BF60420B074B23AEBA62FFC0074D83","0199d676-490a-71e1-bd17-5c270796bab1","0199d675-8795-765b-adc2-c813de8cd3d1","","4239","","{""Q0"":4}","10","2","enjoyment_rating","","[0]"
"","","","","","html-keyboard-response","140","751069","0.0-106.0","09BF60420B074B23AEBA62FFC0074D83","0199d676-490a-71e1-bd17-5c270796bab1","0199d675-8795-765b-adc2-c813de8cd3d1","","null","<div style=""display: flex; justify-content: center; align-items: center;"">
                     <img src=""images/other/blank.png"" style=""width: 300px; height: 300px;"" />
                   </div>","null","0","0","blank","",""
"","","","","","html-keyboard-response","141","757081","0.0-107.0","09BF60420B074B23AEBA62FFC0074D83","0199d676-490a-71e1-bd17-5c270796bab1","0199d675-8795-765b-adc2-c813de8cd3d1","","null","<div style=""display: flex; justify-content: center; align-items: center;"">
                     <img src=""images/causal/causal_series_10/causal_series_10_a.png"" style=""width: 300px; height: 300px;"" />
                   </div>","null","10","1","A","",""
"","","","","","html-button-response","142","758827","0.0-108.0","09BF60420B074B23AEBA62FFC0074D83","0199d676-490a-71e1-bd17-5c270796bab1","0199d675-8795-765b-adc2-c813de8cd3d1","","1745","
        <div style=""display: flex; justify-content: center; align-items: center;"">
          <img src=""images/red_deck_2.png"" style=""width: 300px; height: 300px; margin-right: 10px;"" />
          <img src=""images/blue_deck_1.png"" style=""width: 300px; height: 300px;"" />
        </div>","1","10","1","choice","1",""
"","","","","","html-keyboard-response","143","764831","0.0-109.0-1.0-0.0","09BF60420B074B23AEBA62FFC0074D83","0199d676-490a-71e1-bd17-5c270796bab1","0199d675-8795-765b-adc2-c813de8cd3d1","","null","<div style=""display: flex; justify-content: center; align-items: center;"">
                     <img src=""images/semantic/semantic_series_10/semantic_series_10_b.png"" style=""width: 300px; height: 300px;"" />
                   </div>","null","10","1","B","",""
"","","","","","html-keyboard-response","144","770845","0.0-109.0-1.0-1.0","09BF60420B074B23AEBA62FFC0074D83","0199d676-490a-71e1-bd17-5c270796bab1","0199d675-8795-765b-adc2-c813de8cd3d1","","null","<div style=""display: flex; justify-content: center; align-items: center;"">
                     <img src=""images/semantic/semantic_series_10/semantic_series_10_c.png"" style=""width: 300px; height: 300px;"" />
                   </div>","null","10","1","C","",""
"","","","","","html-keyboard-response","145","776850","0.0-109.0-1.0-2.0","09BF60420B074B23AEBA62FFC0074D83","0199d676-490a-71e1-bd17-5c270796bab1","0199d675-8795-765b-adc2-c813de8cd3d1","","null","<div style=""display: flex; justify-content: center; align-items: center;"">
                     <img src=""images/semantic/semantic_series_10/semantic_series_10_d.png"" style=""width: 300px; height: 300px;"" />
                   </div>","null","10","1","D","",""
"","","","","","survey-likert","146","780971","0.0-110.0","09BF60420B074B23AEBA62FFC0074D83","0199d676-490a-71e1-bd17-5c270796bab1","0199d675-8795-765b-adc2-c813de8cd3d1","","4120","","{""Q0"":4}","10","1","surprise_rating","","[0]"
"","","","","","survey-likert","147","786283","0.0-111.0","09BF60420B074B23AEBA62FFC0074D83","0199d676-490a-71e1-bd17-5c270796bab1","0199d675-8795-765b-adc2-c813de8cd3d1","","5311","","{""Q0"":3}","10","1","enjoyment_rating","","[0]"
"","","","","","html-keyboard-response","148","792295","0.0-112.0","09BF60420B074B23AEBA62FFC0074D83","0199d676-490a-71e1-bd17-5c270796bab1","0199d675-8795-765b-adc2-c813de8cd3d1","","null","<div style=""display: flex; justify-content: center; align-items: center;"">
                     <img src=""images/other/blank.png"" style=""width: 300px; height: 300px;"" />
                   </div>","null","0","0","blank","",""
"","","","","","html-keyboard-response","149","798304","0.0-113.0","09BF60420B074B23AEBA62FFC0074D83","0199d676-490a-71e1-bd17-5c270796bab1","0199d675-8795-765b-adc2-c813de8cd3d1","","null","<div style=""display: flex; justify-content: center; align-items: center;"">
                     <img src=""images/causal/causal_series_7/causal_series_7_a.png"" style=""width: 300px; height: 300px;"" />
                   </div>","null","7","1","A","",""
"","","","","","html-button-response","150","799939","0.0-114.0","09BF60420B074B23AEBA62FFC0074D83","0199d676-490a-71e1-bd17-5c270796bab1","0199d675-8795-765b-adc2-c813de8cd3d1","","1634","
        <div style=""display: flex; justify-content: center; align-items: center;"">
          <img src=""images/red_deck_2.png"" style=""width: 300px; height: 300px; margin-right: 10px;"" />
          <img src=""images/blue_deck_1.png"" style=""width: 300px; height: 300px;"" />
        </div>","1","7","1","choice","1",""
"","","","","","html-keyboard-response","151","805942","0.0-115.0-1.0-0.0","09BF60420B074B23AEBA62FFC0074D83","0199d676-490a-71e1-bd17-5c270796bab1","0199d675-8795-765b-adc2-c813de8cd3d1","","null","<div style=""display: flex; justify-content: center; align-items: center;"">
                     <img src=""images/semantic/semantic_series_7/semantic_series_7_b.png"" style=""width: 300px; height: 300px;"" />
                   </div>","null","7","1","B","",""
"","","","","","html-keyboard-response","152","811950","0.0-115.0-1.0-1.0","09BF60420B074B23AEBA62FFC0074D83","0199d676-490a-71e1-bd17-5c270796bab1","0199d675-8795-765b-adc2-c813de8cd3d1","","null","<div style=""display: flex; justify-content: center; align-items: center;"">
                     <img src=""images/semantic/semantic_series_7/semantic_series_7_c.png"" style=""width: 300px; height: 300px;"" />
                   </div>","null","7","1","C","",""
"","","","","","html-keyboard-response","153","817955","0.0-115.0-1.0-2.0","09BF60420B074B23AEBA62FFC0074D83","0199d676-490a-71e1-bd17-5c270796bab1","0199d675-8795-765b-adc2-c813de8cd3d1","","null","<div style=""display: flex; justify-content: center; align-items: center;"">
                     <img src=""images/semantic/semantic_series_7/semantic_series_7_d.png"" style=""width: 300px; height: 300px;"" />
                   </div>","null","7","1","D","",""
"","","","","","survey-likert","154","821332","0.0-116.0","09BF60420B074B23AEBA62FFC0074D83","0199d676-490a-71e1-bd17-5c270796bab1","0199d675-8795-765b-adc2-c813de8cd3d1","","3375","","{""Q0"":4}","7","1","surprise_rating","","[0]"
"","","","","","survey-likert","155","824659","0.0-117.0","09BF60420B074B23AEBA62FFC0074D83","0199d676-490a-71e1-bd17-5c270796bab1","0199d675-8795-765b-adc2-c813de8cd3d1","","3326","","{""Q0"":1}","7","1","enjoyment_rating","","[0]"
"","","","","","html-keyboard-response","156","830669","0.0-118.0","09BF60420B074B23AEBA62FFC0074D83","0199d676-490a-71e1-bd17-5c270796bab1","0199d675-8795-765b-adc2-c813de8cd3d1","","null","<div style=""display: flex; justify-content: center; align-items: center;"">
                     <img src=""images/other/blank.png"" style=""width: 300px; height: 300px;"" />
                   </div>","null","0","0","blank","",""
"","","","","","html-keyboard-response","157","836676","0.0-119.0","09BF60420B074B23AEBA62FFC0074D83","0199d676-490a-71e1-bd17-5c270796bab1","0199d675-8795-765b-adc2-c813de8cd3d1","","null","<div style=""display: flex; justify-content: center; align-items: center;"">
                     <img src=""images/causal/causal_series_5/causal_series_5_a.png"" style=""width: 300px; height: 300px;"" />
                   </div>","null","5","1","A","",""
"","","","","","html-button-response","158","837883","0.0-120.0","09BF60420B074B23AEBA62FFC0074D83","0199d676-490a-71e1-bd17-5c270796bab1","0199d675-8795-765b-adc2-c813de8cd3d1","","1206","
        <div style=""display: flex; justify-content: center; align-items: center;"">
          <img src=""images/red_deck_2.png"" style=""width: 300px; height: 300px; margin-right: 10px;"" />
          <img src=""images/blue_deck_1.png"" style=""width: 300px; height: 300px;"" />
        </div>","0","5","1","choice","0",""
"","","","","","html-keyboard-response","159","843890","0.0-121.0-0.0-0.0","09BF60420B074B23AEBA62FFC0074D83","0199d676-490a-71e1-bd17-5c270796bab1","0199d675-8795-765b-adc2-c813de8cd3d1","","null","<div style=""display: flex; justify-content: center; align-items: center;"">
                     <img src=""images/causal/causal_series_5/causal_series_5_b.png"" style=""width: 300px; height: 300px;"" />
                   </div>","null","5","1","B","",""
"","","","","","html-keyboard-response","160","849897","0.0-121.0-0.0-1.0","09BF60420B074B23AEBA62FFC0074D83","0199d676-490a-71e1-bd17-5c270796bab1","0199d675-8795-765b-adc2-c813de8cd3d1","","null","<div style=""display: flex; justify-content: center; align-items: center;"">
                     <img src=""images/causal/causal_series_5/causal_series_5_c.png"" style=""width: 300px; height: 300px;"" />
                   </div>","null","5","1","C","",""
"","","","","","html-keyboard-response","161","855909","0.0-121.0-0.0-2.0","09BF60420B074B23AEBA62FFC0074D83","0199d676-490a-71e1-bd17-5c270796bab1","0199d675-8795-765b-adc2-c813de8cd3d1","","null","<div style=""display: flex; justify-content: center; align-items: center;"">
                     <img src=""images/causal/causal_series_5/causal_series_5_d.png"" style=""width: 300px; height: 300px;"" />
                   </div>","null","5","1","D","",""
"","","","","","survey-likert","162","862164","0.0-122.0","09BF60420B074B23AEBA62FFC0074D83","0199d676-490a-71e1-bd17-5c270796bab1","0199d675-8795-765b-adc2-c813de8cd3d1","","6254","","{""Q0"":4}","5","1","surprise_rating","","[0]"
"","","","","","survey-likert","163","864771","0.0-123.0","09BF60420B074B23AEBA62FFC0074D83","0199d676-490a-71e1-bd17-5c270796bab1","0199d675-8795-765b-adc2-c813de8cd3d1","","2606","","{""Q0"":4}","5","1","enjoyment_rating","","[0]"
"","","","","","html-keyboard-response","164","870782","0.0-124.0","09BF60420B074B23AEBA62FFC0074D83","0199d676-490a-71e1-bd17-5c270796bab1","0199d675-8795-765b-adc2-c813de8cd3d1","","null","<div style=""display: flex; justify-content: center; align-items: center;"">
                     <img src=""images/other/blank.png"" style=""width: 300px; height: 300px;"" />
                   </div>","null","0","0","blank","",""
"","","","","","survey-text","165","1014356","0.0-125.0","09BF60420B074B23AEBA62FFC0074D83","0199d676-490a-71e1-bd17-5c270796bab1","0199d675-8795-765b-adc2-c813de8cd3d1","","143557","","{""Q0"":""The difference between the two decks of cards was that the blue deck contains sequences coherent with the story, and the red deck contains sequences that are surprising and unrelated.""}","","","","",""
"","","","","","html-button-response","166","1032195","0.0-126.0","09BF60420B074B23AEBA62FFC0074D83","0199d676-490a-71e1-bd17-5c270796bab1","0199d675-8795-765b-adc2-c813de8cd3d1","","17838","Which color deck do the following sentences continue the story from?","0","","","","",""
"","","","","","html-button-response","167","1039108","0.0-127.0","09BF60420B074B23AEBA62FFC0074D83","0199d676-490a-71e1-bd17-5c270796bab1","0199d675-8795-765b-adc2-c813de8cd3d1","","6912","Which color deck do the following sentences NOT follow the story from?","1","","","","",""
"","","","","","html-button-response","168","1048708","0.0-128.0","09BF60420B074B23AEBA62FFC0074D83","0199d676-490a-71e1-bd17-5c270796bab1","0199d675-8795-765b-adc2-c813de8cd3d1","","9599","Which type of deck did you prefer overall?","1","","","","",""
"","","","","","survey-text","169","1062852","0.0-129.0","09BF60420B074B23AEBA62FFC0074D83","0199d676-490a-71e1-bd17-5c270796bab1","0199d675-8795-765b-adc2-c813de8cd3d1","","14141","","{""Q0"":""Male"",""Q1"":""33""}","","","","",""
"","","","","","instructions","170","1071563","0.0-130.0","09BF60420B074B23AEBA62FFC0074D83","0199d676-490a-71e1-bd17-5c270796bab1","0199d675-8795-765b-adc2-c813de8cd3d1","[{""page_index"":0,""viewing_time"":8710}]","8710","","","","","","",""
