"success","timeout","failed_images","failed_audio","failed_video","trial_type","trial_index","time_elapsed","internal_node_id","subject_id","study_id","session_id","view_history","rt","stimulus","response","series","repetition","phase","choice","question_order"
"true","false","[]","[]","[]","preload","0","320","0.0-0.0","1AF6FF9527134C9BA565A3B5AF4207DA","0199d60a-ef13-745c-ac8f-3dbdbdbb39de","0199d5ef-c7d4-7cab-a194-b2c3afbaf8e8","","","","","","","","",""
"","","","","","instructions","1","5014","0.0-1.0","1AF6FF9527134C9BA565A3B5AF4207DA","0199d60a-ef13-745c-ac8f-3dbdbdbb39de","0199d5ef-c7d4-7cab-a194-b2c3afbaf8e8","[{""page_index"":0,""viewing_time"":4693}]","4693","","","","","","",""
"","","","","","instructions","2","16686","0.0-2.0","1AF6FF9527134C9BA565A3B5AF4207DA","0199d60a-ef13-745c-ac8f-3dbdbdbb39de","0199d5ef-c7d4-7cab-a194-b2c3afbaf8e8","[{""page_index"":0,""viewing_time"":11671}]","11672","","","","","","",""
"true","","","","","fullscreen","3","47177","0.0-3.0","1AF6FF9527134C9BA565A3B5AF4207DA","0199d60a-ef13-745c-ac8f-3dbdbdbb39de","0199d5ef-c7d4-7cab-a194-b2c3afbaf8e8","","29487","","","","","","",""
"","","","","","instructions","4","77607","0.0-4.0","1AF6FF9527134C9BA565A3B5AF4207DA","0199d60a-ef13-745c-ac8f-3dbdbdbb39de","0199d5ef-c7d4-7cab-a194-b2c3afbaf8e8","[{""page_index"":0,""viewing_time"":30429}]","30430","","","","","","",""
"","","","","","html-keyboard-response","5","83610","0.0-5.0","1AF6FF9527134C9BA565A3B5AF4207DA","0199d60a-ef13-745c-ac8f-3dbdbdbb39de","0199d5ef-c7d4-7cab-a194-b2c3afbaf8e8","","null","<div style=""display: flex; justify-content: center; align-items: center;"">
                     <img src=""images/causal/causal_series_2/causal_series_2_a.png"" style=""width: 300px; height: 300px;"" />
                   </div>","null","2","1","A","",""
"","","","","","html-keyboard-response","6","89613","0.0-6.0","1AF6FF9527134C9BA565A3B5AF4207DA","0199d60a-ef13-745c-ac8f-3dbdbdbb39de","0199d5ef-c7d4-7cab-a194-b2c3afbaf8e8","","null","<div style=""display: flex; justify-content: center; align-items: center;"">
                     <img src=""images/causal/causal_series_2/causal_series_2_b.png"" style=""width: 300px; height: 300px;"" />
                   </div>","null","2","1","B","",""
"","","","","","html-keyboard-response","7","95616","0.0-7.0","1AF6FF9527134C9BA565A3B5AF4207DA","0199d60a-ef13-745c-ac8f-3dbdbdbb39de","0199d5ef-c7d4-7cab-a194-b2c3afbaf8e8","","null","<div style=""display: flex; justify-content: center; align-items: center;"">
                     <img src=""images/causal/causal_series_2/causal_series_2_c.png"" style=""width: 300px; height: 300px;"" />
                   </div>","null","2","1","C","",""
"","","","","","html-button-response","8","101607","0.0-8.0","1AF6FF9527134C9BA565A3B5AF4207DA","0199d60a-ef13-745c-ac8f-3dbdbdbb39de","0199d5ef-c7d4-7cab-a194-b2c3afbaf8e8","","5989","
        <div style=""display: flex; justify-content: center; align-items: center;"">
          <img src=""images/red_deck_2.png"" style=""width: 300px; height: 300px; margin-right: 10px;"" />
          <img src=""images/blue_deck_1.png"" style=""width: 300px; height: 300px;"" />
        </div>","1","2","1","choice","1",""
"","","","","","html-keyboard-response","9","107609","0.0-9.0-1.0-0.0","1AF6FF9527134C9BA565A3B5AF4207DA","0199d60a-ef13-745c-ac8f-3dbdbdbb39de","0199d5ef-c7d4-7cab-a194-b2c3afbaf8e8","","null","<div style=""display: flex; justify-content: center; align-items: center;"">
                     <img src=""images/semantic/semantic_series_2/semantic_series_2_d.png"" style=""width: 300px; height: 300px;"" />
                   </div>","null","2","1","D","",""
"","","","","","html-keyboard-response","10","113612","0.0-9.0-1.0-1.0","1AF6FF9527134C9BA565A3B5AF4207DA","0199d60a-ef13-745c-ac8f-3dbdbdbb39de","0199d5ef-c7d4-7cab-a194-b2c3afbaf8e8","","null","<div style=""display: flex; justify-content: center; align-items: center;"">
                     <img src=""images/semantic/semantic_series_2/semantic_series_2_e.png"" style=""width: 300px; height: 300px;"" />
                   </div>","null","2","1","E","",""
"","","","","","html-keyboard-response","11","119614","0.0-9.0-1.0-2.0","1AF6FF9527134C9BA565A3B5AF4207DA","0199d60a-ef13-745c-ac8f-3dbdbdbb39de","0199d5ef-c7d4-7cab-a194-b2c3afbaf8e8","","null","<div style=""display: flex; justify-content: center; align-items: center;"">
                     <img src=""images/semantic/semantic_series_2/semantic_series_2_f.png"" style=""width: 300px; height: 300px;"" />
                   </div>","null","2","1","F","",""
"","","","","","survey-likert","12","129353","0.0-10.0","1AF6FF9527134C9BA565A3B5AF4207DA","0199d60a-ef13-745c-ac8f-3dbdbdbb39de","0199d5ef-c7d4-7cab-a194-b2c3afbaf8e8","","9734","","{""Q0"":1}","2","1","surprise_rating","","[0]"
"","","","","","survey-likert","13","136661","0.0-11.0","1AF6FF9527134C9BA565A3B5AF4207DA","0199d60a-ef13-745c-ac8f-3dbdbdbb39de","0199d5ef-c7d4-7cab-a194-b2c3afbaf8e8","","7306","","{""Q0"":4}","2","1","enjoyment_rating","","[0]"
"","","","","","html-keyboard-response","14","142664","0.0-12.0","1AF6FF9527134C9BA565A3B5AF4207DA","0199d60a-ef13-745c-ac8f-3dbdbdbb39de","0199d5ef-c7d4-7cab-a194-b2c3afbaf8e8","","null","<div style=""display: flex; justify-content: center; align-items: center;"">
                     <img src=""images/other/blank.png"" style=""width: 300px; height: 300px;"" />
                   </div>","null","0","0","blank","",""
"","","","","","html-keyboard-response","15","148667","0.0-13.0","1AF6FF9527134C9BA565A3B5AF4207DA","0199d60a-ef13-745c-ac8f-3dbdbdbb39de","0199d5ef-c7d4-7cab-a194-b2c3afbaf8e8","","null","<div style=""display: flex; justify-content: center; align-items: center;"">
                     <img src=""images/causal/causal_series_5/causal_series_5_a.png"" style=""width: 300px; height: 300px;"" />
                   </div>","null","5","1","A","",""
"","","","","","html-keyboard-response","16","154669","0.0-14.0","1AF6FF9527134C9BA565A3B5AF4207DA","0199d60a-ef13-745c-ac8f-3dbdbdbb39de","0199d5ef-c7d4-7cab-a194-b2c3afbaf8e8","","null","<div style=""display: flex; justify-content: center; align-items: center;"">
                     <img src=""images/causal/causal_series_5/causal_series_5_b.png"" style=""width: 300px; height: 300px;"" />
                   </div>","null","5","1","B","",""
"","","","","","html-keyboard-response","17","160672","0.0-15.0","1AF6FF9527134C9BA565A3B5AF4207DA","0199d60a-ef13-745c-ac8f-3dbdbdbb39de","0199d5ef-c7d4-7cab-a194-b2c3afbaf8e8","","null","<div style=""display: flex; justify-content: center; align-items: center;"">
                     <img src=""images/causal/causal_series_5/causal_series_5_c.png"" style=""width: 300px; height: 300px;"" />
                   </div>","null","5","1","C","",""
"","","","","","html-button-response","18","165978","0.0-16.0","1AF6FF9527134C9BA565A3B5AF4207DA","0199d60a-ef13-745c-ac8f-3dbdbdbb39de","0199d5ef-c7d4-7cab-a194-b2c3afbaf8e8","","5304","
        <div style=""display: flex; justify-content: center; align-items: center;"">
          <img src=""images/red_deck_2.png"" style=""width: 300px; height: 300px; margin-right: 10px;"" />
          <img src=""images/blue_deck_1.png"" style=""width: 300px; height: 300px;"" />
        </div>","0","5","1","choice","0",""
"","","","","","html-keyboard-response","19","171981","0.0-17.0-0.0-0.0","1AF6FF9527134C9BA565A3B5AF4207DA","0199d60a-ef13-745c-ac8f-3dbdbdbb39de","0199d5ef-c7d4-7cab-a194-b2c3afbaf8e8","","null","<div style=""display: flex; justify-content: center; align-items: center;"">
                     <img src=""images/causal/causal_series_5/causal_series_5_d.png"" style=""width: 300px; height: 300px;"" />
                   </div>","null","5","1","D","",""
"","","","","","html-keyboard-response","20","177984","0.0-17.0-0.0-1.0","1AF6FF9527134C9BA565A3B5AF4207DA","0199d60a-ef13-745c-ac8f-3dbdbdbb39de","0199d5ef-c7d4-7cab-a194-b2c3afbaf8e8","","null","<div style=""display: flex; justify-content: center; align-items: center;"">
                     <img src=""images/causal/causal_series_5/causal_series_5_e.png"" style=""width: 300px; height: 300px;"" />
                   </div>","null","5","1","E","",""
"","","","","","html-keyboard-response","21","183986","0.0-17.0-0.0-2.0","1AF6FF9527134C9BA565A3B5AF4207DA","0199d60a-ef13-745c-ac8f-3dbdbdbb39de","0199d5ef-c7d4-7cab-a194-b2c3afbaf8e8","","null","<div style=""display: flex; justify-content: center; align-items: center;"">
                     <img src=""images/causal/causal_series_5/causal_series_5_f.png"" style=""width: 300px; height: 300px;"" />
                   </div>","null","5","1","F","",""
"","","","","","survey-likert","22","188941","0.0-18.0","1AF6FF9527134C9BA565A3B5AF4207DA","0199d60a-ef13-745c-ac8f-3dbdbdbb39de","0199d5ef-c7d4-7cab-a194-b2c3afbaf8e8","","4953","","{""Q0"":4}","5","1","surprise_rating","","[0]"
"","","","","","survey-likert","23","192088","0.0-19.0","1AF6FF9527134C9BA565A3B5AF4207DA","0199d60a-ef13-745c-ac8f-3dbdbdbb39de","0199d5ef-c7d4-7cab-a194-b2c3afbaf8e8","","3145","","{""Q0"":4}","5","1","enjoyment_rating","","[0]"
"","","","","","html-keyboard-response","24","198091","0.0-20.0","1AF6FF9527134C9BA565A3B5AF4207DA","0199d60a-ef13-745c-ac8f-3dbdbdbb39de","0199d5ef-c7d4-7cab-a194-b2c3afbaf8e8","","null","<div style=""display: flex; justify-content: center; align-items: center;"">
                     <img src=""images/other/blank.png"" style=""width: 300px; height: 300px;"" />
                   </div>","null","0","0","blank","",""
"","","","","","html-keyboard-response","25","204093","0.0-21.0","1AF6FF9527134C9BA565A3B5AF4207DA","0199d60a-ef13-745c-ac8f-3dbdbdbb39de","0199d5ef-c7d4-7cab-a194-b2c3afbaf8e8","","null","<div style=""display: flex; justify-content: center; align-items: center;"">
                     <img src=""images/causal/causal_series_9/causal_series_9_a.png"" style=""width: 300px; height: 300px;"" />
                   </div>","null","9","2","A","",""
"","","","","","html-keyboard-response","26","210096","0.0-22.0","1AF6FF9527134C9BA565A3B5AF4207DA","0199d60a-ef13-745c-ac8f-3dbdbdbb39de","0199d5ef-c7d4-7cab-a194-b2c3afbaf8e8","","null","<div style=""display: flex; justify-content: center; align-items: center;"">
                     <img src=""images/causal/causal_series_9/causal_series_9_b.png"" style=""width: 300px; height: 300px;"" />
                   </div>","null","9","2","B","",""
"","","","","","html-keyboard-response","27","216099","0.0-23.0","1AF6FF9527134C9BA565A3B5AF4207DA","0199d60a-ef13-745c-ac8f-3dbdbdbb39de","0199d5ef-c7d4-7cab-a194-b2c3afbaf8e8","","null","<div style=""display: flex; justify-content: center; align-items: center;"">
                     <img src=""images/causal/causal_series_9/causal_series_9_c.png"" style=""width: 300px; height: 300px;"" />
                   </div>","null","9","2","C","",""
"","","","","","html-button-response","28","220614","0.0-24.0","1AF6FF9527134C9BA565A3B5AF4207DA","0199d60a-ef13-745c-ac8f-3dbdbdbb39de","0199d5ef-c7d4-7cab-a194-b2c3afbaf8e8","","4514","
        <div style=""display: flex; justify-content: center; align-items: center;"">
          <img src=""images/red_deck_2.png"" style=""width: 300px; height: 300px; margin-right: 10px;"" />
          <img src=""images/blue_deck_1.png"" style=""width: 300px; height: 300px;"" />
        </div>","1","9","2","choice","1",""
"","","","","","html-keyboard-response","29","226615","0.0-25.0-1.0-0.0","1AF6FF9527134C9BA565A3B5AF4207DA","0199d60a-ef13-745c-ac8f-3dbdbdbb39de","0199d5ef-c7d4-7cab-a194-b2c3afbaf8e8","","null","<div style=""display: flex; justify-content: center; align-items: center;"">
                     <img src=""images/semantic/semantic_series_9/semantic_series_9_d.png"" style=""width: 300px; height: 300px;"" />
                   </div>","null","9","2","D","",""
"","","","","","html-keyboard-response","30","232619","0.0-25.0-1.0-1.0","1AF6FF9527134C9BA565A3B5AF4207DA","0199d60a-ef13-745c-ac8f-3dbdbdbb39de","0199d5ef-c7d4-7cab-a194-b2c3afbaf8e8","","null","<div style=""display: flex; justify-content: center; align-items: center;"">
                     <img src=""images/semantic/semantic_series_9/semantic_series_9_e.png"" style=""width: 300px; height: 300px;"" />
                   </div>","null","9","2","E","",""
"","","","","","html-keyboard-response","31","238621","0.0-25.0-1.0-2.0","1AF6FF9527134C9BA565A3B5AF4207DA","0199d60a-ef13-745c-ac8f-3dbdbdbb39de","0199d5ef-c7d4-7cab-a194-b2c3afbaf8e8","","null","<div style=""display: flex; justify-content: center; align-items: center;"">
                     <img src=""images/semantic/semantic_series_9/semantic_series_9_f.png"" style=""width: 300px; height: 300px;"" />
                   </div>","null","9","2","F","",""
"","","","","","survey-likert","32","247243","0.0-26.0","1AF6FF9527134C9BA565A3B5AF4207DA","0199d60a-ef13-745c-ac8f-3dbdbdbb39de","0199d5ef-c7d4-7cab-a194-b2c3afbaf8e8","","8620","","{""Q0"":3}","9","2","surprise_rating","","[0]"
"","","","","","survey-likert","33","252885","0.0-27.0","1AF6FF9527134C9BA565A3B5AF4207DA","0199d60a-ef13-745c-ac8f-3dbdbdbb39de","0199d5ef-c7d4-7cab-a194-b2c3afbaf8e8","","5640","","{""Q0"":1}","9","2","enjoyment_rating","","[0]"
"","","","","","html-keyboard-response","34","258889","0.0-28.0","1AF6FF9527134C9BA565A3B5AF4207DA","0199d60a-ef13-745c-ac8f-3dbdbdbb39de","0199d5ef-c7d4-7cab-a194-b2c3afbaf8e8","","null","<div style=""display: flex; justify-content: center; align-items: center;"">
                     <img src=""images/other/blank.png"" style=""width: 300px; height: 300px;"" />
                   </div>","null","0","0","blank","",""
"","","","","","html-keyboard-response","35","264892","0.0-29.0","1AF6FF9527134C9BA565A3B5AF4207DA","0199d60a-ef13-745c-ac8f-3dbdbdbb39de","0199d5ef-c7d4-7cab-a194-b2c3afbaf8e8","","null","<div style=""display: flex; justify-content: center; align-items: center;"">
                     <img src=""images/causal/causal_series_3/causal_series_3_a.png"" style=""width: 300px; height: 300px;"" />
                   </div>","null","3","2","A","",""
"","","","","","html-keyboard-response","36","270894","0.0-30.0","1AF6FF9527134C9BA565A3B5AF4207DA","0199d60a-ef13-745c-ac8f-3dbdbdbb39de","0199d5ef-c7d4-7cab-a194-b2c3afbaf8e8","","null","<div style=""display: flex; justify-content: center; align-items: center;"">
                     <img src=""images/causal/causal_series_3/causal_series_3_b.png"" style=""width: 300px; height: 300px;"" />
                   </div>","null","3","2","B","",""
"","","","","","html-keyboard-response","37","276897","0.0-31.0","1AF6FF9527134C9BA565A3B5AF4207DA","0199d60a-ef13-745c-ac8f-3dbdbdbb39de","0199d5ef-c7d4-7cab-a194-b2c3afbaf8e8","","null","<div style=""display: flex; justify-content: center; align-items: center;"">
                     <img src=""images/causal/causal_series_3/causal_series_3_c.png"" style=""width: 300px; height: 300px;"" />
                   </div>","null","3","2","C","",""
"","","","","","html-button-response","38","287642","0.0-32.0","1AF6FF9527134C9BA565A3B5AF4207DA","0199d60a-ef13-745c-ac8f-3dbdbdbb39de","0199d5ef-c7d4-7cab-a194-b2c3afbaf8e8","","10744","
        <div style=""display: flex; justify-content: center; align-items: center;"">
          <img src=""images/red_deck_2.png"" style=""width: 300px; height: 300px; margin-right: 10px;"" />
          <img src=""images/blue_deck_1.png"" style=""width: 300px; height: 300px;"" />
        </div>","0","3","2","choice","0",""
"","","","","","html-keyboard-response","39","293645","0.0-33.0-0.0-0.0","1AF6FF9527134C9BA565A3B5AF4207DA","0199d60a-ef13-745c-ac8f-3dbdbdbb39de","0199d5ef-c7d4-7cab-a194-b2c3afbaf8e8","","null","<div style=""display: flex; justify-content: center; align-items: center;"">
                     <img src=""images/causal/causal_series_3/causal_series_3_d.png"" style=""width: 300px; height: 300px;"" />
                   </div>","null","3","2","D","",""
"","","","","","html-keyboard-response","40","299648","0.0-33.0-0.0-1.0","1AF6FF9527134C9BA565A3B5AF4207DA","0199d60a-ef13-745c-ac8f-3dbdbdbb39de","0199d5ef-c7d4-7cab-a194-b2c3afbaf8e8","","null","<div style=""display: flex; justify-content: center; align-items: center;"">
                     <img src=""images/causal/causal_series_3/causal_series_3_e.png"" style=""width: 300px; height: 300px;"" />
                   </div>","null","3","2","E","",""
"","","","","","html-keyboard-response","41","305651","0.0-33.0-0.0-2.0","1AF6FF9527134C9BA565A3B5AF4207DA","0199d60a-ef13-745c-ac8f-3dbdbdbb39de","0199d5ef-c7d4-7cab-a194-b2c3afbaf8e8","","null","<div style=""display: flex; justify-content: center; align-items: center;"">
                     <img src=""images/causal/causal_series_3/causal_series_3_f.png"" style=""width: 300px; height: 300px;"" />
                   </div>","null","3","2","F","",""
"","","","","","survey-likert","42","317189","0.0-34.0","1AF6FF9527134C9BA565A3B5AF4207DA","0199d60a-ef13-745c-ac8f-3dbdbdbb39de","0199d5ef-c7d4-7cab-a194-b2c3afbaf8e8","","11537","","{""Q0"":3}","3","2","surprise_rating","","[0]"
"","","","","","survey-likert","43","323913","0.0-35.0","1AF6FF9527134C9BA565A3B5AF4207DA","0199d60a-ef13-745c-ac8f-3dbdbdbb39de","0199d5ef-c7d4-7cab-a194-b2c3afbaf8e8","","6722","","{""Q0"":1}","3","2","enjoyment_rating","","[0]"
"","","","","","html-keyboard-response","44","329916","0.0-36.0","1AF6FF9527134C9BA565A3B5AF4207DA","0199d60a-ef13-745c-ac8f-3dbdbdbb39de","0199d5ef-c7d4-7cab-a194-b2c3afbaf8e8","","null","<div style=""display: flex; justify-content: center; align-items: center;"">
                     <img src=""images/other/blank.png"" style=""width: 300px; height: 300px;"" />
                   </div>","null","0","0","blank","",""
"","","","","","html-keyboard-response","45","335919","0.0-37.0","1AF6FF9527134C9BA565A3B5AF4207DA","0199d60a-ef13-745c-ac8f-3dbdbdbb39de","0199d5ef-c7d4-7cab-a194-b2c3afbaf8e8","","null","<div style=""display: flex; justify-content: center; align-items: center;"">
                     <img src=""images/causal/causal_series_10/causal_series_10_a.png"" style=""width: 300px; height: 300px;"" />
                   </div>","null","10","1","A","",""
"","","","","","html-keyboard-response","46","341922","0.0-38.0","1AF6FF9527134C9BA565A3B5AF4207DA","0199d60a-ef13-745c-ac8f-3dbdbdbb39de","0199d5ef-c7d4-7cab-a194-b2c3afbaf8e8","","null","<div style=""display: flex; justify-content: center; align-items: center;"">
                     <img src=""images/causal/causal_series_10/causal_series_10_b.png"" style=""width: 300px; height: 300px;"" />
                   </div>","null","10","1","B","",""
"","","","","","html-keyboard-response","47","347925","0.0-39.0","1AF6FF9527134C9BA565A3B5AF4207DA","0199d60a-ef13-745c-ac8f-3dbdbdbb39de","0199d5ef-c7d4-7cab-a194-b2c3afbaf8e8","","null","<div style=""display: flex; justify-content: center; align-items: center;"">
                     <img src=""images/causal/causal_series_10/causal_series_10_c.png"" style=""width: 300px; height: 300px;"" />
                   </div>","null","10","1","C","",""
"","","","","","html-button-response","48","351443","0.0-40.0","1AF6FF9527134C9BA565A3B5AF4207DA","0199d60a-ef13-745c-ac8f-3dbdbdbb39de","0199d5ef-c7d4-7cab-a194-b2c3afbaf8e8","","3516","
        <div style=""display: flex; justify-content: center; align-items: center;"">
          <img src=""images/red_deck_2.png"" style=""width: 300px; height: 300px; margin-right: 10px;"" />
          <img src=""images/blue_deck_1.png"" style=""width: 300px; height: 300px;"" />
        </div>","1","10","1","choice","1",""
"","","","","","html-keyboard-response","49","357445","0.0-41.0-1.0-0.0","1AF6FF9527134C9BA565A3B5AF4207DA","0199d60a-ef13-745c-ac8f-3dbdbdbb39de","0199d5ef-c7d4-7cab-a194-b2c3afbaf8e8","","null","<div style=""display: flex; justify-content: center; align-items: center;"">
                     <img src=""images/semantic/semantic_series_10/semantic_series_10_d.png"" style=""width: 300px; height: 300px;"" />
                   </div>","null","10","1","D","",""
"","","","","","html-keyboard-response","50","363448","0.0-41.0-1.0-1.0","1AF6FF9527134C9BA565A3B5AF4207DA","0199d60a-ef13-745c-ac8f-3dbdbdbb39de","0199d5ef-c7d4-7cab-a194-b2c3afbaf8e8","","null","<div style=""display: flex; justify-content: center; align-items: center;"">
                     <img src=""images/semantic/semantic_series_10/semantic_series_10_e.png"" style=""width: 300px; height: 300px;"" />
                   </div>","null","10","1","E","",""
"","","","","","html-keyboard-response","51","369451","0.0-41.0-1.0-2.0","1AF6FF9527134C9BA565A3B5AF4207DA","0199d60a-ef13-745c-ac8f-3dbdbdbb39de","0199d5ef-c7d4-7cab-a194-b2c3afbaf8e8","","null","<div style=""display: flex; justify-content: center; align-items: center;"">
                     <img src=""images/semantic/semantic_series_10/semantic_series_10_f.png"" style=""width: 300px; height: 300px;"" />
                   </div>","null","10","1","F","",""
"","","","","","survey-likert","52","372092","0.0-42.0","1AF6FF9527134C9BA565A3B5AF4207DA","0199d60a-ef13-745c-ac8f-3dbdbdbb39de","0199d5ef-c7d4-7cab-a194-b2c3afbaf8e8","","2641","","{""Q0"":3}","10","1","surprise_rating","","[0]"
"","","","","","survey-likert","53","375275","0.0-43.0","1AF6FF9527134C9BA565A3B5AF4207DA","0199d60a-ef13-745c-ac8f-3dbdbdbb39de","0199d5ef-c7d4-7cab-a194-b2c3afbaf8e8","","3181","","{""Q0"":2}","10","1","enjoyment_rating","","[0]"
"","","","","","html-keyboard-response","54","381279","0.0-44.0","1AF6FF9527134C9BA565A3B5AF4207DA","0199d60a-ef13-745c-ac8f-3dbdbdbb39de","0199d5ef-c7d4-7cab-a194-b2c3afbaf8e8","","null","<div style=""display: flex; justify-content: center; align-items: center;"">
                     <img src=""images/other/blank.png"" style=""width: 300px; height: 300px;"" />
                   </div>","null","0","0","blank","",""
"","","","","","html-keyboard-response","55","387281","0.0-45.0","1AF6FF9527134C9BA565A3B5AF4207DA","0199d60a-ef13-745c-ac8f-3dbdbdbb39de","0199d5ef-c7d4-7cab-a194-b2c3afbaf8e8","","null","<div style=""display: flex; justify-content: center; align-items: center;"">
                     <img src=""images/causal/causal_series_4/causal_series_4_a.png"" style=""width: 300px; height: 300px;"" />
                   </div>","null","4","2","A","",""
"","","","","","html-keyboard-response","56","393283","0.0-46.0","1AF6FF9527134C9BA565A3B5AF4207DA","0199d60a-ef13-745c-ac8f-3dbdbdbb39de","0199d5ef-c7d4-7cab-a194-b2c3afbaf8e8","","null","<div style=""display: flex; justify-content: center; align-items: center;"">
                     <img src=""images/causal/causal_series_4/causal_series_4_b.png"" style=""width: 300px; height: 300px;"" />
                   </div>","null","4","2","B","",""
"","","","","","html-keyboard-response","57","399286","0.0-47.0","1AF6FF9527134C9BA565A3B5AF4207DA","0199d60a-ef13-745c-ac8f-3dbdbdbb39de","0199d5ef-c7d4-7cab-a194-b2c3afbaf8e8","","null","<div style=""display: flex; justify-content: center; align-items: center;"">
                     <img src=""images/causal/causal_series_4/causal_series_4_c.png"" style=""width: 300px; height: 300px;"" />
                   </div>","null","4","2","C","",""
"","","","","","html-button-response","58","403801","0.0-48.0","1AF6FF9527134C9BA565A3B5AF4207DA","0199d60a-ef13-745c-ac8f-3dbdbdbb39de","0199d5ef-c7d4-7cab-a194-b2c3afbaf8e8","","4513","
        <div style=""display: flex; justify-content: center; align-items: center;"">
          <img src=""images/red_deck_2.png"" style=""width: 300px; height: 300px; margin-right: 10px;"" />
          <img src=""images/blue_deck_1.png"" style=""width: 300px; height: 300px;"" />
        </div>","0","4","2","choice","0",""
"","","","","","html-keyboard-response","59","409803","0.0-49.0-0.0-0.0","1AF6FF9527134C9BA565A3B5AF4207DA","0199d60a-ef13-745c-ac8f-3dbdbdbb39de","0199d5ef-c7d4-7cab-a194-b2c3afbaf8e8","","null","<div style=""display: flex; justify-content: center; align-items: center;"">
                     <img src=""images/causal/causal_series_4/causal_series_4_d.png"" style=""width: 300px; height: 300px;"" />
                   </div>","null","4","2","D","",""
"","","","","","html-keyboard-response","60","415805","0.0-49.0-0.0-1.0","1AF6FF9527134C9BA565A3B5AF4207DA","0199d60a-ef13-745c-ac8f-3dbdbdbb39de","0199d5ef-c7d4-7cab-a194-b2c3afbaf8e8","","null","<div style=""display: flex; justify-content: center; align-items: center;"">
                     <img src=""images/causal/causal_series_4/causal_series_4_e.png"" style=""width: 300px; height: 300px;"" />
                   </div>","null","4","2","E","",""
"","","","","","html-keyboard-response","61","421808","0.0-49.0-0.0-2.0","1AF6FF9527134C9BA565A3B5AF4207DA","0199d60a-ef13-745c-ac8f-3dbdbdbb39de","0199d5ef-c7d4-7cab-a194-b2c3afbaf8e8","","null","<div style=""display: flex; justify-content: center; align-items: center;"">
                     <img src=""images/causal/causal_series_4/causal_series_4_f.png"" style=""width: 300px; height: 300px;"" />
                   </div>","null","4","2","F","",""
"","","","","","survey-likert","62","427168","0.0-50.0","1AF6FF9527134C9BA565A3B5AF4207DA","0199d60a-ef13-745c-ac8f-3dbdbdbb39de","0199d5ef-c7d4-7cab-a194-b2c3afbaf8e8","","5359","","{""Q0"":4}","4","2","surprise_rating","","[0]"
"","","","","","survey-likert","63","431659","0.0-51.0","1AF6FF9527134C9BA565A3B5AF4207DA","0199d60a-ef13-745c-ac8f-3dbdbdbb39de","0199d5ef-c7d4-7cab-a194-b2c3afbaf8e8","","4489","","{""Q0"":1}","4","2","enjoyment_rating","","[0]"
"","","","","","html-keyboard-response","64","437663","0.0-52.0","1AF6FF9527134C9BA565A3B5AF4207DA","0199d60a-ef13-745c-ac8f-3dbdbdbb39de","0199d5ef-c7d4-7cab-a194-b2c3afbaf8e8","","null","<div style=""display: flex; justify-content: center; align-items: center;"">
                     <img src=""images/other/blank.png"" style=""width: 300px; height: 300px;"" />
                   </div>","null","0","0","blank","",""
"","","","","","html-keyboard-response","65","443665","0.0-53.0","1AF6FF9527134C9BA565A3B5AF4207DA","0199d60a-ef13-745c-ac8f-3dbdbdbb39de","0199d5ef-c7d4-7cab-a194-b2c3afbaf8e8","","null","<div style=""display: flex; justify-content: center; align-items: center;"">
                     <img src=""images/causal/causal_series_3/causal_series_3_a.png"" style=""width: 300px; height: 300px;"" />
                   </div>","null","3","1","A","",""
"","","","","","html-keyboard-response","66","449668","0.0-54.0","1AF6FF9527134C9BA565A3B5AF4207DA","0199d60a-ef13-745c-ac8f-3dbdbdbb39de","0199d5ef-c7d4-7cab-a194-b2c3afbaf8e8","","null","<div style=""display: flex; justify-content: center; align-items: center;"">
                     <img src=""images/causal/causal_series_3/causal_series_3_b.png"" style=""width: 300px; height: 300px;"" />
                   </div>","null","3","1","B","",""
"","","","","","html-keyboard-response","67","455671","0.0-55.0","1AF6FF9527134C9BA565A3B5AF4207DA","0199d60a-ef13-745c-ac8f-3dbdbdbb39de","0199d5ef-c7d4-7cab-a194-b2c3afbaf8e8","","null","<div style=""display: flex; justify-content: center; align-items: center;"">
                     <img src=""images/causal/causal_series_3/causal_series_3_c.png"" style=""width: 300px; height: 300px;"" />
                   </div>","null","3","1","C","",""
"","","","","","html-button-response","68","460835","0.0-56.0","1AF6FF9527134C9BA565A3B5AF4207DA","0199d60a-ef13-745c-ac8f-3dbdbdbb39de","0199d5ef-c7d4-7cab-a194-b2c3afbaf8e8","","5163","
        <div style=""display: flex; justify-content: center; align-items: center;"">
          <img src=""images/red_deck_2.png"" style=""width: 300px; height: 300px; margin-right: 10px;"" />
          <img src=""images/blue_deck_1.png"" style=""width: 300px; height: 300px;"" />
        </div>","0","3","1","choice","0",""
"","","","","","html-keyboard-response","69","466838","0.0-57.0-0.0-0.0","1AF6FF9527134C9BA565A3B5AF4207DA","0199d60a-ef13-745c-ac8f-3dbdbdbb39de","0199d5ef-c7d4-7cab-a194-b2c3afbaf8e8","","null","<div style=""display: flex; justify-content: center; align-items: center;"">
                     <img src=""images/causal/causal_series_3/causal_series_3_d.png"" style=""width: 300px; height: 300px;"" />
                   </div>","null","3","1","D","",""
"","","","","","html-keyboard-response","70","472840","0.0-57.0-0.0-1.0","1AF6FF9527134C9BA565A3B5AF4207DA","0199d60a-ef13-745c-ac8f-3dbdbdbb39de","0199d5ef-c7d4-7cab-a194-b2c3afbaf8e8","","null","<div style=""display: flex; justify-content: center; align-items: center;"">
                     <img src=""images/causal/causal_series_3/causal_series_3_e.png"" style=""width: 300px; height: 300px;"" />
                   </div>","null","3","1","E","",""
"","","","","","html-keyboard-response","71","478842","0.0-57.0-0.0-2.0","1AF6FF9527134C9BA565A3B5AF4207DA","0199d60a-ef13-745c-ac8f-3dbdbdbb39de","0199d5ef-c7d4-7cab-a194-b2c3afbaf8e8","","null","<div style=""display: flex; justify-content: center; align-items: center;"">
                     <img src=""images/causal/causal_series_3/causal_series_3_f.png"" style=""width: 300px; height: 300px;"" />
                   </div>","null","3","1","F","",""
"","","","","","survey-likert","72","484897","0.0-58.0","1AF6FF9527134C9BA565A3B5AF4207DA","0199d60a-ef13-745c-ac8f-3dbdbdbb39de","0199d5ef-c7d4-7cab-a194-b2c3afbaf8e8","","6054","","{""Q0"":1}","3","1","surprise_rating","","[0]"
"","","","","","survey-likert","73","487642","0.0-59.0","1AF6FF9527134C9BA565A3B5AF4207DA","0199d60a-ef13-745c-ac8f-3dbdbdbb39de","0199d5ef-c7d4-7cab-a194-b2c3afbaf8e8","","2743","","{""Q0"":1}","3","1","enjoyment_rating","","[0]"
"","","","","","html-keyboard-response","74","493645","0.0-60.0","1AF6FF9527134C9BA565A3B5AF4207DA","0199d60a-ef13-745c-ac8f-3dbdbdbb39de","0199d5ef-c7d4-7cab-a194-b2c3afbaf8e8","","null","<div style=""display: flex; justify-content: center; align-items: center;"">
                     <img src=""images/other/blank.png"" style=""width: 300px; height: 300px;"" />
                   </div>","null","0","0","blank","",""
"","","","","","html-keyboard-response","75","499647","0.0-61.0","1AF6FF9527134C9BA565A3B5AF4207DA","0199d60a-ef13-745c-ac8f-3dbdbdbb39de","0199d5ef-c7d4-7cab-a194-b2c3afbaf8e8","","null","<div style=""display: flex; justify-content: center; align-items: center;"">
                     <img src=""images/causal/causal_series_1/causal_series_1_a.png"" style=""width: 300px; height: 300px;"" />
                   </div>","null","1","1","A","",""
"","","","","","html-keyboard-response","76","505649","0.0-62.0","1AF6FF9527134C9BA565A3B5AF4207DA","0199d60a-ef13-745c-ac8f-3dbdbdbb39de","0199d5ef-c7d4-7cab-a194-b2c3afbaf8e8","","null","<div style=""display: flex; justify-content: center; align-items: center;"">
                     <img src=""images/causal/causal_series_1/causal_series_1_b.png"" style=""width: 300px; height: 300px;"" />
                   </div>","null","1","1","B","",""
"","","","","","html-keyboard-response","77","511652","0.0-63.0","1AF6FF9527134C9BA565A3B5AF4207DA","0199d60a-ef13-745c-ac8f-3dbdbdbb39de","0199d5ef-c7d4-7cab-a194-b2c3afbaf8e8","","null","<div style=""display: flex; justify-content: center; align-items: center;"">
                     <img src=""images/causal/causal_series_1/causal_series_1_c.png"" style=""width: 300px; height: 300px;"" />
                   </div>","null","1","1","C","",""
"","","","","","html-button-response","78","513363","0.0-64.0","1AF6FF9527134C9BA565A3B5AF4207DA","0199d60a-ef13-745c-ac8f-3dbdbdbb39de","0199d5ef-c7d4-7cab-a194-b2c3afbaf8e8","","1710","
        <div style=""display: flex; justify-content: center; align-items: center;"">
          <img src=""images/red_deck_2.png"" style=""width: 300px; height: 300px; margin-right: 10px;"" />
          <img src=""images/blue_deck_1.png"" style=""width: 300px; height: 300px;"" />
        </div>","1","1","1","choice","1",""
"","","","","","html-keyboard-response","79","519366","0.0-65.0-1.0-0.0","1AF6FF9527134C9BA565A3B5AF4207DA","0199d60a-ef13-745c-ac8f-3dbdbdbb39de","0199d5ef-c7d4-7cab-a194-b2c3afbaf8e8","","null","<div style=""display: flex; justify-content: center; align-items: center;"">
                     <img src=""images/semantic/semantic_series_1/semantic_series_1_d.png"" style=""width: 300px; height: 300px;"" />
                   </div>","null","1","1","D","",""
"","","","","","html-keyboard-response","80","525369","0.0-65.0-1.0-1.0","1AF6FF9527134C9BA565A3B5AF4207DA","0199d60a-ef13-745c-ac8f-3dbdbdbb39de","0199d5ef-c7d4-7cab-a194-b2c3afbaf8e8","","null","<div style=""display: flex; justify-content: center; align-items: center;"">
                     <img src=""images/semantic/semantic_series_1/semantic_series_1_e.png"" style=""width: 300px; height: 300px;"" />
                   </div>","null","1","1","E","",""
"","","","","","html-keyboard-response","81","531372","0.0-65.0-1.0-2.0","1AF6FF9527134C9BA565A3B5AF4207DA","0199d60a-ef13-745c-ac8f-3dbdbdbb39de","0199d5ef-c7d4-7cab-a194-b2c3afbaf8e8","","null","<div style=""display: flex; justify-content: center; align-items: center;"">
                     <img src=""images/semantic/semantic_series_1/semantic_series_1_f.png"" style=""width: 300px; height: 300px;"" />
                   </div>","null","1","1","F","",""
"","","","","","survey-likert","82","541086","0.0-66.0","1AF6FF9527134C9BA565A3B5AF4207DA","0199d60a-ef13-745c-ac8f-3dbdbdbb39de","0199d5ef-c7d4-7cab-a194-b2c3afbaf8e8","","9713","","{""Q0"":0}","1","1","surprise_rating","","[0]"
"","","","","","survey-likert","83","544452","0.0-67.0","1AF6FF9527134C9BA565A3B5AF4207DA","0199d60a-ef13-745c-ac8f-3dbdbdbb39de","0199d5ef-c7d4-7cab-a194-b2c3afbaf8e8","","3364","","{""Q0"":1}","1","1","enjoyment_rating","","[0]"
"","","","","","html-keyboard-response","84","550455","0.0-68.0","1AF6FF9527134C9BA565A3B5AF4207DA","0199d60a-ef13-745c-ac8f-3dbdbdbb39de","0199d5ef-c7d4-7cab-a194-b2c3afbaf8e8","","null","<div style=""display: flex; justify-content: center; align-items: center;"">
                     <img src=""images/other/blank.png"" style=""width: 300px; height: 300px;"" />
                   </div>","null","0","0","blank","",""
"","","","","","html-keyboard-response","85","556456","0.0-69.0","1AF6FF9527134C9BA565A3B5AF4207DA","0199d60a-ef13-745c-ac8f-3dbdbdbb39de","0199d5ef-c7d4-7cab-a194-b2c3afbaf8e8","","null","<div style=""display: flex; justify-content: center; align-items: center;"">
                     <img src=""images/causal/causal_series_1/causal_series_1_a.png"" style=""width: 300px; height: 300px;"" />
                   </div>","null","1","2","A","",""
"","","","","","html-keyboard-response","86","562458","0.0-70.0","1AF6FF9527134C9BA565A3B5AF4207DA","0199d60a-ef13-745c-ac8f-3dbdbdbb39de","0199d5ef-c7d4-7cab-a194-b2c3afbaf8e8","","null","<div style=""display: flex; justify-content: center; align-items: center;"">
                     <img src=""images/causal/causal_series_1/causal_series_1_b.png"" style=""width: 300px; height: 300px;"" />
                   </div>","null","1","2","B","",""
"","","","","","html-keyboard-response","87","568460","0.0-71.0","1AF6FF9527134C9BA565A3B5AF4207DA","0199d60a-ef13-745c-ac8f-3dbdbdbb39de","0199d5ef-c7d4-7cab-a194-b2c3afbaf8e8","","null","<div style=""display: flex; justify-content: center; align-items: center;"">
                     <img src=""images/causal/causal_series_1/causal_series_1_c.png"" style=""width: 300px; height: 300px;"" />
                   </div>","null","1","2","C","",""
"","","","","","html-button-response","88","570102","0.0-72.0","1AF6FF9527134C9BA565A3B5AF4207DA","0199d60a-ef13-745c-ac8f-3dbdbdbb39de","0199d5ef-c7d4-7cab-a194-b2c3afbaf8e8","","1640","
        <div style=""display: flex; justify-content: center; align-items: center;"">
          <img src=""images/red_deck_2.png"" style=""width: 300px; height: 300px; margin-right: 10px;"" />
          <img src=""images/blue_deck_1.png"" style=""width: 300px; height: 300px;"" />
        </div>","0","1","2","choice","0",""
"","","","","","html-keyboard-response","89","576105","0.0-73.0-0.0-0.0","1AF6FF9527134C9BA565A3B5AF4207DA","0199d60a-ef13-745c-ac8f-3dbdbdbb39de","0199d5ef-c7d4-7cab-a194-b2c3afbaf8e8","","null","<div style=""display: flex; justify-content: center; align-items: center;"">
                     <img src=""images/causal/causal_series_1/causal_series_1_d.png"" style=""width: 300px; height: 300px;"" />
                   </div>","null","1","2","D","",""
"","","","","","html-keyboard-response","90","582107","0.0-73.0-0.0-1.0","1AF6FF9527134C9BA565A3B5AF4207DA","0199d60a-ef13-745c-ac8f-3dbdbdbb39de","0199d5ef-c7d4-7cab-a194-b2c3afbaf8e8","","null","<div style=""display: flex; justify-content: center; align-items: center;"">
                     <img src=""images/causal/causal_series_1/causal_series_1_e.png"" style=""width: 300px; height: 300px;"" />
                   </div>","null","1","2","E","",""
"","","","","","html-keyboard-response","91","588110","0.0-73.0-0.0-2.0","1AF6FF9527134C9BA565A3B5AF4207DA","0199d60a-ef13-745c-ac8f-3dbdbdbb39de","0199d5ef-c7d4-7cab-a194-b2c3afbaf8e8","","null","<div style=""display: flex; justify-content: center; align-items: center;"">
                     <img src=""images/causal/causal_series_1/causal_series_1_f.png"" style=""width: 300px; height: 300px;"" />
                   </div>","null","1","2","F","",""
"","","","","","survey-likert","92","598952","0.0-74.0","1AF6FF9527134C9BA565A3B5AF4207DA","0199d60a-ef13-745c-ac8f-3dbdbdbb39de","0199d5ef-c7d4-7cab-a194-b2c3afbaf8e8","","10841","","{""Q0"":2}","1","2","surprise_rating","","[0]"
"","","","","","survey-likert","93","601804","0.0-75.0","1AF6FF9527134C9BA565A3B5AF4207DA","0199d60a-ef13-745c-ac8f-3dbdbdbb39de","0199d5ef-c7d4-7cab-a194-b2c3afbaf8e8","","2850","","{""Q0"":0}","1","2","enjoyment_rating","","[0]"
"","","","","","html-keyboard-response","94","607807","0.0-76.0","1AF6FF9527134C9BA565A3B5AF4207DA","0199d60a-ef13-745c-ac8f-3dbdbdbb39de","0199d5ef-c7d4-7cab-a194-b2c3afbaf8e8","","null","<div style=""display: flex; justify-content: center; align-items: center;"">
                     <img src=""images/other/blank.png"" style=""width: 300px; height: 300px;"" />
                   </div>","null","0","0","blank","",""
"","","","","","html-keyboard-response","95","613810","0.0-77.0","1AF6FF9527134C9BA565A3B5AF4207DA","0199d60a-ef13-745c-ac8f-3dbdbdbb39de","0199d5ef-c7d4-7cab-a194-b2c3afbaf8e8","","null","<div style=""display: flex; justify-content: center; align-items: center;"">
                     <img src=""images/causal/causal_series_4/causal_series_4_a.png"" style=""width: 300px; height: 300px;"" />
                   </div>","null","4","1","A","",""
"","","","","","html-keyboard-response","96","619811","0.0-78.0","1AF6FF9527134C9BA565A3B5AF4207DA","0199d60a-ef13-745c-ac8f-3dbdbdbb39de","0199d5ef-c7d4-7cab-a194-b2c3afbaf8e8","","null","<div style=""display: flex; justify-content: center; align-items: center;"">
                     <img src=""images/causal/causal_series_4/causal_series_4_b.png"" style=""width: 300px; height: 300px;"" />
                   </div>","null","4","1","B","",""
"","","","","","html-keyboard-response","97","625813","0.0-79.0","1AF6FF9527134C9BA565A3B5AF4207DA","0199d60a-ef13-745c-ac8f-3dbdbdbb39de","0199d5ef-c7d4-7cab-a194-b2c3afbaf8e8","","null","<div style=""display: flex; justify-content: center; align-items: center;"">
                     <img src=""images/causal/causal_series_4/causal_series_4_c.png"" style=""width: 300px; height: 300px;"" />
                   </div>","null","4","1","C","",""
"","","","","","html-button-response","98","627216","0.0-80.0","1AF6FF9527134C9BA565A3B5AF4207DA","0199d60a-ef13-745c-ac8f-3dbdbdbb39de","0199d5ef-c7d4-7cab-a194-b2c3afbaf8e8","","1402","
        <div style=""display: flex; justify-content: center; align-items: center;"">
          <img src=""images/red_deck_2.png"" style=""width: 300px; height: 300px; margin-right: 10px;"" />
          <img src=""images/blue_deck_1.png"" style=""width: 300px; height: 300px;"" />
        </div>","1","4","1","choice","1",""
"","","","","","html-keyboard-response","99","633219","0.0-81.0-1.0-0.0","1AF6FF9527134C9BA565A3B5AF4207DA","0199d60a-ef13-745c-ac8f-3dbdbdbb39de","0199d5ef-c7d4-7cab-a194-b2c3afbaf8e8","","null","<div style=""display: flex; justify-content: center; align-items: center;"">
                     <img src=""images/semantic/semantic_series_4/semantic_series_4_d.png"" style=""width: 300px; height: 300px;"" />
                   </div>","null","4","1","D","",""
"","","","","","html-keyboard-response","100","639222","0.0-81.0-1.0-1.0","1AF6FF9527134C9BA565A3B5AF4207DA","0199d60a-ef13-745c-ac8f-3dbdbdbb39de","0199d5ef-c7d4-7cab-a194-b2c3afbaf8e8","","null","<div style=""display: flex; justify-content: center; align-items: center;"">
                     <img src=""images/semantic/semantic_series_4/semantic_series_4_e.png"" style=""width: 300px; height: 300px;"" />
                   </div>","null","4","1","E","",""
"","","","","","html-keyboard-response","101","645224","0.0-81.0-1.0-2.0","1AF6FF9527134C9BA565A3B5AF4207DA","0199d60a-ef13-745c-ac8f-3dbdbdbb39de","0199d5ef-c7d4-7cab-a194-b2c3afbaf8e8","","null","<div style=""display: flex; justify-content: center; align-items: center;"">
                     <img src=""images/semantic/semantic_series_4/semantic_series_4_f.png"" style=""width: 300px; height: 300px;"" />
                   </div>","null","4","1","F","",""
"","","","","","survey-likert","102","650218","0.0-82.0","1AF6FF9527134C9BA565A3B5AF4207DA","0199d60a-ef13-745c-ac8f-3dbdbdbb39de","0199d5ef-c7d4-7cab-a194-b2c3afbaf8e8","","4994","","{""Q0"":1}","4","1","surprise_rating","","[0]"
"","","","","","survey-likert","103","653129","0.0-83.0","1AF6FF9527134C9BA565A3B5AF4207DA","0199d60a-ef13-745c-ac8f-3dbdbdbb39de","0199d5ef-c7d4-7cab-a194-b2c3afbaf8e8","","2908","","{""Q0"":2}","4","1","enjoyment_rating","","[0]"
"","","","","","html-keyboard-response","104","659132","0.0-84.0","1AF6FF9527134C9BA565A3B5AF4207DA","0199d60a-ef13-745c-ac8f-3dbdbdbb39de","0199d5ef-c7d4-7cab-a194-b2c3afbaf8e8","","null","<div style=""display: flex; justify-content: center; align-items: center;"">
                     <img src=""images/other/blank.png"" style=""width: 300px; height: 300px;"" />
                   </div>","null","0","0","blank","",""
"","","","","","html-keyboard-response","105","665134","0.0-85.0","1AF6FF9527134C9BA565A3B5AF4207DA","0199d60a-ef13-745c-ac8f-3dbdbdbb39de","0199d5ef-c7d4-7cab-a194-b2c3afbaf8e8","","null","<div style=""display: flex; justify-content: center; align-items: center;"">
                     <img src=""images/causal/causal_series_2/causal_series_2_a.png"" style=""width: 300px; height: 300px;"" />
                   </div>","null","2","2","A","",""
"","","","","","html-keyboard-response","106","671137","0.0-86.0","1AF6FF9527134C9BA565A3B5AF4207DA","0199d60a-ef13-745c-ac8f-3dbdbdbb39de","0199d5ef-c7d4-7cab-a194-b2c3afbaf8e8","","null","<div style=""display: flex; justify-content: center; align-items: center;"">
                     <img src=""images/causal/causal_series_2/causal_series_2_b.png"" style=""width: 300px; height: 300px;"" />
                   </div>","null","2","2","B","",""
"","","","","","html-keyboard-response","107","677140","0.0-87.0","1AF6FF9527134C9BA565A3B5AF4207DA","0199d60a-ef13-745c-ac8f-3dbdbdbb39de","0199d5ef-c7d4-7cab-a194-b2c3afbaf8e8","","null","<div style=""display: flex; justify-content: center; align-items: center;"">
                     <img src=""images/causal/causal_series_2/causal_series_2_c.png"" style=""width: 300px; height: 300px;"" />
                   </div>","null","2","2","C","",""
"","","","","","html-button-response","108","678952","0.0-88.0","1AF6FF9527134C9BA565A3B5AF4207DA","0199d60a-ef13-745c-ac8f-3dbdbdbb39de","0199d5ef-c7d4-7cab-a194-b2c3afbaf8e8","","1811","
        <div style=""display: flex; justify-content: center; align-items: center;"">
          <img src=""images/red_deck_2.png"" style=""width: 300px; height: 300px; margin-right: 10px;"" />
          <img src=""images/blue_deck_1.png"" style=""width: 300px; height: 300px;"" />
        </div>","0","2","2","choice","0",""
"","","","","","html-keyboard-response","109","684954","0.0-89.0-0.0-0.0","1AF6FF9527134C9BA565A3B5AF4207DA","0199d60a-ef13-745c-ac8f-3dbdbdbb39de","0199d5ef-c7d4-7cab-a194-b2c3afbaf8e8","","null","<div style=""display: flex; justify-content: center; align-items: center;"">
                     <img src=""images/causal/causal_series_2/causal_series_2_d.png"" style=""width: 300px; height: 300px;"" />
                   </div>","null","2","2","D","",""
"","","","","","html-keyboard-response","110","690957","0.0-89.0-0.0-1.0","1AF6FF9527134C9BA565A3B5AF4207DA","0199d60a-ef13-745c-ac8f-3dbdbdbb39de","0199d5ef-c7d4-7cab-a194-b2c3afbaf8e8","","null","<div style=""display: flex; justify-content: center; align-items: center;"">
                     <img src=""images/causal/causal_series_2/causal_series_2_e.png"" style=""width: 300px; height: 300px;"" />
                   </div>","null","2","2","E","",""
"","","","","","html-keyboard-response","111","696959","0.0-89.0-0.0-2.0","1AF6FF9527134C9BA565A3B5AF4207DA","0199d60a-ef13-745c-ac8f-3dbdbdbb39de","0199d5ef-c7d4-7cab-a194-b2c3afbaf8e8","","null","<div style=""display: flex; justify-content: center; align-items: center;"">
                     <img src=""images/causal/causal_series_2/causal_series_2_f.png"" style=""width: 300px; height: 300px;"" />
                   </div>","null","2","2","F","",""
"","","","","","survey-likert","112","700961","0.0-90.0","1AF6FF9527134C9BA565A3B5AF4207DA","0199d60a-ef13-745c-ac8f-3dbdbdbb39de","0199d5ef-c7d4-7cab-a194-b2c3afbaf8e8","","4001","","{""Q0"":2}","2","2","surprise_rating","","[0]"
"","","","","","survey-likert","113","704931","0.0-91.0","1AF6FF9527134C9BA565A3B5AF4207DA","0199d60a-ef13-745c-ac8f-3dbdbdbb39de","0199d5ef-c7d4-7cab-a194-b2c3afbaf8e8","","3968","","{""Q0"":2}","2","2","enjoyment_rating","","[0]"
"","","","","","html-keyboard-response","114","710933","0.0-92.0","1AF6FF9527134C9BA565A3B5AF4207DA","0199d60a-ef13-745c-ac8f-3dbdbdbb39de","0199d5ef-c7d4-7cab-a194-b2c3afbaf8e8","","null","<div style=""display: flex; justify-content: center; align-items: center;"">
                     <img src=""images/other/blank.png"" style=""width: 300px; height: 300px;"" />
                   </div>","null","0","0","blank","",""
"","","","","","html-keyboard-response","115","716935","0.0-93.0","1AF6FF9527134C9BA565A3B5AF4207DA","0199d60a-ef13-745c-ac8f-3dbdbdbb39de","0199d5ef-c7d4-7cab-a194-b2c3afbaf8e8","","null","<div style=""display: flex; justify-content: center; align-items: center;"">
                     <img src=""images/causal/causal_series_9/causal_series_9_a.png"" style=""width: 300px; height: 300px;"" />
                   </div>","null","9","1","A","",""
"","","","","","html-keyboard-response","116","722937","0.0-94.0","1AF6FF9527134C9BA565A3B5AF4207DA","0199d60a-ef13-745c-ac8f-3dbdbdbb39de","0199d5ef-c7d4-7cab-a194-b2c3afbaf8e8","","null","<div style=""display: flex; justify-content: center; align-items: center;"">
                     <img src=""images/causal/causal_series_9/causal_series_9_b.png"" style=""width: 300px; height: 300px;"" />
                   </div>","null","9","1","B","",""
"","","","","","html-keyboard-response","117","728939","0.0-95.0","1AF6FF9527134C9BA565A3B5AF4207DA","0199d60a-ef13-745c-ac8f-3dbdbdbb39de","0199d5ef-c7d4-7cab-a194-b2c3afbaf8e8","","null","<div style=""display: flex; justify-content: center; align-items: center;"">
                     <img src=""images/causal/causal_series_9/causal_series_9_c.png"" style=""width: 300px; height: 300px;"" />
                   </div>","null","9","1","C","",""
"","","","","","html-button-response","118","732182","0.0-96.0","1AF6FF9527134C9BA565A3B5AF4207DA","0199d60a-ef13-745c-ac8f-3dbdbdbb39de","0199d5ef-c7d4-7cab-a194-b2c3afbaf8e8","","3242","
        <div style=""display: flex; justify-content: center; align-items: center;"">
          <img src=""images/red_deck_2.png"" style=""width: 300px; height: 300px; margin-right: 10px;"" />
          <img src=""images/blue_deck_1.png"" style=""width: 300px; height: 300px;"" />
        </div>","1","9","1","choice","1",""
"","","","","","html-keyboard-response","119","738184","0.0-97.0-1.0-0.0","1AF6FF9527134C9BA565A3B5AF4207DA","0199d60a-ef13-745c-ac8f-3dbdbdbb39de","0199d5ef-c7d4-7cab-a194-b2c3afbaf8e8","","null","<div style=""display: flex; justify-content: center; align-items: center;"">
                     <img src=""images/semantic/semantic_series_9/semantic_series_9_d.png"" style=""width: 300px; height: 300px;"" />
                   </div>","null","9","1","D","",""
"","","","","","html-keyboard-response","120","744187","0.0-97.0-1.0-1.0","1AF6FF9527134C9BA565A3B5AF4207DA","0199d60a-ef13-745c-ac8f-3dbdbdbb39de","0199d5ef-c7d4-7cab-a194-b2c3afbaf8e8","","null","<div style=""display: flex; justify-content: center; align-items: center;"">
                     <img src=""images/semantic/semantic_series_9/semantic_series_9_e.png"" style=""width: 300px; height: 300px;"" />
                   </div>","null","9","1","E","",""
"","","","","","html-keyboard-response","121","750190","0.0-97.0-1.0-2.0","1AF6FF9527134C9BA565A3B5AF4207DA","0199d60a-ef13-745c-ac8f-3dbdbdbb39de","0199d5ef-c7d4-7cab-a194-b2c3afbaf8e8","","null","<div style=""display: flex; justify-content: center; align-items: center;"">
                     <img src=""images/semantic/semantic_series_9/semantic_series_9_f.png"" style=""width: 300px; height: 300px;"" />
                   </div>","null","9","1","F","",""
"","","","","","survey-likert","122","754640","0.0-98.0","1AF6FF9527134C9BA565A3B5AF4207DA","0199d60a-ef13-745c-ac8f-3dbdbdbb39de","0199d5ef-c7d4-7cab-a194-b2c3afbaf8e8","","4449","","{""Q0"":2}","9","1","surprise_rating","","[0]"
"","","","","","survey-likert","123","758520","0.0-99.0","1AF6FF9527134C9BA565A3B5AF4207DA","0199d60a-ef13-745c-ac8f-3dbdbdbb39de","0199d5ef-c7d4-7cab-a194-b2c3afbaf8e8","","3878","","{""Q0"":2}","9","1","enjoyment_rating","","[0]"
"","","","","","html-keyboard-response","124","764524","0.0-100.0","1AF6FF9527134C9BA565A3B5AF4207DA","0199d60a-ef13-745c-ac8f-3dbdbdbb39de","0199d5ef-c7d4-7cab-a194-b2c3afbaf8e8","","null","<div style=""display: flex; justify-content: center; align-items: center;"">
                     <img src=""images/other/blank.png"" style=""width: 300px; height: 300px;"" />
                   </div>","null","0","0","blank","",""
"","","","","","html-keyboard-response","125","770526","0.0-101.0","1AF6FF9527134C9BA565A3B5AF4207DA","0199d60a-ef13-745c-ac8f-3dbdbdbb39de","0199d5ef-c7d4-7cab-a194-b2c3afbaf8e8","","null","<div style=""display: flex; justify-content: center; align-items: center;"">
                     <img src=""images/causal/causal_series_6/causal_series_6_a.png"" style=""width: 300px; height: 300px;"" />
                   </div>","null","6","2","A","",""
"","","","","","html-keyboard-response","126","776528","0.0-102.0","1AF6FF9527134C9BA565A3B5AF4207DA","0199d60a-ef13-745c-ac8f-3dbdbdbb39de","0199d5ef-c7d4-7cab-a194-b2c3afbaf8e8","","null","<div style=""display: flex; justify-content: center; align-items: center;"">
                     <img src=""images/causal/causal_series_6/causal_series_6_b.png"" style=""width: 300px; height: 300px;"" />
                   </div>","null","6","2","B","",""
"","","","","","html-keyboard-response","127","782531","0.0-103.0","1AF6FF9527134C9BA565A3B5AF4207DA","0199d60a-ef13-745c-ac8f-3dbdbdbb39de","0199d5ef-c7d4-7cab-a194-b2c3afbaf8e8","","null","<div style=""display: flex; justify-content: center; align-items: center;"">
                     <img src=""images/causal/causal_series_6/causal_series_6_c.png"" style=""width: 300px; height: 300px;"" />
                   </div>","null","6","2","C","",""
"","","","","","html-button-response","128","783863","0.0-104.0","1AF6FF9527134C9BA565A3B5AF4207DA","0199d60a-ef13-745c-ac8f-3dbdbdbb39de","0199d5ef-c7d4-7cab-a194-b2c3afbaf8e8","","1331","
        <div style=""display: flex; justify-content: center; align-items: center;"">
          <img src=""images/red_deck_2.png"" style=""width: 300px; height: 300px; margin-right: 10px;"" />
          <img src=""images/blue_deck_1.png"" style=""width: 300px; height: 300px;"" />
        </div>","0","6","2","choice","0",""
"","","","","","html-keyboard-response","129","789866","0.0-105.0-0.0-0.0","1AF6FF9527134C9BA565A3B5AF4207DA","0199d60a-ef13-745c-ac8f-3dbdbdbb39de","0199d5ef-c7d4-7cab-a194-b2c3afbaf8e8","","null","<div style=""display: flex; justify-content: center; align-items: center;"">
                     <img src=""images/causal/causal_series_6/causal_series_6_d.png"" style=""width: 300px; height: 300px;"" />
                   </div>","null","6","2","D","",""
"","","","","","html-keyboard-response","130","795867","0.0-105.0-0.0-1.0","1AF6FF9527134C9BA565A3B5AF4207DA","0199d60a-ef13-745c-ac8f-3dbdbdbb39de","0199d5ef-c7d4-7cab-a194-b2c3afbaf8e8","","null","<div style=""display: flex; justify-content: center; align-items: center;"">
                     <img src=""images/causal/causal_series_6/causal_series_6_e.png"" style=""width: 300px; height: 300px;"" />
                   </div>","null","6","2","E","",""
"","","","","","html-keyboard-response","131","801870","0.0-105.0-0.0-2.0","1AF6FF9527134C9BA565A3B5AF4207DA","0199d60a-ef13-745c-ac8f-3dbdbdbb39de","0199d5ef-c7d4-7cab-a194-b2c3afbaf8e8","","null","<div style=""display: flex; justify-content: center; align-items: center;"">
                     <img src=""images/causal/causal_series_6/causal_series_6_f.png"" style=""width: 300px; height: 300px;"" />
                   </div>","null","6","2","F","",""
"","","","","","survey-likert","132","805168","0.0-106.0","1AF6FF9527134C9BA565A3B5AF4207DA","0199d60a-ef13-745c-ac8f-3dbdbdbb39de","0199d5ef-c7d4-7cab-a194-b2c3afbaf8e8","","3297","","{""Q0"":3}","6","2","surprise_rating","","[0]"
"","","","","","survey-likert","133","807636","0.0-107.0","1AF6FF9527134C9BA565A3B5AF4207DA","0199d60a-ef13-745c-ac8f-3dbdbdbb39de","0199d5ef-c7d4-7cab-a194-b2c3afbaf8e8","","2466","","{""Q0"":3}","6","2","enjoyment_rating","","[0]"
"","","","","","html-keyboard-response","134","813639","0.0-108.0","1AF6FF9527134C9BA565A3B5AF4207DA","0199d60a-ef13-745c-ac8f-3dbdbdbb39de","0199d5ef-c7d4-7cab-a194-b2c3afbaf8e8","","null","<div style=""display: flex; justify-content: center; align-items: center;"">
                     <img src=""images/other/blank.png"" style=""width: 300px; height: 300px;"" />
                   </div>","null","0","0","blank","",""
"","","","","","html-keyboard-response","135","819641","0.0-109.0","1AF6FF9527134C9BA565A3B5AF4207DA","0199d60a-ef13-745c-ac8f-3dbdbdbb39de","0199d5ef-c7d4-7cab-a194-b2c3afbaf8e8","","null","<div style=""display: flex; justify-content: center; align-items: center;"">
                     <img src=""images/causal/causal_series_6/causal_series_6_a.png"" style=""width: 300px; height: 300px;"" />
                   </div>","null","6","1","A","",""
"","","","","","html-keyboard-response","136","825644","0.0-110.0","1AF6FF9527134C9BA565A3B5AF4207DA","0199d60a-ef13-745c-ac8f-3dbdbdbb39de","0199d5ef-c7d4-7cab-a194-b2c3afbaf8e8","","null","<div style=""display: flex; justify-content: center; align-items: center;"">
                     <img src=""images/causal/causal_series_6/causal_series_6_b.png"" style=""width: 300px; height: 300px;"" />
                   </div>","null","6","1","B","",""
"","","","","","html-keyboard-response","137","831646","0.0-111.0","1AF6FF9527134C9BA565A3B5AF4207DA","0199d60a-ef13-745c-ac8f-3dbdbdbb39de","0199d5ef-c7d4-7cab-a194-b2c3afbaf8e8","","null","<div style=""display: flex; justify-content: center; align-items: center;"">
                     <img src=""images/causal/causal_series_6/causal_series_6_c.png"" style=""width: 300px; height: 300px;"" />
                   </div>","null","6","1","C","",""
"","","","","","html-button-response","138","833271","0.0-112.0","1AF6FF9527134C9BA565A3B5AF4207DA","0199d60a-ef13-745c-ac8f-3dbdbdbb39de","0199d5ef-c7d4-7cab-a194-b2c3afbaf8e8","","1624","
        <div style=""display: flex; justify-content: center; align-items: center;"">
          <img src=""images/red_deck_2.png"" style=""width: 300px; height: 300px; margin-right: 10px;"" />
          <img src=""images/blue_deck_1.png"" style=""width: 300px; height: 300px;"" />
        </div>","1","6","1","choice","1",""
"","","","","","html-keyboard-response","139","839272","0.0-113.0-1.0-0.0","1AF6FF9527134C9BA565A3B5AF4207DA","0199d60a-ef13-745c-ac8f-3dbdbdbb39de","0199d5ef-c7d4-7cab-a194-b2c3afbaf8e8","","null","<div style=""display: flex; justify-content: center; align-items: center;"">
                     <img src=""images/semantic/semantic_series_6/semantic_series_6_d.png"" style=""width: 300px; height: 300px;"" />
                   </div>","null","6","1","D","",""
"","","","","","html-keyboard-response","140","845274","0.0-113.0-1.0-1.0","1AF6FF9527134C9BA565A3B5AF4207DA","0199d60a-ef13-745c-ac8f-3dbdbdbb39de","0199d5ef-c7d4-7cab-a194-b2c3afbaf8e8","","null","<div style=""display: flex; justify-content: center; align-items: center;"">
                     <img src=""images/semantic/semantic_series_6/semantic_series_6_e.png"" style=""width: 300px; height: 300px;"" />
                   </div>","null","6","1","E","",""
"","","","","","html-keyboard-response","141","851277","0.0-113.0-1.0-2.0","1AF6FF9527134C9BA565A3B5AF4207DA","0199d60a-ef13-745c-ac8f-3dbdbdbb39de","0199d5ef-c7d4-7cab-a194-b2c3afbaf8e8","","null","<div style=""display: flex; justify-content: center; align-items: center;"">
                     <img src=""images/semantic/semantic_series_6/semantic_series_6_f.png"" style=""width: 300px; height: 300px;"" />
                   </div>","null","6","1","F","",""
"","","","","","survey-likert","142","858932","0.0-114.0","1AF6FF9527134C9BA565A3B5AF4207DA","0199d60a-ef13-745c-ac8f-3dbdbdbb39de","0199d5ef-c7d4-7cab-a194-b2c3afbaf8e8","","7654","","{""Q0"":1}","6","1","surprise_rating","","[0]"
"","","","","","survey-likert","143","862046","0.0-115.0","1AF6FF9527134C9BA565A3B5AF4207DA","0199d60a-ef13-745c-ac8f-3dbdbdbb39de","0199d5ef-c7d4-7cab-a194-b2c3afbaf8e8","","3111","","{""Q0"":1}","6","1","enjoyment_rating","","[0]"
"","","","","","html-keyboard-response","144","868049","0.0-116.0","1AF6FF9527134C9BA565A3B5AF4207DA","0199d60a-ef13-745c-ac8f-3dbdbdbb39de","0199d5ef-c7d4-7cab-a194-b2c3afbaf8e8","","null","<div style=""display: flex; justify-content: center; align-items: center;"">
                     <img src=""images/other/blank.png"" style=""width: 300px; height: 300px;"" />
                   </div>","null","0","0","blank","",""
"","","","","","html-keyboard-response","145","874051","0.0-117.0","1AF6FF9527134C9BA565A3B5AF4207DA","0199d60a-ef13-745c-ac8f-3dbdbdbb39de","0199d5ef-c7d4-7cab-a194-b2c3afbaf8e8","","null","<div style=""display: flex; justify-content: center; align-items: center;"">
                     <img src=""images/causal/causal_series_8/causal_series_8_a.png"" style=""width: 300px; height: 300px;"" />
                   </div>","null","8","2","A","",""
"","","","","","html-keyboard-response","146","880054","0.0-118.0","1AF6FF9527134C9BA565A3B5AF4207DA","0199d60a-ef13-745c-ac8f-3dbdbdbb39de","0199d5ef-c7d4-7cab-a194-b2c3afbaf8e8","","null","<div style=""display: flex; justify-content: center; align-items: center;"">
                     <img src=""images/causal/causal_series_8/causal_series_8_b.png"" style=""width: 300px; height: 300px;"" />
                   </div>","null","8","2","B","",""
"","","","","","html-keyboard-response","147","886057","0.0-119.0","1AF6FF9527134C9BA565A3B5AF4207DA","0199d60a-ef13-745c-ac8f-3dbdbdbb39de","0199d5ef-c7d4-7cab-a194-b2c3afbaf8e8","","null","<div style=""display: flex; justify-content: center; align-items: center;"">
                     <img src=""images/causal/causal_series_8/causal_series_8_c.png"" style=""width: 300px; height: 300px;"" />
                   </div>","null","8","2","C","",""
"","","","","","html-button-response","148","889113","0.0-120.0","1AF6FF9527134C9BA565A3B5AF4207DA","0199d60a-ef13-745c-ac8f-3dbdbdbb39de","0199d5ef-c7d4-7cab-a194-b2c3afbaf8e8","","3055","
        <div style=""display: flex; justify-content: center; align-items: center;"">
          <img src=""images/red_deck_2.png"" style=""width: 300px; height: 300px; margin-right: 10px;"" />
          <img src=""images/blue_deck_1.png"" style=""width: 300px; height: 300px;"" />
        </div>","0","8","2","choice","0",""
"","","","","","html-keyboard-response","149","895116","0.0-121.0-0.0-0.0","1AF6FF9527134C9BA565A3B5AF4207DA","0199d60a-ef13-745c-ac8f-3dbdbdbb39de","0199d5ef-c7d4-7cab-a194-b2c3afbaf8e8","","null","<div style=""display: flex; justify-content: center; align-items: center;"">
                     <img src=""images/causal/causal_series_8/causal_series_8_d.png"" style=""width: 300px; height: 300px;"" />
                   </div>","null","8","2","D","",""
"","","","","","html-keyboard-response","150","901118","0.0-121.0-0.0-1.0","1AF6FF9527134C9BA565A3B5AF4207DA","0199d60a-ef13-745c-ac8f-3dbdbdbb39de","0199d5ef-c7d4-7cab-a194-b2c3afbaf8e8","","null","<div style=""display: flex; justify-content: center; align-items: center;"">
                     <img src=""images/causal/causal_series_8/causal_series_8_e.png"" style=""width: 300px; height: 300px;"" />
                   </div>","null","8","2","E","",""
"","","","","","html-keyboard-response","151","907120","0.0-121.0-0.0-2.0","1AF6FF9527134C9BA565A3B5AF4207DA","0199d60a-ef13-745c-ac8f-3dbdbdbb39de","0199d5ef-c7d4-7cab-a194-b2c3afbaf8e8","","null","<div style=""display: flex; justify-content: center; align-items: center;"">
                     <img src=""images/causal/causal_series_8/causal_series_8_f.png"" style=""width: 300px; height: 300px;"" />
                   </div>","null","8","2","F","",""
"","","","","","survey-likert","152","910394","0.0-122.0","1AF6FF9527134C9BA565A3B5AF4207DA","0199d60a-ef13-745c-ac8f-3dbdbdbb39de","0199d5ef-c7d4-7cab-a194-b2c3afbaf8e8","","3273","","{""Q0"":3}","8","2","surprise_rating","","[0]"
"","","","","","survey-likert","153","913610","0.0-123.0","1AF6FF9527134C9BA565A3B5AF4207DA","0199d60a-ef13-745c-ac8f-3dbdbdbb39de","0199d5ef-c7d4-7cab-a194-b2c3afbaf8e8","","3213","","{""Q0"":1}","8","2","enjoyment_rating","","[0]"
"","","","","","html-keyboard-response","154","919613","0.0-124.0","1AF6FF9527134C9BA565A3B5AF4207DA","0199d60a-ef13-745c-ac8f-3dbdbdbb39de","0199d5ef-c7d4-7cab-a194-b2c3afbaf8e8","","null","<div style=""display: flex; justify-content: center; align-items: center;"">
                     <img src=""images/other/blank.png"" style=""width: 300px; height: 300px;"" />
                   </div>","null","0","0","blank","",""
"","","","","","html-keyboard-response","155","925614","0.0-125.0","1AF6FF9527134C9BA565A3B5AF4207DA","0199d60a-ef13-745c-ac8f-3dbdbdbb39de","0199d5ef-c7d4-7cab-a194-b2c3afbaf8e8","","null","<div style=""display: flex; justify-content: center; align-items: center;"">
                     <img src=""images/causal/causal_series_7/causal_series_7_a.png"" style=""width: 300px; height: 300px;"" />
                   </div>","null","7","2","A","",""
"","","","","","html-keyboard-response","156","931617","0.0-126.0","1AF6FF9527134C9BA565A3B5AF4207DA","0199d60a-ef13-745c-ac8f-3dbdbdbb39de","0199d5ef-c7d4-7cab-a194-b2c3afbaf8e8","","null","<div style=""display: flex; justify-content: center; align-items: center;"">
                     <img src=""images/causal/causal_series_7/causal_series_7_b.png"" style=""width: 300px; height: 300px;"" />
                   </div>","null","7","2","B","",""
"","","","","","html-keyboard-response","157","937618","0.0-127.0","1AF6FF9527134C9BA565A3B5AF4207DA","0199d60a-ef13-745c-ac8f-3dbdbdbb39de","0199d5ef-c7d4-7cab-a194-b2c3afbaf8e8","","null","<div style=""display: flex; justify-content: center; align-items: center;"">
                     <img src=""images/causal/causal_series_7/causal_series_7_c.png"" style=""width: 300px; height: 300px;"" />
                   </div>","null","7","2","C","",""
"","","","","","html-button-response","158","939483","0.0-128.0","1AF6FF9527134C9BA565A3B5AF4207DA","0199d60a-ef13-745c-ac8f-3dbdbdbb39de","0199d5ef-c7d4-7cab-a194-b2c3afbaf8e8","","1863","
        <div style=""display: flex; justify-content: center; align-items: center;"">
          <img src=""images/red_deck_2.png"" style=""width: 300px; height: 300px; margin-right: 10px;"" />
          <img src=""images/blue_deck_1.png"" style=""width: 300px; height: 300px;"" />
        </div>","0","7","2","choice","0",""
"","","","","","html-keyboard-response","159","945486","0.0-129.0-0.0-0.0","1AF6FF9527134C9BA565A3B5AF4207DA","0199d60a-ef13-745c-ac8f-3dbdbdbb39de","0199d5ef-c7d4-7cab-a194-b2c3afbaf8e8","","null","<div style=""display: flex; justify-content: center; align-items: center;"">
                     <img src=""images/causal/causal_series_7/causal_series_7_d.png"" style=""width: 300px; height: 300px;"" />
                   </div>","null","7","2","D","",""
"","","","","","html-keyboard-response","160","951487","0.0-129.0-0.0-1.0","1AF6FF9527134C9BA565A3B5AF4207DA","0199d60a-ef13-745c-ac8f-3dbdbdbb39de","0199d5ef-c7d4-7cab-a194-b2c3afbaf8e8","","null","<div style=""display: flex; justify-content: center; align-items: center;"">
                     <img src=""images/causal/causal_series_7/causal_series_7_e.png"" style=""width: 300px; height: 300px;"" />
                   </div>","null","7","2","E","",""
"","","","","","html-keyboard-response","161","957490","0.0-129.0-0.0-2.0","1AF6FF9527134C9BA565A3B5AF4207DA","0199d60a-ef13-745c-ac8f-3dbdbdbb39de","0199d5ef-c7d4-7cab-a194-b2c3afbaf8e8","","null","<div style=""display: flex; justify-content: center; align-items: center;"">
                     <img src=""images/causal/causal_series_7/causal_series_7_f.png"" style=""width: 300px; height: 300px;"" />
                   </div>","null","7","2","F","",""
"","","","","","survey-likert","162","962455","0.0-130.0","1AF6FF9527134C9BA565A3B5AF4207DA","0199d60a-ef13-745c-ac8f-3dbdbdbb39de","0199d5ef-c7d4-7cab-a194-b2c3afbaf8e8","","4964","","{""Q0"":2}","7","2","surprise_rating","","[0]"
"","","","","","survey-likert","163","965147","0.0-131.0","1AF6FF9527134C9BA565A3B5AF4207DA","0199d60a-ef13-745c-ac8f-3dbdbdbb39de","0199d5ef-c7d4-7cab-a194-b2c3afbaf8e8","","2690","","{""Q0"":2}","7","2","enjoyment_rating","","[0]"
"","","","","","html-keyboard-response","164","971150","0.0-132.0","1AF6FF9527134C9BA565A3B5AF4207DA","0199d60a-ef13-745c-ac8f-3dbdbdbb39de","0199d5ef-c7d4-7cab-a194-b2c3afbaf8e8","","null","<div style=""display: flex; justify-content: center; align-items: center;"">
                     <img src=""images/other/blank.png"" style=""width: 300px; height: 300px;"" />
                   </div>","null","0","0","blank","",""
"","","","","","html-keyboard-response","165","977153","0.0-133.0","1AF6FF9527134C9BA565A3B5AF4207DA","0199d60a-ef13-745c-ac8f-3dbdbdbb39de","0199d5ef-c7d4-7cab-a194-b2c3afbaf8e8","","null","<div style=""display: flex; justify-content: center; align-items: center;"">
                     <img src=""images/causal/causal_series_5/causal_series_5_a.png"" style=""width: 300px; height: 300px;"" />
                   </div>","null","5","2","A","",""
"","","","","","html-keyboard-response","166","983155","0.0-134.0","1AF6FF9527134C9BA565A3B5AF4207DA","0199d60a-ef13-745c-ac8f-3dbdbdbb39de","0199d5ef-c7d4-7cab-a194-b2c3afbaf8e8","","null","<div style=""display: flex; justify-content: center; align-items: center;"">
                     <img src=""images/causal/causal_series_5/causal_series_5_b.png"" style=""width: 300px; height: 300px;"" />
                   </div>","null","5","2","B","",""
"","","","","","html-keyboard-response","167","989157","0.0-135.0","1AF6FF9527134C9BA565A3B5AF4207DA","0199d60a-ef13-745c-ac8f-3dbdbdbb39de","0199d5ef-c7d4-7cab-a194-b2c3afbaf8e8","","null","<div style=""display: flex; justify-content: center; align-items: center;"">
                     <img src=""images/causal/causal_series_5/causal_series_5_c.png"" style=""width: 300px; height: 300px;"" />
                   </div>","null","5","2","C","",""
"","","","","","html-button-response","168","992814","0.0-136.0","1AF6FF9527134C9BA565A3B5AF4207DA","0199d60a-ef13-745c-ac8f-3dbdbdbb39de","0199d5ef-c7d4-7cab-a194-b2c3afbaf8e8","","3655","
        <div style=""display: flex; justify-content: center; align-items: center;"">
          <img src=""images/red_deck_2.png"" style=""width: 300px; height: 300px; margin-right: 10px;"" />
          <img src=""images/blue_deck_1.png"" style=""width: 300px; height: 300px;"" />
        </div>","1","5","2","choice","1",""
"","","","","","html-keyboard-response","169","998816","0.0-137.0-1.0-0.0","1AF6FF9527134C9BA565A3B5AF4207DA","0199d60a-ef13-745c-ac8f-3dbdbdbb39de","0199d5ef-c7d4-7cab-a194-b2c3afbaf8e8","","null","<div style=""display: flex; justify-content: center; align-items: center;"">
                     <img src=""images/semantic/semantic_series_5/semantic_series_5_d.png"" style=""width: 300px; height: 300px;"" />
                   </div>","null","5","2","D","",""
"","","","","","html-keyboard-response","170","1004817","0.0-137.0-1.0-1.0","1AF6FF9527134C9BA565A3B5AF4207DA","0199d60a-ef13-745c-ac8f-3dbdbdbb39de","0199d5ef-c7d4-7cab-a194-b2c3afbaf8e8","","null","<div style=""display: flex; justify-content: center; align-items: center;"">
                     <img src=""images/semantic/semantic_series_5/semantic_series_5_e.png"" style=""width: 300px; height: 300px;"" />
                   </div>","null","5","2","E","",""
"","","","","","html-keyboard-response","171","1010819","0.0-137.0-1.0-2.0","1AF6FF9527134C9BA565A3B5AF4207DA","0199d60a-ef13-745c-ac8f-3dbdbdbb39de","0199d5ef-c7d4-7cab-a194-b2c3afbaf8e8","","null","<div style=""display: flex; justify-content: center; align-items: center;"">
                     <img src=""images/semantic/semantic_series_5/semantic_series_5_f.png"" style=""width: 300px; height: 300px;"" />
                   </div>","null","5","2","F","",""
"","","","","","survey-likert","172","1016572","0.0-138.0","1AF6FF9527134C9BA565A3B5AF4207DA","0199d60a-ef13-745c-ac8f-3dbdbdbb39de","0199d5ef-c7d4-7cab-a194-b2c3afbaf8e8","","5751","","{""Q0"":4}","5","2","surprise_rating","","[0]"
"","","","","","survey-likert","173","1020270","0.0-139.0","1AF6FF9527134C9BA565A3B5AF4207DA","0199d60a-ef13-745c-ac8f-3dbdbdbb39de","0199d5ef-c7d4-7cab-a194-b2c3afbaf8e8","","3696","","{""Q0"":2}","5","2","enjoyment_rating","","[0]"
"","","","","","html-keyboard-response","174","1026273","0.0-140.0","1AF6FF9527134C9BA565A3B5AF4207DA","0199d60a-ef13-745c-ac8f-3dbdbdbb39de","0199d5ef-c7d4-7cab-a194-b2c3afbaf8e8","","null","<div style=""display: flex; justify-content: center; align-items: center;"">
                     <img src=""images/other/blank.png"" style=""width: 300px; height: 300px;"" />
                   </div>","null","0","0","blank","",""
"","","","","","html-keyboard-response","175","1032276","0.0-141.0","1AF6FF9527134C9BA565A3B5AF4207DA","0199d60a-ef13-745c-ac8f-3dbdbdbb39de","0199d5ef-c7d4-7cab-a194-b2c3afbaf8e8","","null","<div style=""display: flex; justify-content: center; align-items: center;"">
                     <img src=""images/causal/causal_series_7/causal_series_7_a.png"" style=""width: 300px; height: 300px;"" />
                   </div>","null","7","1","A","",""
"","","","","","html-keyboard-response","176","1038278","0.0-142.0","1AF6FF9527134C9BA565A3B5AF4207DA","0199d60a-ef13-745c-ac8f-3dbdbdbb39de","0199d5ef-c7d4-7cab-a194-b2c3afbaf8e8","","null","<div style=""display: flex; justify-content: center; align-items: center;"">
                     <img src=""images/causal/causal_series_7/causal_series_7_b.png"" style=""width: 300px; height: 300px;"" />
                   </div>","null","7","1","B","",""
"","","","","","html-keyboard-response","177","1044280","0.0-143.0","1AF6FF9527134C9BA565A3B5AF4207DA","0199d60a-ef13-745c-ac8f-3dbdbdbb39de","0199d5ef-c7d4-7cab-a194-b2c3afbaf8e8","","null","<div style=""display: flex; justify-content: center; align-items: center;"">
                     <img src=""images/causal/causal_series_7/causal_series_7_c.png"" style=""width: 300px; height: 300px;"" />
                   </div>","null","7","1","C","",""
"","","","","","html-button-response","178","1045956","0.0-144.0","1AF6FF9527134C9BA565A3B5AF4207DA","0199d60a-ef13-745c-ac8f-3dbdbdbb39de","0199d5ef-c7d4-7cab-a194-b2c3afbaf8e8","","1674","
        <div style=""display: flex; justify-content: center; align-items: center;"">
          <img src=""images/red_deck_2.png"" style=""width: 300px; height: 300px; margin-right: 10px;"" />
          <img src=""images/blue_deck_1.png"" style=""width: 300px; height: 300px;"" />
        </div>","1","7","1","choice","1",""
"","","","","","html-keyboard-response","179","1051959","0.0-145.0-1.0-0.0","1AF6FF9527134C9BA565A3B5AF4207DA","0199d60a-ef13-745c-ac8f-3dbdbdbb39de","0199d5ef-c7d4-7cab-a194-b2c3afbaf8e8","","null","<div style=""display: flex; justify-content: center; align-items: center;"">
                     <img src=""images/semantic/semantic_series_7/semantic_series_7_d.png"" style=""width: 300px; height: 300px;"" />
                   </div>","null","7","1","D","",""
"","","","","","html-keyboard-response","180","1057961","0.0-145.0-1.0-1.0","1AF6FF9527134C9BA565A3B5AF4207DA","0199d60a-ef13-745c-ac8f-3dbdbdbb39de","0199d5ef-c7d4-7cab-a194-b2c3afbaf8e8","","null","<div style=""display: flex; justify-content: center; align-items: center;"">
                     <img src=""images/semantic/semantic_series_7/semantic_series_7_e.png"" style=""width: 300px; height: 300px;"" />
                   </div>","null","7","1","E","",""
"","","","","","html-keyboard-response","181","1063963","0.0-145.0-1.0-2.0","1AF6FF9527134C9BA565A3B5AF4207DA","0199d60a-ef13-745c-ac8f-3dbdbdbb39de","0199d5ef-c7d4-7cab-a194-b2c3afbaf8e8","","null","<div style=""display: flex; justify-content: center; align-items: center;"">
                     <img src=""images/semantic/semantic_series_7/semantic_series_7_f.png"" style=""width: 300px; height: 300px;"" />
                   </div>","null","7","1","F","",""
"","","","","","survey-likert","182","1071500","0.0-146.0","1AF6FF9527134C9BA565A3B5AF4207DA","0199d60a-ef13-745c-ac8f-3dbdbdbb39de","0199d5ef-c7d4-7cab-a194-b2c3afbaf8e8","","7536","","{""Q0"":3}","7","1","surprise_rating","","[0]"
"","","","","","survey-likert","183","1074889","0.0-147.0","1AF6FF9527134C9BA565A3B5AF4207DA","0199d60a-ef13-745c-ac8f-3dbdbdbb39de","0199d5ef-c7d4-7cab-a194-b2c3afbaf8e8","","3387","","{""Q0"":1}","7","1","enjoyment_rating","","[0]"
"","","","","","html-keyboard-response","184","1080892","0.0-148.0","1AF6FF9527134C9BA565A3B5AF4207DA","0199d60a-ef13-745c-ac8f-3dbdbdbb39de","0199d5ef-c7d4-7cab-a194-b2c3afbaf8e8","","null","<div style=""display: flex; justify-content: center; align-items: center;"">
                     <img src=""images/other/blank.png"" style=""width: 300px; height: 300px;"" />
                   </div>","null","0","0","blank","",""
"","","","","","html-keyboard-response","185","1086894","0.0-149.0","1AF6FF9527134C9BA565A3B5AF4207DA","0199d60a-ef13-745c-ac8f-3dbdbdbb39de","0199d5ef-c7d4-7cab-a194-b2c3afbaf8e8","","null","<div style=""display: flex; justify-content: center; align-items: center;"">
                     <img src=""images/causal/causal_series_8/causal_series_8_a.png"" style=""width: 300px; height: 300px;"" />
                   </div>","null","8","1","A","",""
"","","","","","html-keyboard-response","186","1092896","0.0-150.0","1AF6FF9527134C9BA565A3B5AF4207DA","0199d60a-ef13-745c-ac8f-3dbdbdbb39de","0199d5ef-c7d4-7cab-a194-b2c3afbaf8e8","","null","<div style=""display: flex; justify-content: center; align-items: center;"">
                     <img src=""images/causal/causal_series_8/causal_series_8_b.png"" style=""width: 300px; height: 300px;"" />
                   </div>","null","8","1","B","",""
"","","","","","html-keyboard-response","187","1098898","0.0-151.0","1AF6FF9527134C9BA565A3B5AF4207DA","0199d60a-ef13-745c-ac8f-3dbdbdbb39de","0199d5ef-c7d4-7cab-a194-b2c3afbaf8e8","","null","<div style=""display: flex; justify-content: center; align-items: center;"">
                     <img src=""images/causal/causal_series_8/causal_series_8_c.png"" style=""width: 300px; height: 300px;"" />
                   </div>","null","8","1","C","",""
"","","","","","html-button-response","188","1100046","0.0-152.0","1AF6FF9527134C9BA565A3B5AF4207DA","0199d60a-ef13-745c-ac8f-3dbdbdbb39de","0199d5ef-c7d4-7cab-a194-b2c3afbaf8e8","","1146","
        <div style=""display: flex; justify-content: center; align-items: center;"">
          <img src=""images/red_deck_2.png"" style=""width: 300px; height: 300px; margin-right: 10px;"" />
          <img src=""images/blue_deck_1.png"" style=""width: 300px; height: 300px;"" />
        </div>","1","8","1","choice","1",""
"","","","","","html-keyboard-response","189","1106049","0.0-153.0-1.0-0.0","1AF6FF9527134C9BA565A3B5AF4207DA","0199d60a-ef13-745c-ac8f-3dbdbdbb39de","0199d5ef-c7d4-7cab-a194-b2c3afbaf8e8","","null","<div style=""display: flex; justify-content: center; align-items: center;"">
                     <img src=""images/semantic/semantic_series_8/semantic_series_8_d.png"" style=""width: 300px; height: 300px;"" />
                   </div>","null","8","1","D","",""
"","","","","","html-keyboard-response","190","1112052","0.0-153.0-1.0-1.0","1AF6FF9527134C9BA565A3B5AF4207DA","0199d60a-ef13-745c-ac8f-3dbdbdbb39de","0199d5ef-c7d4-7cab-a194-b2c3afbaf8e8","","null","<div style=""display: flex; justify-content: center; align-items: center;"">
                     <img src=""images/semantic/semantic_series_8/semantic_series_8_e.png"" style=""width: 300px; height: 300px;"" />
                   </div>","null","8","1","E","",""
"","","","","","html-keyboard-response","191","1118054","0.0-153.0-1.0-2.0","1AF6FF9527134C9BA565A3B5AF4207DA","0199d60a-ef13-745c-ac8f-3dbdbdbb39de","0199d5ef-c7d4-7cab-a194-b2c3afbaf8e8","","null","<div style=""display: flex; justify-content: center; align-items: center;"">
                     <img src=""images/semantic/semantic_series_8/semantic_series_8_f.png"" style=""width: 300px; height: 300px;"" />
                   </div>","null","8","1","F","",""
"","","","","","survey-likert","192","1122611","0.0-154.0","1AF6FF9527134C9BA565A3B5AF4207DA","0199d60a-ef13-745c-ac8f-3dbdbdbb39de","0199d5ef-c7d4-7cab-a194-b2c3afbaf8e8","","4556","","{""Q0"":2}","8","1","surprise_rating","","[0]"
"","","","","","survey-likert","193","1125393","0.0-155.0","1AF6FF9527134C9BA565A3B5AF4207DA","0199d60a-ef13-745c-ac8f-3dbdbdbb39de","0199d5ef-c7d4-7cab-a194-b2c3afbaf8e8","","2780","","{""Q0"":1}","8","1","enjoyment_rating","","[0]"
"","","","","","html-keyboard-response","194","1131396","0.0-156.0","1AF6FF9527134C9BA565A3B5AF4207DA","0199d60a-ef13-745c-ac8f-3dbdbdbb39de","0199d5ef-c7d4-7cab-a194-b2c3afbaf8e8","","null","<div style=""display: flex; justify-content: center; align-items: center;"">
                     <img src=""images/other/blank.png"" style=""width: 300px; height: 300px;"" />
                   </div>","null","0","0","blank","",""
"","","","","","html-keyboard-response","195","1137398","0.0-157.0","1AF6FF9527134C9BA565A3B5AF4207DA","0199d60a-ef13-745c-ac8f-3dbdbdbb39de","0199d5ef-c7d4-7cab-a194-b2c3afbaf8e8","","null","<div style=""display: flex; justify-content: center; align-items: center;"">
                     <img src=""images/causal/causal_series_10/causal_series_10_a.png"" style=""width: 300px; height: 300px;"" />
                   </div>","null","10","2","A","",""
"","","","","","html-keyboard-response","196","1143401","0.0-158.0","1AF6FF9527134C9BA565A3B5AF4207DA","0199d60a-ef13-745c-ac8f-3dbdbdbb39de","0199d5ef-c7d4-7cab-a194-b2c3afbaf8e8","","null","<div style=""display: flex; justify-content: center; align-items: center;"">
                     <img src=""images/causal/causal_series_10/causal_series_10_b.png"" style=""width: 300px; height: 300px;"" />
                   </div>","null","10","2","B","",""
"","","","","","html-keyboard-response","197","1149403","0.0-159.0","1AF6FF9527134C9BA565A3B5AF4207DA","0199d60a-ef13-745c-ac8f-3dbdbdbb39de","0199d5ef-c7d4-7cab-a194-b2c3afbaf8e8","","null","<div style=""display: flex; justify-content: center; align-items: center;"">
                     <img src=""images/causal/causal_series_10/causal_series_10_c.png"" style=""width: 300px; height: 300px;"" />
                   </div>","null","10","2","C","",""
"","","","","","html-button-response","198","1151368","0.0-160.0","1AF6FF9527134C9BA565A3B5AF4207DA","0199d60a-ef13-745c-ac8f-3dbdbdbb39de","0199d5ef-c7d4-7cab-a194-b2c3afbaf8e8","","1964","
        <div style=""display: flex; justify-content: center; align-items: center;"">
          <img src=""images/red_deck_2.png"" style=""width: 300px; height: 300px; margin-right: 10px;"" />
          <img src=""images/blue_deck_1.png"" style=""width: 300px; height: 300px;"" />
        </div>","1","10","2","choice","1",""
"","","","","","html-keyboard-response","199","1157371","0.0-161.0-1.0-0.0","1AF6FF9527134C9BA565A3B5AF4207DA","0199d60a-ef13-745c-ac8f-3dbdbdbb39de","0199d5ef-c7d4-7cab-a194-b2c3afbaf8e8","","null","<div style=""display: flex; justify-content: center; align-items: center;"">
                     <img src=""images/semantic/semantic_series_10/semantic_series_10_d.png"" style=""width: 300px; height: 300px;"" />
                   </div>","null","10","2","D","",""
"","","","","","html-keyboard-response","200","1163373","0.0-161.0-1.0-1.0","1AF6FF9527134C9BA565A3B5AF4207DA","0199d60a-ef13-745c-ac8f-3dbdbdbb39de","0199d5ef-c7d4-7cab-a194-b2c3afbaf8e8","","null","<div style=""display: flex; justify-content: center; align-items: center;"">
                     <img src=""images/semantic/semantic_series_10/semantic_series_10_e.png"" style=""width: 300px; height: 300px;"" />
                   </div>","null","10","2","E","",""
"","","","","","html-keyboard-response","201","1169375","0.0-161.0-1.0-2.0","1AF6FF9527134C9BA565A3B5AF4207DA","0199d60a-ef13-745c-ac8f-3dbdbdbb39de","0199d5ef-c7d4-7cab-a194-b2c3afbaf8e8","","null","<div style=""display: flex; justify-content: center; align-items: center;"">
                     <img src=""images/semantic/semantic_series_10/semantic_series_10_f.png"" style=""width: 300px; height: 300px;"" />
                   </div>","null","10","2","F","",""
"","","","","","survey-likert","202","1173977","0.0-162.0","1AF6FF9527134C9BA565A3B5AF4207DA","0199d60a-ef13-745c-ac8f-3dbdbdbb39de","0199d5ef-c7d4-7cab-a194-b2c3afbaf8e8","","4600","","{""Q0"":2}","10","2","surprise_rating","","[0]"
"","","","","","survey-likert","203","1178172","0.0-163.0","1AF6FF9527134C9BA565A3B5AF4207DA","0199d60a-ef13-745c-ac8f-3dbdbdbb39de","0199d5ef-c7d4-7cab-a194-b2c3afbaf8e8","","4192","","{""Q0"":1}","10","2","enjoyment_rating","","[0]"
"","","","","","html-keyboard-response","204","1184174","0.0-164.0","1AF6FF9527134C9BA565A3B5AF4207DA","0199d60a-ef13-745c-ac8f-3dbdbdbb39de","0199d5ef-c7d4-7cab-a194-b2c3afbaf8e8","","null","<div style=""display: flex; justify-content: center; align-items: center;"">
                     <img src=""images/other/blank.png"" style=""width: 300px; height: 300px;"" />
                   </div>","null","0","0","blank","",""
"","","","","","survey-text","205","1224226","0.0-165.0","1AF6FF9527134C9BA565A3B5AF4207DA","0199d60a-ef13-745c-ac8f-3dbdbdbb39de","0199d5ef-c7d4-7cab-a194-b2c3afbaf8e8","","40044","","{""Q0"":""The blue deck seems more surprising with crazier scenarios.""}","","","","",""
"","","","","","html-button-response","206","1270167","0.0-166.0","1AF6FF9527134C9BA565A3B5AF4207DA","0199d60a-ef13-745c-ac8f-3dbdbdbb39de","0199d5ef-c7d4-7cab-a194-b2c3afbaf8e8","","45941","Which color deck do the following sentences continue the story from?","1","","","","",""
"","","","","","html-button-response","207","1278607","0.0-167.0","1AF6FF9527134C9BA565A3B5AF4207DA","0199d60a-ef13-745c-ac8f-3dbdbdbb39de","0199d5ef-c7d4-7cab-a194-b2c3afbaf8e8","","8439","Which color deck do the following sentences NOT follow the story from?","0","","","","",""
"","","","","","html-button-response","208","1315354","0.0-168.0","1AF6FF9527134C9BA565A3B5AF4207DA","0199d60a-ef13-745c-ac8f-3dbdbdbb39de","0199d5ef-c7d4-7cab-a194-b2c3afbaf8e8","","36748","Which type of deck did you prefer overall?","1","","","","",""
"","","","","","survey-text","209","1322278","0.0-169.0","1AF6FF9527134C9BA565A3B5AF4207DA","0199d60a-ef13-745c-ac8f-3dbdbdbb39de","0199d5ef-c7d4-7cab-a194-b2c3afbaf8e8","","6922","","{""Q0"":""FEMALE"",""Q1"":""32""}","","","","",""
"","","","","","instructions","210","1327293","0.0-170.0","1AF6FF9527134C9BA565A3B5AF4207DA","0199d60a-ef13-745c-ac8f-3dbdbdbb39de","0199d5ef-c7d4-7cab-a194-b2c3afbaf8e8","[{""page_index"":0,""viewing_time"":5014}]","5014","","","","","","",""
