"success","timeout","failed_images","failed_audio","failed_video","trial_type","trial_index","time_elapsed","internal_node_id","subject_id","study_id","session_id","view_history","rt","stimulus","response","series","repetition","phase","choice","question_order"
"true","false","[]","[]","[]","preload","0","3622","0.0-0.0","7FCB39F0125447ED8B97A593D856EA62","0199d5ff-7210-7b53-b9ce-ff93156cc0ab","0199d5ef-c7d4-7cab-a194-b2c3afbaf8e8","","","","","","","","",""
"","","","","","instructions","1","629106","0.0-1.0","7FCB39F0125447ED8B97A593D856EA62","0199d5ff-7210-7b53-b9ce-ff93156cc0ab","0199d5ef-c7d4-7cab-a194-b2c3afbaf8e8","[{""page_index"":0,""viewing_time"":625482}]","625483","","","","","","",""
"","","","","","instructions","2","635448","0.0-2.0","7FCB39F0125447ED8B97A593D856EA62","0199d5ff-7210-7b53-b9ce-ff93156cc0ab","0199d5ef-c7d4-7cab-a194-b2c3afbaf8e8","[{""page_index"":0,""viewing_time"":6340}]","6341","","","","","","",""
"true","","","","","fullscreen","3","638042","0.0-3.0","7FCB39F0125447ED8B97A593D856EA62","0199d5ff-7210-7b53-b9ce-ff93156cc0ab","0199d5ef-c7d4-7cab-a194-b2c3afbaf8e8","","1588","","","","","","",""
"","","","","","instructions","4","681237","0.0-4.0","7FCB39F0125447ED8B97A593D856EA62","0199d5ff-7210-7b53-b9ce-ff93156cc0ab","0199d5ef-c7d4-7cab-a194-b2c3afbaf8e8","[{""page_index"":0,""viewing_time"":43194}]","43195","","","","","","",""
"","","","","","html-keyboard-response","5","687244","0.0-5.0","7FCB39F0125447ED8B97A593D856EA62","0199d5ff-7210-7b53-b9ce-ff93156cc0ab","0199d5ef-c7d4-7cab-a194-b2c3afbaf8e8","","null","<div style=""display: flex; justify-content: center; align-items: center;"">
                     <img src=""images/causal/causal_series_10/causal_series_10_a.png"" style=""width: 300px; height: 300px;"" />
                   </div>","null","10","2","A","",""
"","","","","","html-keyboard-response","6","693254","0.0-6.0","7FCB39F0125447ED8B97A593D856EA62","0199d5ff-7210-7b53-b9ce-ff93156cc0ab","0199d5ef-c7d4-7cab-a194-b2c3afbaf8e8","","null","<div style=""display: flex; justify-content: center; align-items: center;"">
                     <img src=""images/causal/causal_series_10/causal_series_10_b.png"" style=""width: 300px; height: 300px;"" />
                   </div>","null","10","2","B","",""
"","","","","","html-keyboard-response","7","699268","0.0-7.0","7FCB39F0125447ED8B97A593D856EA62","0199d5ff-7210-7b53-b9ce-ff93156cc0ab","0199d5ef-c7d4-7cab-a194-b2c3afbaf8e8","","null","<div style=""display: flex; justify-content: center; align-items: center;"">
                     <img src=""images/causal/causal_series_10/causal_series_10_c.png"" style=""width: 300px; height: 300px;"" />
                   </div>","null","10","2","C","",""
"","","","","","html-button-response","8","702090","0.0-8.0","7FCB39F0125447ED8B97A593D856EA62","0199d5ff-7210-7b53-b9ce-ff93156cc0ab","0199d5ef-c7d4-7cab-a194-b2c3afbaf8e8","","2820","
        <div style=""display: flex; justify-content: center; align-items: center;"">
          <img src=""images/red_deck_2.png"" style=""width: 300px; height: 300px; margin-right: 10px;"" />
          <img src=""images/blue_deck_1.png"" style=""width: 300px; height: 300px;"" />
        </div>","0","10","2","choice","0",""
"","","","","","html-keyboard-response","9","708098","0.0-9.0-0.0-0.0","7FCB39F0125447ED8B97A593D856EA62","0199d5ff-7210-7b53-b9ce-ff93156cc0ab","0199d5ef-c7d4-7cab-a194-b2c3afbaf8e8","","null","<div style=""display: flex; justify-content: center; align-items: center;"">
                     <img src=""images/causal/causal_series_10/causal_series_10_d.png"" style=""width: 300px; height: 300px;"" />
                   </div>","null","10","2","D","",""
"","","","","","html-keyboard-response","10","714100","0.0-9.0-0.0-1.0","7FCB39F0125447ED8B97A593D856EA62","0199d5ff-7210-7b53-b9ce-ff93156cc0ab","0199d5ef-c7d4-7cab-a194-b2c3afbaf8e8","","null","<div style=""display: flex; justify-content: center; align-items: center;"">
                     <img src=""images/causal/causal_series_10/causal_series_10_e.png"" style=""width: 300px; height: 300px;"" />
                   </div>","null","10","2","E","",""
"","","","","","html-keyboard-response","11","720114","0.0-9.0-0.0-2.0","7FCB39F0125447ED8B97A593D856EA62","0199d5ff-7210-7b53-b9ce-ff93156cc0ab","0199d5ef-c7d4-7cab-a194-b2c3afbaf8e8","","null","<div style=""display: flex; justify-content: center; align-items: center;"">
                     <img src=""images/causal/causal_series_10/causal_series_10_f.png"" style=""width: 300px; height: 300px;"" />
                   </div>","null","10","2","F","",""
"","","","","","survey-likert","12","724796","0.0-10.0","7FCB39F0125447ED8B97A593D856EA62","0199d5ff-7210-7b53-b9ce-ff93156cc0ab","0199d5ef-c7d4-7cab-a194-b2c3afbaf8e8","","4680","","{""Q0"":2}","10","2","surprise_rating","","[0]"
"","","","","","survey-likert","13","728975","0.0-11.0","7FCB39F0125447ED8B97A593D856EA62","0199d5ff-7210-7b53-b9ce-ff93156cc0ab","0199d5ef-c7d4-7cab-a194-b2c3afbaf8e8","","4178","","{""Q0"":4}","10","2","enjoyment_rating","","[0]"
"","","","","","html-keyboard-response","14","734989","0.0-12.0","7FCB39F0125447ED8B97A593D856EA62","0199d5ff-7210-7b53-b9ce-ff93156cc0ab","0199d5ef-c7d4-7cab-a194-b2c3afbaf8e8","","null","<div style=""display: flex; justify-content: center; align-items: center;"">
                     <img src=""images/other/blank.png"" style=""width: 300px; height: 300px;"" />
                   </div>","null","0","0","blank","",""
"","","","","","html-keyboard-response","15","741906","0.0-13.0","7FCB39F0125447ED8B97A593D856EA62","0199d5ff-7210-7b53-b9ce-ff93156cc0ab","0199d5ef-c7d4-7cab-a194-b2c3afbaf8e8","","null","<div style=""display: flex; justify-content: center; align-items: center;"">
                     <img src=""images/causal/causal_series_6/causal_series_6_a.png"" style=""width: 300px; height: 300px;"" />
                   </div>","null","6","2","A","",""
"","","","","","html-keyboard-response","16","747913","0.0-14.0","7FCB39F0125447ED8B97A593D856EA62","0199d5ff-7210-7b53-b9ce-ff93156cc0ab","0199d5ef-c7d4-7cab-a194-b2c3afbaf8e8","","null","<div style=""display: flex; justify-content: center; align-items: center;"">
                     <img src=""images/causal/causal_series_6/causal_series_6_b.png"" style=""width: 300px; height: 300px;"" />
                   </div>","null","6","2","B","",""
"","","","","","html-keyboard-response","17","753926","0.0-15.0","7FCB39F0125447ED8B97A593D856EA62","0199d5ff-7210-7b53-b9ce-ff93156cc0ab","0199d5ef-c7d4-7cab-a194-b2c3afbaf8e8","","null","<div style=""display: flex; justify-content: center; align-items: center;"">
                     <img src=""images/causal/causal_series_6/causal_series_6_c.png"" style=""width: 300px; height: 300px;"" />
                   </div>","null","6","2","C","",""
"","","","","","html-button-response","18","756442","0.0-16.0","7FCB39F0125447ED8B97A593D856EA62","0199d5ff-7210-7b53-b9ce-ff93156cc0ab","0199d5ef-c7d4-7cab-a194-b2c3afbaf8e8","","2515","
        <div style=""display: flex; justify-content: center; align-items: center;"">
          <img src=""images/red_deck_2.png"" style=""width: 300px; height: 300px; margin-right: 10px;"" />
          <img src=""images/blue_deck_1.png"" style=""width: 300px; height: 300px;"" />
        </div>","1","6","2","choice","1",""
"","","","","","html-keyboard-response","19","762454","0.0-17.0-1.0-0.0","7FCB39F0125447ED8B97A593D856EA62","0199d5ff-7210-7b53-b9ce-ff93156cc0ab","0199d5ef-c7d4-7cab-a194-b2c3afbaf8e8","","null","<div style=""display: flex; justify-content: center; align-items: center;"">
                     <img src=""images/semantic/semantic_series_6/semantic_series_6_d.png"" style=""width: 300px; height: 300px;"" />
                   </div>","null","6","2","D","",""
"","","","","","html-keyboard-response","20","768469","0.0-17.0-1.0-1.0","7FCB39F0125447ED8B97A593D856EA62","0199d5ff-7210-7b53-b9ce-ff93156cc0ab","0199d5ef-c7d4-7cab-a194-b2c3afbaf8e8","","null","<div style=""display: flex; justify-content: center; align-items: center;"">
                     <img src=""images/semantic/semantic_series_6/semantic_series_6_e.png"" style=""width: 300px; height: 300px;"" />
                   </div>","null","6","2","E","",""
"","","","","","html-keyboard-response","21","774479","0.0-17.0-1.0-2.0","7FCB39F0125447ED8B97A593D856EA62","0199d5ff-7210-7b53-b9ce-ff93156cc0ab","0199d5ef-c7d4-7cab-a194-b2c3afbaf8e8","","null","<div style=""display: flex; justify-content: center; align-items: center;"">
                     <img src=""images/semantic/semantic_series_6/semantic_series_6_f.png"" style=""width: 300px; height: 300px;"" />
                   </div>","null","6","2","F","",""
"","","","","","survey-likert","22","777779","0.0-18.0","7FCB39F0125447ED8B97A593D856EA62","0199d5ff-7210-7b53-b9ce-ff93156cc0ab","0199d5ef-c7d4-7cab-a194-b2c3afbaf8e8","","3298","","{""Q0"":3}","6","2","surprise_rating","","[0]"
"","","","","","survey-likert","23","779722","0.0-19.0","7FCB39F0125447ED8B97A593D856EA62","0199d5ff-7210-7b53-b9ce-ff93156cc0ab","0199d5ef-c7d4-7cab-a194-b2c3afbaf8e8","","1942","","{""Q0"":2}","6","2","enjoyment_rating","","[0]"
"","","","","","html-keyboard-response","24","785726","0.0-20.0","7FCB39F0125447ED8B97A593D856EA62","0199d5ff-7210-7b53-b9ce-ff93156cc0ab","0199d5ef-c7d4-7cab-a194-b2c3afbaf8e8","","null","<div style=""display: flex; justify-content: center; align-items: center;"">
                     <img src=""images/other/blank.png"" style=""width: 300px; height: 300px;"" />
                   </div>","null","0","0","blank","",""
"","","","","","html-keyboard-response","25","791739","0.0-21.0","7FCB39F0125447ED8B97A593D856EA62","0199d5ff-7210-7b53-b9ce-ff93156cc0ab","0199d5ef-c7d4-7cab-a194-b2c3afbaf8e8","","null","<div style=""display: flex; justify-content: center; align-items: center;"">
                     <img src=""images/causal/causal_series_3/causal_series_3_a.png"" style=""width: 300px; height: 300px;"" />
                   </div>","null","3","2","A","",""
"","","","","","html-keyboard-response","26","797750","0.0-22.0","7FCB39F0125447ED8B97A593D856EA62","0199d5ff-7210-7b53-b9ce-ff93156cc0ab","0199d5ef-c7d4-7cab-a194-b2c3afbaf8e8","","null","<div style=""display: flex; justify-content: center; align-items: center;"">
                     <img src=""images/causal/causal_series_3/causal_series_3_b.png"" style=""width: 300px; height: 300px;"" />
                   </div>","null","3","2","B","",""
"","","","","","html-keyboard-response","27","803763","0.0-23.0","7FCB39F0125447ED8B97A593D856EA62","0199d5ff-7210-7b53-b9ce-ff93156cc0ab","0199d5ef-c7d4-7cab-a194-b2c3afbaf8e8","","null","<div style=""display: flex; justify-content: center; align-items: center;"">
                     <img src=""images/causal/causal_series_3/causal_series_3_c.png"" style=""width: 300px; height: 300px;"" />
                   </div>","null","3","2","C","",""
"","","","","","html-button-response","28","806398","0.0-24.0","7FCB39F0125447ED8B97A593D856EA62","0199d5ff-7210-7b53-b9ce-ff93156cc0ab","0199d5ef-c7d4-7cab-a194-b2c3afbaf8e8","","2634","
        <div style=""display: flex; justify-content: center; align-items: center;"">
          <img src=""images/red_deck_2.png"" style=""width: 300px; height: 300px; margin-right: 10px;"" />
          <img src=""images/blue_deck_1.png"" style=""width: 300px; height: 300px;"" />
        </div>","0","3","2","choice","0",""
"","","","","","html-keyboard-response","29","812399","0.0-25.0-0.0-0.0","7FCB39F0125447ED8B97A593D856EA62","0199d5ff-7210-7b53-b9ce-ff93156cc0ab","0199d5ef-c7d4-7cab-a194-b2c3afbaf8e8","","null","<div style=""display: flex; justify-content: center; align-items: center;"">
                     <img src=""images/causal/causal_series_3/causal_series_3_d.png"" style=""width: 300px; height: 300px;"" />
                   </div>","null","3","2","D","",""
"","","","","","html-keyboard-response","30","818401","0.0-25.0-0.0-1.0","7FCB39F0125447ED8B97A593D856EA62","0199d5ff-7210-7b53-b9ce-ff93156cc0ab","0199d5ef-c7d4-7cab-a194-b2c3afbaf8e8","","null","<div style=""display: flex; justify-content: center; align-items: center;"">
                     <img src=""images/causal/causal_series_3/causal_series_3_e.png"" style=""width: 300px; height: 300px;"" />
                   </div>","null","3","2","E","",""
"","","","","","html-keyboard-response","31","824412","0.0-25.0-0.0-2.0","7FCB39F0125447ED8B97A593D856EA62","0199d5ff-7210-7b53-b9ce-ff93156cc0ab","0199d5ef-c7d4-7cab-a194-b2c3afbaf8e8","","null","<div style=""display: flex; justify-content: center; align-items: center;"">
                     <img src=""images/causal/causal_series_3/causal_series_3_f.png"" style=""width: 300px; height: 300px;"" />
                   </div>","null","3","2","F","",""
"","","","","","survey-likert","32","828409","0.0-26.0","7FCB39F0125447ED8B97A593D856EA62","0199d5ff-7210-7b53-b9ce-ff93156cc0ab","0199d5ef-c7d4-7cab-a194-b2c3afbaf8e8","","3996","","{""Q0"":3}","3","2","surprise_rating","","[0]"
"","","","","","survey-likert","33","829890","0.0-27.0","7FCB39F0125447ED8B97A593D856EA62","0199d5ff-7210-7b53-b9ce-ff93156cc0ab","0199d5ef-c7d4-7cab-a194-b2c3afbaf8e8","","1480","","{""Q0"":3}","3","2","enjoyment_rating","","[0]"
"","","","","","html-keyboard-response","34","835898","0.0-28.0","7FCB39F0125447ED8B97A593D856EA62","0199d5ff-7210-7b53-b9ce-ff93156cc0ab","0199d5ef-c7d4-7cab-a194-b2c3afbaf8e8","","null","<div style=""display: flex; justify-content: center; align-items: center;"">
                     <img src=""images/other/blank.png"" style=""width: 300px; height: 300px;"" />
                   </div>","null","0","0","blank","",""
"","","","","","html-keyboard-response","35","841899","0.0-29.0","7FCB39F0125447ED8B97A593D856EA62","0199d5ff-7210-7b53-b9ce-ff93156cc0ab","0199d5ef-c7d4-7cab-a194-b2c3afbaf8e8","","null","<div style=""display: flex; justify-content: center; align-items: center;"">
                     <img src=""images/causal/causal_series_6/causal_series_6_a.png"" style=""width: 300px; height: 300px;"" />
                   </div>","null","6","1","A","",""
"","","","","","html-keyboard-response","36","847909","0.0-30.0","7FCB39F0125447ED8B97A593D856EA62","0199d5ff-7210-7b53-b9ce-ff93156cc0ab","0199d5ef-c7d4-7cab-a194-b2c3afbaf8e8","","null","<div style=""display: flex; justify-content: center; align-items: center;"">
                     <img src=""images/causal/causal_series_6/causal_series_6_b.png"" style=""width: 300px; height: 300px;"" />
                   </div>","null","6","1","B","",""
"","","","","","html-keyboard-response","37","853920","0.0-31.0","7FCB39F0125447ED8B97A593D856EA62","0199d5ff-7210-7b53-b9ce-ff93156cc0ab","0199d5ef-c7d4-7cab-a194-b2c3afbaf8e8","","null","<div style=""display: flex; justify-content: center; align-items: center;"">
                     <img src=""images/causal/causal_series_6/causal_series_6_c.png"" style=""width: 300px; height: 300px;"" />
                   </div>","null","6","1","C","",""
"","","","","","html-button-response","38","857722","0.0-32.0","7FCB39F0125447ED8B97A593D856EA62","0199d5ff-7210-7b53-b9ce-ff93156cc0ab","0199d5ef-c7d4-7cab-a194-b2c3afbaf8e8","","3801","
        <div style=""display: flex; justify-content: center; align-items: center;"">
          <img src=""images/red_deck_2.png"" style=""width: 300px; height: 300px; margin-right: 10px;"" />
          <img src=""images/blue_deck_1.png"" style=""width: 300px; height: 300px;"" />
        </div>","0","6","1","choice","0",""
"","","","","","html-keyboard-response","39","863725","0.0-33.0-0.0-0.0","7FCB39F0125447ED8B97A593D856EA62","0199d5ff-7210-7b53-b9ce-ff93156cc0ab","0199d5ef-c7d4-7cab-a194-b2c3afbaf8e8","","null","<div style=""display: flex; justify-content: center; align-items: center;"">
                     <img src=""images/causal/causal_series_6/causal_series_6_d.png"" style=""width: 300px; height: 300px;"" />
                   </div>","null","6","1","D","",""
"","","","","","html-keyboard-response","40","869737","0.0-33.0-0.0-1.0","7FCB39F0125447ED8B97A593D856EA62","0199d5ff-7210-7b53-b9ce-ff93156cc0ab","0199d5ef-c7d4-7cab-a194-b2c3afbaf8e8","","null","<div style=""display: flex; justify-content: center; align-items: center;"">
                     <img src=""images/causal/causal_series_6/causal_series_6_e.png"" style=""width: 300px; height: 300px;"" />
                   </div>","null","6","1","E","",""
"","","","","","html-keyboard-response","41","875747","0.0-33.0-0.0-2.0","7FCB39F0125447ED8B97A593D856EA62","0199d5ff-7210-7b53-b9ce-ff93156cc0ab","0199d5ef-c7d4-7cab-a194-b2c3afbaf8e8","","null","<div style=""display: flex; justify-content: center; align-items: center;"">
                     <img src=""images/causal/causal_series_6/causal_series_6_f.png"" style=""width: 300px; height: 300px;"" />
                   </div>","null","6","1","F","",""
"","","","","","survey-likert","42","884556","0.0-34.0","7FCB39F0125447ED8B97A593D856EA62","0199d5ff-7210-7b53-b9ce-ff93156cc0ab","0199d5ef-c7d4-7cab-a194-b2c3afbaf8e8","","8807","","{""Q0"":3}","6","1","surprise_rating","","[0]"
"","","","","","survey-likert","43","887856","0.0-35.0","7FCB39F0125447ED8B97A593D856EA62","0199d5ff-7210-7b53-b9ce-ff93156cc0ab","0199d5ef-c7d4-7cab-a194-b2c3afbaf8e8","","3299","","{""Q0"":2}","6","1","enjoyment_rating","","[0]"
"","","","","","html-keyboard-response","44","893858","0.0-36.0","7FCB39F0125447ED8B97A593D856EA62","0199d5ff-7210-7b53-b9ce-ff93156cc0ab","0199d5ef-c7d4-7cab-a194-b2c3afbaf8e8","","null","<div style=""display: flex; justify-content: center; align-items: center;"">
                     <img src=""images/other/blank.png"" style=""width: 300px; height: 300px;"" />
                   </div>","null","0","0","blank","",""
"","","","","","html-keyboard-response","45","899874","0.0-37.0","7FCB39F0125447ED8B97A593D856EA62","0199d5ff-7210-7b53-b9ce-ff93156cc0ab","0199d5ef-c7d4-7cab-a194-b2c3afbaf8e8","","null","<div style=""display: flex; justify-content: center; align-items: center;"">
                     <img src=""images/causal/causal_series_9/causal_series_9_a.png"" style=""width: 300px; height: 300px;"" />
                   </div>","null","9","2","A","",""
"","","","","","html-keyboard-response","46","905885","0.0-38.0","7FCB39F0125447ED8B97A593D856EA62","0199d5ff-7210-7b53-b9ce-ff93156cc0ab","0199d5ef-c7d4-7cab-a194-b2c3afbaf8e8","","null","<div style=""display: flex; justify-content: center; align-items: center;"">
                     <img src=""images/causal/causal_series_9/causal_series_9_b.png"" style=""width: 300px; height: 300px;"" />
                   </div>","null","9","2","B","",""
"","","","","","html-keyboard-response","47","911895","0.0-39.0","7FCB39F0125447ED8B97A593D856EA62","0199d5ff-7210-7b53-b9ce-ff93156cc0ab","0199d5ef-c7d4-7cab-a194-b2c3afbaf8e8","","null","<div style=""display: flex; justify-content: center; align-items: center;"">
                     <img src=""images/causal/causal_series_9/causal_series_9_c.png"" style=""width: 300px; height: 300px;"" />
                   </div>","null","9","2","C","",""
"","","","","","html-button-response","48","916922","0.0-40.0","7FCB39F0125447ED8B97A593D856EA62","0199d5ff-7210-7b53-b9ce-ff93156cc0ab","0199d5ef-c7d4-7cab-a194-b2c3afbaf8e8","","5026","
        <div style=""display: flex; justify-content: center; align-items: center;"">
          <img src=""images/red_deck_2.png"" style=""width: 300px; height: 300px; margin-right: 10px;"" />
          <img src=""images/blue_deck_1.png"" style=""width: 300px; height: 300px;"" />
        </div>","0","9","2","choice","0",""
"","","","","","html-keyboard-response","49","922934","0.0-41.0-0.0-0.0","7FCB39F0125447ED8B97A593D856EA62","0199d5ff-7210-7b53-b9ce-ff93156cc0ab","0199d5ef-c7d4-7cab-a194-b2c3afbaf8e8","","null","<div style=""display: flex; justify-content: center; align-items: center;"">
                     <img src=""images/causal/causal_series_9/causal_series_9_d.png"" style=""width: 300px; height: 300px;"" />
                   </div>","null","9","2","D","",""
"","","","","","html-keyboard-response","50","928944","0.0-41.0-0.0-1.0","7FCB39F0125447ED8B97A593D856EA62","0199d5ff-7210-7b53-b9ce-ff93156cc0ab","0199d5ef-c7d4-7cab-a194-b2c3afbaf8e8","","null","<div style=""display: flex; justify-content: center; align-items: center;"">
                     <img src=""images/causal/causal_series_9/causal_series_9_e.png"" style=""width: 300px; height: 300px;"" />
                   </div>","null","9","2","E","",""
"","","","","","html-keyboard-response","51","934957","0.0-41.0-0.0-2.0","7FCB39F0125447ED8B97A593D856EA62","0199d5ff-7210-7b53-b9ce-ff93156cc0ab","0199d5ef-c7d4-7cab-a194-b2c3afbaf8e8","","null","<div style=""display: flex; justify-content: center; align-items: center;"">
                     <img src=""images/causal/causal_series_9/causal_series_9_f.png"" style=""width: 300px; height: 300px;"" />
                   </div>","null","9","2","F","",""
"","","","","","survey-likert","52","941771","0.0-42.0","7FCB39F0125447ED8B97A593D856EA62","0199d5ff-7210-7b53-b9ce-ff93156cc0ab","0199d5ef-c7d4-7cab-a194-b2c3afbaf8e8","","6814","","{""Q0"":2}","9","2","surprise_rating","","[0]"
"","","","","","survey-likert","53","943213","0.0-43.0","7FCB39F0125447ED8B97A593D856EA62","0199d5ff-7210-7b53-b9ce-ff93156cc0ab","0199d5ef-c7d4-7cab-a194-b2c3afbaf8e8","","1441","","{""Q0"":2}","9","2","enjoyment_rating","","[0]"
"","","","","","html-keyboard-response","54","949223","0.0-44.0","7FCB39F0125447ED8B97A593D856EA62","0199d5ff-7210-7b53-b9ce-ff93156cc0ab","0199d5ef-c7d4-7cab-a194-b2c3afbaf8e8","","null","<div style=""display: flex; justify-content: center; align-items: center;"">
                     <img src=""images/other/blank.png"" style=""width: 300px; height: 300px;"" />
                   </div>","null","0","0","blank","",""
"","","","","","html-keyboard-response","55","955225","0.0-45.0","7FCB39F0125447ED8B97A593D856EA62","0199d5ff-7210-7b53-b9ce-ff93156cc0ab","0199d5ef-c7d4-7cab-a194-b2c3afbaf8e8","","null","<div style=""display: flex; justify-content: center; align-items: center;"">
                     <img src=""images/causal/causal_series_3/causal_series_3_a.png"" style=""width: 300px; height: 300px;"" />
                   </div>","null","3","1","A","",""
"","","","","","html-keyboard-response","56","961236","0.0-46.0","7FCB39F0125447ED8B97A593D856EA62","0199d5ff-7210-7b53-b9ce-ff93156cc0ab","0199d5ef-c7d4-7cab-a194-b2c3afbaf8e8","","null","<div style=""display: flex; justify-content: center; align-items: center;"">
                     <img src=""images/causal/causal_series_3/causal_series_3_b.png"" style=""width: 300px; height: 300px;"" />
                   </div>","null","3","1","B","",""
"","","","","","html-keyboard-response","57","967247","0.0-47.0","7FCB39F0125447ED8B97A593D856EA62","0199d5ff-7210-7b53-b9ce-ff93156cc0ab","0199d5ef-c7d4-7cab-a194-b2c3afbaf8e8","","null","<div style=""display: flex; justify-content: center; align-items: center;"">
                     <img src=""images/causal/causal_series_3/causal_series_3_c.png"" style=""width: 300px; height: 300px;"" />
                   </div>","null","3","1","C","",""
"","","","","","html-button-response","58","973414","0.0-48.0","7FCB39F0125447ED8B97A593D856EA62","0199d5ff-7210-7b53-b9ce-ff93156cc0ab","0199d5ef-c7d4-7cab-a194-b2c3afbaf8e8","","6166","
        <div style=""display: flex; justify-content: center; align-items: center;"">
          <img src=""images/red_deck_2.png"" style=""width: 300px; height: 300px; margin-right: 10px;"" />
          <img src=""images/blue_deck_1.png"" style=""width: 300px; height: 300px;"" />
        </div>","1","3","1","choice","1",""
"","","","","","html-keyboard-response","59","979429","0.0-49.0-1.0-0.0","7FCB39F0125447ED8B97A593D856EA62","0199d5ff-7210-7b53-b9ce-ff93156cc0ab","0199d5ef-c7d4-7cab-a194-b2c3afbaf8e8","","null","<div style=""display: flex; justify-content: center; align-items: center;"">
                     <img src=""images/semantic/semantic_series_3/semantic_series_3_d.png"" style=""width: 300px; height: 300px;"" />
                   </div>","null","3","1","D","",""
"","","","","","html-keyboard-response","60","985445","0.0-49.0-1.0-1.0","7FCB39F0125447ED8B97A593D856EA62","0199d5ff-7210-7b53-b9ce-ff93156cc0ab","0199d5ef-c7d4-7cab-a194-b2c3afbaf8e8","","null","<div style=""display: flex; justify-content: center; align-items: center;"">
                     <img src=""images/semantic/semantic_series_3/semantic_series_3_e.png"" style=""width: 300px; height: 300px;"" />
                   </div>","null","3","1","E","",""
"","","","","","html-keyboard-response","61","991456","0.0-49.0-1.0-2.0","7FCB39F0125447ED8B97A593D856EA62","0199d5ff-7210-7b53-b9ce-ff93156cc0ab","0199d5ef-c7d4-7cab-a194-b2c3afbaf8e8","","null","<div style=""display: flex; justify-content: center; align-items: center;"">
                     <img src=""images/semantic/semantic_series_3/semantic_series_3_f.png"" style=""width: 300px; height: 300px;"" />
                   </div>","null","3","1","F","",""
"","","","","","survey-likert","62","994091","0.0-50.0","7FCB39F0125447ED8B97A593D856EA62","0199d5ff-7210-7b53-b9ce-ff93156cc0ab","0199d5ef-c7d4-7cab-a194-b2c3afbaf8e8","","2634","","{""Q0"":3}","3","1","surprise_rating","","[0]"
"","","","","","survey-likert","63","996127","0.0-51.0","7FCB39F0125447ED8B97A593D856EA62","0199d5ff-7210-7b53-b9ce-ff93156cc0ab","0199d5ef-c7d4-7cab-a194-b2c3afbaf8e8","","2035","","{""Q0"":2}","3","1","enjoyment_rating","","[0]"
"","","","","","html-keyboard-response","64","1002140","0.0-52.0","7FCB39F0125447ED8B97A593D856EA62","0199d5ff-7210-7b53-b9ce-ff93156cc0ab","0199d5ef-c7d4-7cab-a194-b2c3afbaf8e8","","null","<div style=""display: flex; justify-content: center; align-items: center;"">
                     <img src=""images/other/blank.png"" style=""width: 300px; height: 300px;"" />
                   </div>","null","0","0","blank","",""
"","","","","","html-keyboard-response","65","1008147","0.0-53.0","7FCB39F0125447ED8B97A593D856EA62","0199d5ff-7210-7b53-b9ce-ff93156cc0ab","0199d5ef-c7d4-7cab-a194-b2c3afbaf8e8","","null","<div style=""display: flex; justify-content: center; align-items: center;"">
                     <img src=""images/causal/causal_series_4/causal_series_4_a.png"" style=""width: 300px; height: 300px;"" />
                   </div>","null","4","2","A","",""
"","","","","","html-keyboard-response","66","1014148","0.0-54.0","7FCB39F0125447ED8B97A593D856EA62","0199d5ff-7210-7b53-b9ce-ff93156cc0ab","0199d5ef-c7d4-7cab-a194-b2c3afbaf8e8","","null","<div style=""display: flex; justify-content: center; align-items: center;"">
                     <img src=""images/causal/causal_series_4/causal_series_4_b.png"" style=""width: 300px; height: 300px;"" />
                   </div>","null","4","2","B","",""
"","","","","","html-keyboard-response","67","1020159","0.0-55.0","7FCB39F0125447ED8B97A593D856EA62","0199d5ff-7210-7b53-b9ce-ff93156cc0ab","0199d5ef-c7d4-7cab-a194-b2c3afbaf8e8","","null","<div style=""display: flex; justify-content: center; align-items: center;"">
                     <img src=""images/causal/causal_series_4/causal_series_4_c.png"" style=""width: 300px; height: 300px;"" />
                   </div>","null","4","2","C","",""
"","","","","","html-button-response","68","1022695","0.0-56.0","7FCB39F0125447ED8B97A593D856EA62","0199d5ff-7210-7b53-b9ce-ff93156cc0ab","0199d5ef-c7d4-7cab-a194-b2c3afbaf8e8","","2535","
        <div style=""display: flex; justify-content: center; align-items: center;"">
          <img src=""images/red_deck_2.png"" style=""width: 300px; height: 300px; margin-right: 10px;"" />
          <img src=""images/blue_deck_1.png"" style=""width: 300px; height: 300px;"" />
        </div>","0","4","2","choice","0",""
"","","","","","html-keyboard-response","69","1028707","0.0-57.0-0.0-0.0","7FCB39F0125447ED8B97A593D856EA62","0199d5ff-7210-7b53-b9ce-ff93156cc0ab","0199d5ef-c7d4-7cab-a194-b2c3afbaf8e8","","null","<div style=""display: flex; justify-content: center; align-items: center;"">
                     <img src=""images/causal/causal_series_4/causal_series_4_d.png"" style=""width: 300px; height: 300px;"" />
                   </div>","null","4","2","D","",""
"","","","","","html-keyboard-response","70","1034713","0.0-57.0-0.0-1.0","7FCB39F0125447ED8B97A593D856EA62","0199d5ff-7210-7b53-b9ce-ff93156cc0ab","0199d5ef-c7d4-7cab-a194-b2c3afbaf8e8","","null","<div style=""display: flex; justify-content: center; align-items: center;"">
                     <img src=""images/causal/causal_series_4/causal_series_4_e.png"" style=""width: 300px; height: 300px;"" />
                   </div>","null","4","2","E","",""
"","","","","","html-keyboard-response","71","1040725","0.0-57.0-0.0-2.0","7FCB39F0125447ED8B97A593D856EA62","0199d5ff-7210-7b53-b9ce-ff93156cc0ab","0199d5ef-c7d4-7cab-a194-b2c3afbaf8e8","","null","<div style=""display: flex; justify-content: center; align-items: center;"">
                     <img src=""images/causal/causal_series_4/causal_series_4_f.png"" style=""width: 300px; height: 300px;"" />
                   </div>","null","4","2","F","",""
"","","","","","survey-likert","72","1047160","0.0-58.0","7FCB39F0125447ED8B97A593D856EA62","0199d5ff-7210-7b53-b9ce-ff93156cc0ab","0199d5ef-c7d4-7cab-a194-b2c3afbaf8e8","","6435","","{""Q0"":3}","4","2","surprise_rating","","[0]"
"","","","","","survey-likert","73","1050015","0.0-59.0","7FCB39F0125447ED8B97A593D856EA62","0199d5ff-7210-7b53-b9ce-ff93156cc0ab","0199d5ef-c7d4-7cab-a194-b2c3afbaf8e8","","2853","","{""Q0"":3}","4","2","enjoyment_rating","","[0]"
"","","","","","html-keyboard-response","74","1056015","0.0-60.0","7FCB39F0125447ED8B97A593D856EA62","0199d5ff-7210-7b53-b9ce-ff93156cc0ab","0199d5ef-c7d4-7cab-a194-b2c3afbaf8e8","","null","<div style=""display: flex; justify-content: center; align-items: center;"">
                     <img src=""images/other/blank.png"" style=""width: 300px; height: 300px;"" />
                   </div>","null","0","0","blank","",""
"","","","","","html-keyboard-response","75","1062017","0.0-61.0","7FCB39F0125447ED8B97A593D856EA62","0199d5ff-7210-7b53-b9ce-ff93156cc0ab","0199d5ef-c7d4-7cab-a194-b2c3afbaf8e8","","null","<div style=""display: flex; justify-content: center; align-items: center;"">
                     <img src=""images/causal/causal_series_2/causal_series_2_a.png"" style=""width: 300px; height: 300px;"" />
                   </div>","null","2","1","A","",""
"","","","","","html-keyboard-response","76","1068031","0.0-62.0","7FCB39F0125447ED8B97A593D856EA62","0199d5ff-7210-7b53-b9ce-ff93156cc0ab","0199d5ef-c7d4-7cab-a194-b2c3afbaf8e8","","null","<div style=""display: flex; justify-content: center; align-items: center;"">
                     <img src=""images/causal/causal_series_2/causal_series_2_b.png"" style=""width: 300px; height: 300px;"" />
                   </div>","null","2","1","B","",""
"","","","","","html-keyboard-response","77","1074043","0.0-63.0","7FCB39F0125447ED8B97A593D856EA62","0199d5ff-7210-7b53-b9ce-ff93156cc0ab","0199d5ef-c7d4-7cab-a194-b2c3afbaf8e8","","null","<div style=""display: flex; justify-content: center; align-items: center;"">
                     <img src=""images/causal/causal_series_2/causal_series_2_c.png"" style=""width: 300px; height: 300px;"" />
                   </div>","null","2","1","C","",""
"","","","","","html-button-response","78","1076611","0.0-64.0","7FCB39F0125447ED8B97A593D856EA62","0199d5ff-7210-7b53-b9ce-ff93156cc0ab","0199d5ef-c7d4-7cab-a194-b2c3afbaf8e8","","2567","
        <div style=""display: flex; justify-content: center; align-items: center;"">
          <img src=""images/red_deck_2.png"" style=""width: 300px; height: 300px; margin-right: 10px;"" />
          <img src=""images/blue_deck_1.png"" style=""width: 300px; height: 300px;"" />
        </div>","0","2","1","choice","0",""
"","","","","","html-keyboard-response","79","1082619","0.0-65.0-0.0-0.0","7FCB39F0125447ED8B97A593D856EA62","0199d5ff-7210-7b53-b9ce-ff93156cc0ab","0199d5ef-c7d4-7cab-a194-b2c3afbaf8e8","","null","<div style=""display: flex; justify-content: center; align-items: center;"">
                     <img src=""images/causal/causal_series_2/causal_series_2_d.png"" style=""width: 300px; height: 300px;"" />
                   </div>","null","2","1","D","",""
"","","","","","html-keyboard-response","80","1088625","0.0-65.0-0.0-1.0","7FCB39F0125447ED8B97A593D856EA62","0199d5ff-7210-7b53-b9ce-ff93156cc0ab","0199d5ef-c7d4-7cab-a194-b2c3afbaf8e8","","null","<div style=""display: flex; justify-content: center; align-items: center;"">
                     <img src=""images/causal/causal_series_2/causal_series_2_e.png"" style=""width: 300px; height: 300px;"" />
                   </div>","null","2","1","E","",""
"","","","","","html-keyboard-response","81","1094627","0.0-65.0-0.0-2.0","7FCB39F0125447ED8B97A593D856EA62","0199d5ff-7210-7b53-b9ce-ff93156cc0ab","0199d5ef-c7d4-7cab-a194-b2c3afbaf8e8","","null","<div style=""display: flex; justify-content: center; align-items: center;"">
                     <img src=""images/causal/causal_series_2/causal_series_2_f.png"" style=""width: 300px; height: 300px;"" />
                   </div>","null","2","1","F","",""
"","","","","","survey-likert","82","1099446","0.0-66.0","7FCB39F0125447ED8B97A593D856EA62","0199d5ff-7210-7b53-b9ce-ff93156cc0ab","0199d5ef-c7d4-7cab-a194-b2c3afbaf8e8","","4818","","{""Q0"":4}","2","1","surprise_rating","","[0]"
"","","","","","survey-likert","83","1101344","0.0-67.0","7FCB39F0125447ED8B97A593D856EA62","0199d5ff-7210-7b53-b9ce-ff93156cc0ab","0199d5ef-c7d4-7cab-a194-b2c3afbaf8e8","","1897","","{""Q0"":3}","2","1","enjoyment_rating","","[0]"
"","","","","","html-keyboard-response","84","1107361","0.0-68.0","7FCB39F0125447ED8B97A593D856EA62","0199d5ff-7210-7b53-b9ce-ff93156cc0ab","0199d5ef-c7d4-7cab-a194-b2c3afbaf8e8","","null","<div style=""display: flex; justify-content: center; align-items: center;"">
                     <img src=""images/other/blank.png"" style=""width: 300px; height: 300px;"" />
                   </div>","null","0","0","blank","",""
"","","","","","html-keyboard-response","85","1113368","0.0-69.0","7FCB39F0125447ED8B97A593D856EA62","0199d5ff-7210-7b53-b9ce-ff93156cc0ab","0199d5ef-c7d4-7cab-a194-b2c3afbaf8e8","","null","<div style=""display: flex; justify-content: center; align-items: center;"">
                     <img src=""images/causal/causal_series_1/causal_series_1_a.png"" style=""width: 300px; height: 300px;"" />
                   </div>","null","1","1","A","",""
"","","","","","html-keyboard-response","86","1119382","0.0-70.0","7FCB39F0125447ED8B97A593D856EA62","0199d5ff-7210-7b53-b9ce-ff93156cc0ab","0199d5ef-c7d4-7cab-a194-b2c3afbaf8e8","","null","<div style=""display: flex; justify-content: center; align-items: center;"">
                     <img src=""images/causal/causal_series_1/causal_series_1_b.png"" style=""width: 300px; height: 300px;"" />
                   </div>","null","1","1","B","",""
"","","","","","html-keyboard-response","87","1125395","0.0-71.0","7FCB39F0125447ED8B97A593D856EA62","0199d5ff-7210-7b53-b9ce-ff93156cc0ab","0199d5ef-c7d4-7cab-a194-b2c3afbaf8e8","","null","<div style=""display: flex; justify-content: center; align-items: center;"">
                     <img src=""images/causal/causal_series_1/causal_series_1_c.png"" style=""width: 300px; height: 300px;"" />
                   </div>","null","1","1","C","",""
"","","","","","html-button-response","88","1127721","0.0-72.0","7FCB39F0125447ED8B97A593D856EA62","0199d5ff-7210-7b53-b9ce-ff93156cc0ab","0199d5ef-c7d4-7cab-a194-b2c3afbaf8e8","","2325","
        <div style=""display: flex; justify-content: center; align-items: center;"">
          <img src=""images/red_deck_2.png"" style=""width: 300px; height: 300px; margin-right: 10px;"" />
          <img src=""images/blue_deck_1.png"" style=""width: 300px; height: 300px;"" />
        </div>","1","1","1","choice","1",""
"","","","","","html-keyboard-response","89","1133733","0.0-73.0-1.0-0.0","7FCB39F0125447ED8B97A593D856EA62","0199d5ff-7210-7b53-b9ce-ff93156cc0ab","0199d5ef-c7d4-7cab-a194-b2c3afbaf8e8","","null","<div style=""display: flex; justify-content: center; align-items: center;"">
                     <img src=""images/semantic/semantic_series_1/semantic_series_1_d.png"" style=""width: 300px; height: 300px;"" />
                   </div>","null","1","1","D","",""
"","","","","","html-keyboard-response","90","1139749","0.0-73.0-1.0-1.0","7FCB39F0125447ED8B97A593D856EA62","0199d5ff-7210-7b53-b9ce-ff93156cc0ab","0199d5ef-c7d4-7cab-a194-b2c3afbaf8e8","","null","<div style=""display: flex; justify-content: center; align-items: center;"">
                     <img src=""images/semantic/semantic_series_1/semantic_series_1_e.png"" style=""width: 300px; height: 300px;"" />
                   </div>","null","1","1","E","",""
"","","","","","html-keyboard-response","91","1145759","0.0-73.0-1.0-2.0","7FCB39F0125447ED8B97A593D856EA62","0199d5ff-7210-7b53-b9ce-ff93156cc0ab","0199d5ef-c7d4-7cab-a194-b2c3afbaf8e8","","null","<div style=""display: flex; justify-content: center; align-items: center;"">
                     <img src=""images/semantic/semantic_series_1/semantic_series_1_f.png"" style=""width: 300px; height: 300px;"" />
                   </div>","null","1","1","F","",""
"","","","","","survey-likert","92","1151832","0.0-74.0","7FCB39F0125447ED8B97A593D856EA62","0199d5ff-7210-7b53-b9ce-ff93156cc0ab","0199d5ef-c7d4-7cab-a194-b2c3afbaf8e8","","6072","","{""Q0"":4}","1","1","surprise_rating","","[0]"
"","","","","","survey-likert","93","1153922","0.0-75.0","7FCB39F0125447ED8B97A593D856EA62","0199d5ff-7210-7b53-b9ce-ff93156cc0ab","0199d5ef-c7d4-7cab-a194-b2c3afbaf8e8","","2089","","{""Q0"":3}","1","1","enjoyment_rating","","[0]"
"","","","","","html-keyboard-response","94","1159931","0.0-76.0","7FCB39F0125447ED8B97A593D856EA62","0199d5ff-7210-7b53-b9ce-ff93156cc0ab","0199d5ef-c7d4-7cab-a194-b2c3afbaf8e8","","null","<div style=""display: flex; justify-content: center; align-items: center;"">
                     <img src=""images/other/blank.png"" style=""width: 300px; height: 300px;"" />
                   </div>","null","0","0","blank","",""
"","","","","","html-keyboard-response","95","1165934","0.0-77.0","7FCB39F0125447ED8B97A593D856EA62","0199d5ff-7210-7b53-b9ce-ff93156cc0ab","0199d5ef-c7d4-7cab-a194-b2c3afbaf8e8","","null","<div style=""display: flex; justify-content: center; align-items: center;"">
                     <img src=""images/causal/causal_series_1/causal_series_1_a.png"" style=""width: 300px; height: 300px;"" />
                   </div>","null","1","2","A","",""
"","","","","","html-keyboard-response","96","1171945","0.0-78.0","7FCB39F0125447ED8B97A593D856EA62","0199d5ff-7210-7b53-b9ce-ff93156cc0ab","0199d5ef-c7d4-7cab-a194-b2c3afbaf8e8","","null","<div style=""display: flex; justify-content: center; align-items: center;"">
                     <img src=""images/causal/causal_series_1/causal_series_1_b.png"" style=""width: 300px; height: 300px;"" />
                   </div>","null","1","2","B","",""
"","","","","","html-keyboard-response","97","1177956","0.0-79.0","7FCB39F0125447ED8B97A593D856EA62","0199d5ff-7210-7b53-b9ce-ff93156cc0ab","0199d5ef-c7d4-7cab-a194-b2c3afbaf8e8","","null","<div style=""display: flex; justify-content: center; align-items: center;"">
                     <img src=""images/causal/causal_series_1/causal_series_1_c.png"" style=""width: 300px; height: 300px;"" />
                   </div>","null","1","2","C","",""
"","","","","","html-button-response","98","1179975","0.0-80.0","7FCB39F0125447ED8B97A593D856EA62","0199d5ff-7210-7b53-b9ce-ff93156cc0ab","0199d5ef-c7d4-7cab-a194-b2c3afbaf8e8","","2018","
        <div style=""display: flex; justify-content: center; align-items: center;"">
          <img src=""images/red_deck_2.png"" style=""width: 300px; height: 300px; margin-right: 10px;"" />
          <img src=""images/blue_deck_1.png"" style=""width: 300px; height: 300px;"" />
        </div>","0","1","2","choice","0",""
"","","","","","html-keyboard-response","99","1185990","0.0-81.0-0.0-0.0","7FCB39F0125447ED8B97A593D856EA62","0199d5ff-7210-7b53-b9ce-ff93156cc0ab","0199d5ef-c7d4-7cab-a194-b2c3afbaf8e8","","null","<div style=""display: flex; justify-content: center; align-items: center;"">
                     <img src=""images/causal/causal_series_1/causal_series_1_d.png"" style=""width: 300px; height: 300px;"" />
                   </div>","null","1","2","D","",""
"","","","","","html-keyboard-response","100","1192002","0.0-81.0-0.0-1.0","7FCB39F0125447ED8B97A593D856EA62","0199d5ff-7210-7b53-b9ce-ff93156cc0ab","0199d5ef-c7d4-7cab-a194-b2c3afbaf8e8","","null","<div style=""display: flex; justify-content: center; align-items: center;"">
                     <img src=""images/causal/causal_series_1/causal_series_1_e.png"" style=""width: 300px; height: 300px;"" />
                   </div>","null","1","2","E","",""
"","","","","","html-keyboard-response","101","1198013","0.0-81.0-0.0-2.0","7FCB39F0125447ED8B97A593D856EA62","0199d5ff-7210-7b53-b9ce-ff93156cc0ab","0199d5ef-c7d4-7cab-a194-b2c3afbaf8e8","","null","<div style=""display: flex; justify-content: center; align-items: center;"">
                     <img src=""images/causal/causal_series_1/causal_series_1_f.png"" style=""width: 300px; height: 300px;"" />
                   </div>","null","1","2","F","",""
"","","","","","survey-likert","102","1201479","0.0-82.0","7FCB39F0125447ED8B97A593D856EA62","0199d5ff-7210-7b53-b9ce-ff93156cc0ab","0199d5ef-c7d4-7cab-a194-b2c3afbaf8e8","","3465","","{""Q0"":4}","1","2","surprise_rating","","[0]"
"","","","","","survey-likert","103","1203569","0.0-83.0","7FCB39F0125447ED8B97A593D856EA62","0199d5ff-7210-7b53-b9ce-ff93156cc0ab","0199d5ef-c7d4-7cab-a194-b2c3afbaf8e8","","2089","","{""Q0"":4}","1","2","enjoyment_rating","","[0]"
"","","","","","html-keyboard-response","104","1209897","0.0-84.0","7FCB39F0125447ED8B97A593D856EA62","0199d5ff-7210-7b53-b9ce-ff93156cc0ab","0199d5ef-c7d4-7cab-a194-b2c3afbaf8e8","","null","<div style=""display: flex; justify-content: center; align-items: center;"">
                     <img src=""images/other/blank.png"" style=""width: 300px; height: 300px;"" />
                   </div>","null","0","0","blank","",""
"","","","","","html-keyboard-response","105","1215904","0.0-85.0","7FCB39F0125447ED8B97A593D856EA62","0199d5ff-7210-7b53-b9ce-ff93156cc0ab","0199d5ef-c7d4-7cab-a194-b2c3afbaf8e8","","null","<div style=""display: flex; justify-content: center; align-items: center;"">
                     <img src=""images/causal/causal_series_2/causal_series_2_a.png"" style=""width: 300px; height: 300px;"" />
                   </div>","null","2","2","A","",""
"","","","","","html-keyboard-response","106","1221915","0.0-86.0","7FCB39F0125447ED8B97A593D856EA62","0199d5ff-7210-7b53-b9ce-ff93156cc0ab","0199d5ef-c7d4-7cab-a194-b2c3afbaf8e8","","null","<div style=""display: flex; justify-content: center; align-items: center;"">
                     <img src=""images/causal/causal_series_2/causal_series_2_b.png"" style=""width: 300px; height: 300px;"" />
                   </div>","null","2","2","B","",""
"","","","","","html-keyboard-response","107","1227926","0.0-87.0","7FCB39F0125447ED8B97A593D856EA62","0199d5ff-7210-7b53-b9ce-ff93156cc0ab","0199d5ef-c7d4-7cab-a194-b2c3afbaf8e8","","null","<div style=""display: flex; justify-content: center; align-items: center;"">
                     <img src=""images/causal/causal_series_2/causal_series_2_c.png"" style=""width: 300px; height: 300px;"" />
                   </div>","null","2","2","C","",""
"","","","","","html-button-response","108","1229923","0.0-88.0","7FCB39F0125447ED8B97A593D856EA62","0199d5ff-7210-7b53-b9ce-ff93156cc0ab","0199d5ef-c7d4-7cab-a194-b2c3afbaf8e8","","1996","
        <div style=""display: flex; justify-content: center; align-items: center;"">
          <img src=""images/red_deck_2.png"" style=""width: 300px; height: 300px; margin-right: 10px;"" />
          <img src=""images/blue_deck_1.png"" style=""width: 300px; height: 300px;"" />
        </div>","1","2","2","choice","1",""
"","","","","","html-keyboard-response","109","1236900","0.0-89.0-1.0-0.0","7FCB39F0125447ED8B97A593D856EA62","0199d5ff-7210-7b53-b9ce-ff93156cc0ab","0199d5ef-c7d4-7cab-a194-b2c3afbaf8e8","","null","<div style=""display: flex; justify-content: center; align-items: center;"">
                     <img src=""images/semantic/semantic_series_2/semantic_series_2_d.png"" style=""width: 300px; height: 300px;"" />
                   </div>","null","2","2","D","",""
"","","","","","html-keyboard-response","110","1242914","0.0-89.0-1.0-1.0","7FCB39F0125447ED8B97A593D856EA62","0199d5ff-7210-7b53-b9ce-ff93156cc0ab","0199d5ef-c7d4-7cab-a194-b2c3afbaf8e8","","null","<div style=""display: flex; justify-content: center; align-items: center;"">
                     <img src=""images/semantic/semantic_series_2/semantic_series_2_e.png"" style=""width: 300px; height: 300px;"" />
                   </div>","null","2","2","E","",""
"","","","","","html-keyboard-response","111","1248916","0.0-89.0-1.0-2.0","7FCB39F0125447ED8B97A593D856EA62","0199d5ff-7210-7b53-b9ce-ff93156cc0ab","0199d5ef-c7d4-7cab-a194-b2c3afbaf8e8","","null","<div style=""display: flex; justify-content: center; align-items: center;"">
                     <img src=""images/semantic/semantic_series_2/semantic_series_2_f.png"" style=""width: 300px; height: 300px;"" />
                   </div>","null","2","2","F","",""
"","","","","","survey-likert","112","1252610","0.0-90.0","7FCB39F0125447ED8B97A593D856EA62","0199d5ff-7210-7b53-b9ce-ff93156cc0ab","0199d5ef-c7d4-7cab-a194-b2c3afbaf8e8","","3693","","{""Q0"":4}","2","2","surprise_rating","","[0]"
"","","","","","survey-likert","113","1254684","0.0-91.0","7FCB39F0125447ED8B97A593D856EA62","0199d5ff-7210-7b53-b9ce-ff93156cc0ab","0199d5ef-c7d4-7cab-a194-b2c3afbaf8e8","","2073","","{""Q0"":4}","2","2","enjoyment_rating","","[0]"
"","","","","","html-keyboard-response","114","1260700","0.0-92.0","7FCB39F0125447ED8B97A593D856EA62","0199d5ff-7210-7b53-b9ce-ff93156cc0ab","0199d5ef-c7d4-7cab-a194-b2c3afbaf8e8","","null","<div style=""display: flex; justify-content: center; align-items: center;"">
                     <img src=""images/other/blank.png"" style=""width: 300px; height: 300px;"" />
                   </div>","null","0","0","blank","",""
"","","","","","html-keyboard-response","115","1266714","0.0-93.0","7FCB39F0125447ED8B97A593D856EA62","0199d5ff-7210-7b53-b9ce-ff93156cc0ab","0199d5ef-c7d4-7cab-a194-b2c3afbaf8e8","","null","<div style=""display: flex; justify-content: center; align-items: center;"">
                     <img src=""images/causal/causal_series_7/causal_series_7_a.png"" style=""width: 300px; height: 300px;"" />
                   </div>","null","7","1","A","",""
"","","","","","html-keyboard-response","116","1272902","0.0-94.0","7FCB39F0125447ED8B97A593D856EA62","0199d5ff-7210-7b53-b9ce-ff93156cc0ab","0199d5ef-c7d4-7cab-a194-b2c3afbaf8e8","","null","<div style=""display: flex; justify-content: center; align-items: center;"">
                     <img src=""images/causal/causal_series_7/causal_series_7_b.png"" style=""width: 300px; height: 300px;"" />
                   </div>","null","7","1","B","",""
"","","","","","html-keyboard-response","117","1278912","0.0-95.0","7FCB39F0125447ED8B97A593D856EA62","0199d5ff-7210-7b53-b9ce-ff93156cc0ab","0199d5ef-c7d4-7cab-a194-b2c3afbaf8e8","","null","<div style=""display: flex; justify-content: center; align-items: center;"">
                     <img src=""images/causal/causal_series_7/causal_series_7_c.png"" style=""width: 300px; height: 300px;"" />
                   </div>","null","7","1","C","",""
"","","","","","html-button-response","118","1281226","0.0-96.0","7FCB39F0125447ED8B97A593D856EA62","0199d5ff-7210-7b53-b9ce-ff93156cc0ab","0199d5ef-c7d4-7cab-a194-b2c3afbaf8e8","","2313","
        <div style=""display: flex; justify-content: center; align-items: center;"">
          <img src=""images/red_deck_2.png"" style=""width: 300px; height: 300px; margin-right: 10px;"" />
          <img src=""images/blue_deck_1.png"" style=""width: 300px; height: 300px;"" />
        </div>","0","7","1","choice","0",""
"","","","","","html-keyboard-response","119","1287241","0.0-97.0-0.0-0.0","7FCB39F0125447ED8B97A593D856EA62","0199d5ff-7210-7b53-b9ce-ff93156cc0ab","0199d5ef-c7d4-7cab-a194-b2c3afbaf8e8","","null","<div style=""display: flex; justify-content: center; align-items: center;"">
                     <img src=""images/causal/causal_series_7/causal_series_7_d.png"" style=""width: 300px; height: 300px;"" />
                   </div>","null","7","1","D","",""
"","","","","","html-keyboard-response","120","1293257","0.0-97.0-0.0-1.0","7FCB39F0125447ED8B97A593D856EA62","0199d5ff-7210-7b53-b9ce-ff93156cc0ab","0199d5ef-c7d4-7cab-a194-b2c3afbaf8e8","","null","<div style=""display: flex; justify-content: center; align-items: center;"">
                     <img src=""images/causal/causal_series_7/causal_series_7_e.png"" style=""width: 300px; height: 300px;"" />
                   </div>","null","7","1","E","",""
"","","","","","html-keyboard-response","121","1299267","0.0-97.0-0.0-2.0","7FCB39F0125447ED8B97A593D856EA62","0199d5ff-7210-7b53-b9ce-ff93156cc0ab","0199d5ef-c7d4-7cab-a194-b2c3afbaf8e8","","null","<div style=""display: flex; justify-content: center; align-items: center;"">
                     <img src=""images/causal/causal_series_7/causal_series_7_f.png"" style=""width: 300px; height: 300px;"" />
                   </div>","null","7","1","F","",""
"","","","","","survey-likert","122","1302696","0.0-98.0","7FCB39F0125447ED8B97A593D856EA62","0199d5ff-7210-7b53-b9ce-ff93156cc0ab","0199d5ef-c7d4-7cab-a194-b2c3afbaf8e8","","3428","","{""Q0"":4}","7","1","surprise_rating","","[0]"
"","","","","","survey-likert","123","1304740","0.0-99.0","7FCB39F0125447ED8B97A593D856EA62","0199d5ff-7210-7b53-b9ce-ff93156cc0ab","0199d5ef-c7d4-7cab-a194-b2c3afbaf8e8","","2043","","{""Q0"":4}","7","1","enjoyment_rating","","[0]"
"","","","","","html-keyboard-response","124","1310748","0.0-100.0","7FCB39F0125447ED8B97A593D856EA62","0199d5ff-7210-7b53-b9ce-ff93156cc0ab","0199d5ef-c7d4-7cab-a194-b2c3afbaf8e8","","null","<div style=""display: flex; justify-content: center; align-items: center;"">
                     <img src=""images/other/blank.png"" style=""width: 300px; height: 300px;"" />
                   </div>","null","0","0","blank","",""
"","","","","","html-keyboard-response","125","1316759","0.0-101.0","7FCB39F0125447ED8B97A593D856EA62","0199d5ff-7210-7b53-b9ce-ff93156cc0ab","0199d5ef-c7d4-7cab-a194-b2c3afbaf8e8","","null","<div style=""display: flex; justify-content: center; align-items: center;"">
                     <img src=""images/causal/causal_series_7/causal_series_7_a.png"" style=""width: 300px; height: 300px;"" />
                   </div>","null","7","2","A","",""
"","","","","","html-keyboard-response","126","1322770","0.0-102.0","7FCB39F0125447ED8B97A593D856EA62","0199d5ff-7210-7b53-b9ce-ff93156cc0ab","0199d5ef-c7d4-7cab-a194-b2c3afbaf8e8","","null","<div style=""display: flex; justify-content: center; align-items: center;"">
                     <img src=""images/causal/causal_series_7/causal_series_7_b.png"" style=""width: 300px; height: 300px;"" />
                   </div>","null","7","2","B","",""
"","","","","","html-keyboard-response","127","1328782","0.0-103.0","7FCB39F0125447ED8B97A593D856EA62","0199d5ff-7210-7b53-b9ce-ff93156cc0ab","0199d5ef-c7d4-7cab-a194-b2c3afbaf8e8","","null","<div style=""display: flex; justify-content: center; align-items: center;"">
                     <img src=""images/causal/causal_series_7/causal_series_7_c.png"" style=""width: 300px; height: 300px;"" />
                   </div>","null","7","2","C","",""
"","","","","","html-button-response","128","1330575","0.0-104.0","7FCB39F0125447ED8B97A593D856EA62","0199d5ff-7210-7b53-b9ce-ff93156cc0ab","0199d5ef-c7d4-7cab-a194-b2c3afbaf8e8","","1792","
        <div style=""display: flex; justify-content: center; align-items: center;"">
          <img src=""images/red_deck_2.png"" style=""width: 300px; height: 300px; margin-right: 10px;"" />
          <img src=""images/blue_deck_1.png"" style=""width: 300px; height: 300px;"" />
        </div>","0","7","2","choice","0",""
"","","","","","html-keyboard-response","129","1336587","0.0-105.0-0.0-0.0","7FCB39F0125447ED8B97A593D856EA62","0199d5ff-7210-7b53-b9ce-ff93156cc0ab","0199d5ef-c7d4-7cab-a194-b2c3afbaf8e8","","null","<div style=""display: flex; justify-content: center; align-items: center;"">
                     <img src=""images/causal/causal_series_7/causal_series_7_d.png"" style=""width: 300px; height: 300px;"" />
                   </div>","null","7","2","D","",""
"","","","","","html-keyboard-response","130","1342602","0.0-105.0-0.0-1.0","7FCB39F0125447ED8B97A593D856EA62","0199d5ff-7210-7b53-b9ce-ff93156cc0ab","0199d5ef-c7d4-7cab-a194-b2c3afbaf8e8","","null","<div style=""display: flex; justify-content: center; align-items: center;"">
                     <img src=""images/causal/causal_series_7/causal_series_7_e.png"" style=""width: 300px; height: 300px;"" />
                   </div>","null","7","2","E","",""
"","","","","","html-keyboard-response","131","1348616","0.0-105.0-0.0-2.0","7FCB39F0125447ED8B97A593D856EA62","0199d5ff-7210-7b53-b9ce-ff93156cc0ab","0199d5ef-c7d4-7cab-a194-b2c3afbaf8e8","","null","<div style=""display: flex; justify-content: center; align-items: center;"">
                     <img src=""images/causal/causal_series_7/causal_series_7_f.png"" style=""width: 300px; height: 300px;"" />
                   </div>","null","7","2","F","",""
"","","","","","survey-likert","132","1352126","0.0-106.0","7FCB39F0125447ED8B97A593D856EA62","0199d5ff-7210-7b53-b9ce-ff93156cc0ab","0199d5ef-c7d4-7cab-a194-b2c3afbaf8e8","","3509","","{""Q0"":3}","7","2","surprise_rating","","[0]"
"","","","","","survey-likert","133","1353637","0.0-107.0","7FCB39F0125447ED8B97A593D856EA62","0199d5ff-7210-7b53-b9ce-ff93156cc0ab","0199d5ef-c7d4-7cab-a194-b2c3afbaf8e8","","1511","","{""Q0"":4}","7","2","enjoyment_rating","","[0]"
"","","","","","html-keyboard-response","134","1359651","0.0-108.0","7FCB39F0125447ED8B97A593D856EA62","0199d5ff-7210-7b53-b9ce-ff93156cc0ab","0199d5ef-c7d4-7cab-a194-b2c3afbaf8e8","","null","<div style=""display: flex; justify-content: center; align-items: center;"">
                     <img src=""images/other/blank.png"" style=""width: 300px; height: 300px;"" />
                   </div>","null","0","0","blank","",""
"","","","","","html-keyboard-response","135","1365658","0.0-109.0","7FCB39F0125447ED8B97A593D856EA62","0199d5ff-7210-7b53-b9ce-ff93156cc0ab","0199d5ef-c7d4-7cab-a194-b2c3afbaf8e8","","null","<div style=""display: flex; justify-content: center; align-items: center;"">
                     <img src=""images/causal/causal_series_10/causal_series_10_a.png"" style=""width: 300px; height: 300px;"" />
                   </div>","null","10","1","A","",""
"","","","","","html-keyboard-response","136","1371664","0.0-110.0","7FCB39F0125447ED8B97A593D856EA62","0199d5ff-7210-7b53-b9ce-ff93156cc0ab","0199d5ef-c7d4-7cab-a194-b2c3afbaf8e8","","null","<div style=""display: flex; justify-content: center; align-items: center;"">
                     <img src=""images/causal/causal_series_10/causal_series_10_b.png"" style=""width: 300px; height: 300px;"" />
                   </div>","null","10","1","B","",""
"","","","","","html-keyboard-response","137","1377679","0.0-111.0","7FCB39F0125447ED8B97A593D856EA62","0199d5ff-7210-7b53-b9ce-ff93156cc0ab","0199d5ef-c7d4-7cab-a194-b2c3afbaf8e8","","null","<div style=""display: flex; justify-content: center; align-items: center;"">
                     <img src=""images/causal/causal_series_10/causal_series_10_c.png"" style=""width: 300px; height: 300px;"" />
                   </div>","null","10","1","C","",""
"","","","","","html-button-response","138","1384193","0.0-112.0","7FCB39F0125447ED8B97A593D856EA62","0199d5ff-7210-7b53-b9ce-ff93156cc0ab","0199d5ef-c7d4-7cab-a194-b2c3afbaf8e8","","6513","
        <div style=""display: flex; justify-content: center; align-items: center;"">
          <img src=""images/red_deck_2.png"" style=""width: 300px; height: 300px; margin-right: 10px;"" />
          <img src=""images/blue_deck_1.png"" style=""width: 300px; height: 300px;"" />
        </div>","1","10","1","choice","1",""
"","","","","","html-keyboard-response","139","1390210","0.0-113.0-1.0-0.0","7FCB39F0125447ED8B97A593D856EA62","0199d5ff-7210-7b53-b9ce-ff93156cc0ab","0199d5ef-c7d4-7cab-a194-b2c3afbaf8e8","","null","<div style=""display: flex; justify-content: center; align-items: center;"">
                     <img src=""images/semantic/semantic_series_10/semantic_series_10_d.png"" style=""width: 300px; height: 300px;"" />
                   </div>","null","10","1","D","",""
"","","","","","html-keyboard-response","140","1396227","0.0-113.0-1.0-1.0","7FCB39F0125447ED8B97A593D856EA62","0199d5ff-7210-7b53-b9ce-ff93156cc0ab","0199d5ef-c7d4-7cab-a194-b2c3afbaf8e8","","null","<div style=""display: flex; justify-content: center; align-items: center;"">
                     <img src=""images/semantic/semantic_series_10/semantic_series_10_e.png"" style=""width: 300px; height: 300px;"" />
                   </div>","null","10","1","E","",""
"","","","","","html-keyboard-response","141","1402238","0.0-113.0-1.0-2.0","7FCB39F0125447ED8B97A593D856EA62","0199d5ff-7210-7b53-b9ce-ff93156cc0ab","0199d5ef-c7d4-7cab-a194-b2c3afbaf8e8","","null","<div style=""display: flex; justify-content: center; align-items: center;"">
                     <img src=""images/semantic/semantic_series_10/semantic_series_10_f.png"" style=""width: 300px; height: 300px;"" />
                   </div>","null","10","1","F","",""
"","","","","","survey-likert","142","1405368","0.0-114.0","7FCB39F0125447ED8B97A593D856EA62","0199d5ff-7210-7b53-b9ce-ff93156cc0ab","0199d5ef-c7d4-7cab-a194-b2c3afbaf8e8","","3129","","{""Q0"":4}","10","1","surprise_rating","","[0]"
"","","","","","survey-likert","143","1407056","0.0-115.0","7FCB39F0125447ED8B97A593D856EA62","0199d5ff-7210-7b53-b9ce-ff93156cc0ab","0199d5ef-c7d4-7cab-a194-b2c3afbaf8e8","","1688","","{""Q0"":4}","10","1","enjoyment_rating","","[0]"
"","","","","","html-keyboard-response","144","1413071","0.0-116.0","7FCB39F0125447ED8B97A593D856EA62","0199d5ff-7210-7b53-b9ce-ff93156cc0ab","0199d5ef-c7d4-7cab-a194-b2c3afbaf8e8","","null","<div style=""display: flex; justify-content: center; align-items: center;"">
                     <img src=""images/other/blank.png"" style=""width: 300px; height: 300px;"" />
                   </div>","null","0","0","blank","",""
"","","","","","html-keyboard-response","145","1419072","0.0-117.0","7FCB39F0125447ED8B97A593D856EA62","0199d5ff-7210-7b53-b9ce-ff93156cc0ab","0199d5ef-c7d4-7cab-a194-b2c3afbaf8e8","","null","<div style=""display: flex; justify-content: center; align-items: center;"">
                     <img src=""images/causal/causal_series_8/causal_series_8_a.png"" style=""width: 300px; height: 300px;"" />
                   </div>","null","8","1","A","",""
"","","","","","html-keyboard-response","146","1425083","0.0-118.0","7FCB39F0125447ED8B97A593D856EA62","0199d5ff-7210-7b53-b9ce-ff93156cc0ab","0199d5ef-c7d4-7cab-a194-b2c3afbaf8e8","","null","<div style=""display: flex; justify-content: center; align-items: center;"">
                     <img src=""images/causal/causal_series_8/causal_series_8_b.png"" style=""width: 300px; height: 300px;"" />
                   </div>","null","8","1","B","",""
"","","","","","html-keyboard-response","147","1431093","0.0-119.0","7FCB39F0125447ED8B97A593D856EA62","0199d5ff-7210-7b53-b9ce-ff93156cc0ab","0199d5ef-c7d4-7cab-a194-b2c3afbaf8e8","","null","<div style=""display: flex; justify-content: center; align-items: center;"">
                     <img src=""images/causal/causal_series_8/causal_series_8_c.png"" style=""width: 300px; height: 300px;"" />
                   </div>","null","8","1","C","",""
"","","","","","html-button-response","148","1432580","0.0-120.0","7FCB39F0125447ED8B97A593D856EA62","0199d5ff-7210-7b53-b9ce-ff93156cc0ab","0199d5ef-c7d4-7cab-a194-b2c3afbaf8e8","","1486","
        <div style=""display: flex; justify-content: center; align-items: center;"">
          <img src=""images/red_deck_2.png"" style=""width: 300px; height: 300px; margin-right: 10px;"" />
          <img src=""images/blue_deck_1.png"" style=""width: 300px; height: 300px;"" />
        </div>","0","8","1","choice","0",""
"","","","","","html-keyboard-response","149","1438590","0.0-121.0-0.0-0.0","7FCB39F0125447ED8B97A593D856EA62","0199d5ff-7210-7b53-b9ce-ff93156cc0ab","0199d5ef-c7d4-7cab-a194-b2c3afbaf8e8","","null","<div style=""display: flex; justify-content: center; align-items: center;"">
                     <img src=""images/causal/causal_series_8/causal_series_8_d.png"" style=""width: 300px; height: 300px;"" />
                   </div>","null","8","1","D","",""
"","","","","","html-keyboard-response","150","1444601","0.0-121.0-0.0-1.0","7FCB39F0125447ED8B97A593D856EA62","0199d5ff-7210-7b53-b9ce-ff93156cc0ab","0199d5ef-c7d4-7cab-a194-b2c3afbaf8e8","","null","<div style=""display: flex; justify-content: center; align-items: center;"">
                     <img src=""images/causal/causal_series_8/causal_series_8_e.png"" style=""width: 300px; height: 300px;"" />
                   </div>","null","8","1","E","",""
"","","","","","html-keyboard-response","151","1450611","0.0-121.0-0.0-2.0","7FCB39F0125447ED8B97A593D856EA62","0199d5ff-7210-7b53-b9ce-ff93156cc0ab","0199d5ef-c7d4-7cab-a194-b2c3afbaf8e8","","null","<div style=""display: flex; justify-content: center; align-items: center;"">
                     <img src=""images/causal/causal_series_8/causal_series_8_f.png"" style=""width: 300px; height: 300px;"" />
                   </div>","null","8","1","F","",""
"","","","","","survey-likert","152","1453377","0.0-122.0","7FCB39F0125447ED8B97A593D856EA62","0199d5ff-7210-7b53-b9ce-ff93156cc0ab","0199d5ef-c7d4-7cab-a194-b2c3afbaf8e8","","2765","","{""Q0"":4}","8","1","surprise_rating","","[0]"
"","","","","","survey-likert","153","1455228","0.0-123.0","7FCB39F0125447ED8B97A593D856EA62","0199d5ff-7210-7b53-b9ce-ff93156cc0ab","0199d5ef-c7d4-7cab-a194-b2c3afbaf8e8","","1850","","{""Q0"":4}","8","1","enjoyment_rating","","[0]"
"","","","","","html-keyboard-response","154","1461237","0.0-124.0","7FCB39F0125447ED8B97A593D856EA62","0199d5ff-7210-7b53-b9ce-ff93156cc0ab","0199d5ef-c7d4-7cab-a194-b2c3afbaf8e8","","null","<div style=""display: flex; justify-content: center; align-items: center;"">
                     <img src=""images/other/blank.png"" style=""width: 300px; height: 300px;"" />
                   </div>","null","0","0","blank","",""
"","","","","","html-keyboard-response","155","1467243","0.0-125.0","7FCB39F0125447ED8B97A593D856EA62","0199d5ff-7210-7b53-b9ce-ff93156cc0ab","0199d5ef-c7d4-7cab-a194-b2c3afbaf8e8","","null","<div style=""display: flex; justify-content: center; align-items: center;"">
                     <img src=""images/causal/causal_series_5/causal_series_5_a.png"" style=""width: 300px; height: 300px;"" />
                   </div>","null","5","1","A","",""
"","","","","","html-keyboard-response","156","1473253","0.0-126.0","7FCB39F0125447ED8B97A593D856EA62","0199d5ff-7210-7b53-b9ce-ff93156cc0ab","0199d5ef-c7d4-7cab-a194-b2c3afbaf8e8","","null","<div style=""display: flex; justify-content: center; align-items: center;"">
                     <img src=""images/causal/causal_series_5/causal_series_5_b.png"" style=""width: 300px; height: 300px;"" />
                   </div>","null","5","1","B","",""
"","","","","","html-keyboard-response","157","1479264","0.0-127.0","7FCB39F0125447ED8B97A593D856EA62","0199d5ff-7210-7b53-b9ce-ff93156cc0ab","0199d5ef-c7d4-7cab-a194-b2c3afbaf8e8","","null","<div style=""display: flex; justify-content: center; align-items: center;"">
                     <img src=""images/causal/causal_series_5/causal_series_5_c.png"" style=""width: 300px; height: 300px;"" />
                   </div>","null","5","1","C","",""
"","","","","","html-button-response","158","1482825","0.0-128.0","7FCB39F0125447ED8B97A593D856EA62","0199d5ff-7210-7b53-b9ce-ff93156cc0ab","0199d5ef-c7d4-7cab-a194-b2c3afbaf8e8","","3560","
        <div style=""display: flex; justify-content: center; align-items: center;"">
          <img src=""images/red_deck_2.png"" style=""width: 300px; height: 300px; margin-right: 10px;"" />
          <img src=""images/blue_deck_1.png"" style=""width: 300px; height: 300px;"" />
        </div>","1","5","1","choice","1",""
"","","","","","html-keyboard-response","159","1488837","0.0-129.0-1.0-0.0","7FCB39F0125447ED8B97A593D856EA62","0199d5ff-7210-7b53-b9ce-ff93156cc0ab","0199d5ef-c7d4-7cab-a194-b2c3afbaf8e8","","null","<div style=""display: flex; justify-content: center; align-items: center;"">
                     <img src=""images/semantic/semantic_series_5/semantic_series_5_d.png"" style=""width: 300px; height: 300px;"" />
                   </div>","null","5","1","D","",""
"","","","","","html-keyboard-response","160","1494844","0.0-129.0-1.0-1.0","7FCB39F0125447ED8B97A593D856EA62","0199d5ff-7210-7b53-b9ce-ff93156cc0ab","0199d5ef-c7d4-7cab-a194-b2c3afbaf8e8","","null","<div style=""display: flex; justify-content: center; align-items: center;"">
                     <img src=""images/semantic/semantic_series_5/semantic_series_5_e.png"" style=""width: 300px; height: 300px;"" />
                   </div>","null","5","1","E","",""
"","","","","","html-keyboard-response","161","1500846","0.0-129.0-1.0-2.0","7FCB39F0125447ED8B97A593D856EA62","0199d5ff-7210-7b53-b9ce-ff93156cc0ab","0199d5ef-c7d4-7cab-a194-b2c3afbaf8e8","","null","<div style=""display: flex; justify-content: center; align-items: center;"">
                     <img src=""images/semantic/semantic_series_5/semantic_series_5_f.png"" style=""width: 300px; height: 300px;"" />
                   </div>","null","5","1","F","",""
"","","","","","survey-likert","162","1503506","0.0-130.0","7FCB39F0125447ED8B97A593D856EA62","0199d5ff-7210-7b53-b9ce-ff93156cc0ab","0199d5ef-c7d4-7cab-a194-b2c3afbaf8e8","","2659","","{""Q0"":4}","5","1","surprise_rating","","[0]"
"","","","","","survey-likert","163","1505157","0.0-131.0","7FCB39F0125447ED8B97A593D856EA62","0199d5ff-7210-7b53-b9ce-ff93156cc0ab","0199d5ef-c7d4-7cab-a194-b2c3afbaf8e8","","1649","","{""Q0"":4}","5","1","enjoyment_rating","","[0]"
"","","","","","html-keyboard-response","164","1511161","0.0-132.0","7FCB39F0125447ED8B97A593D856EA62","0199d5ff-7210-7b53-b9ce-ff93156cc0ab","0199d5ef-c7d4-7cab-a194-b2c3afbaf8e8","","null","<div style=""display: flex; justify-content: center; align-items: center;"">
                     <img src=""images/other/blank.png"" style=""width: 300px; height: 300px;"" />
                   </div>","null","0","0","blank","",""
"","","","","","html-keyboard-response","165","1517177","0.0-133.0","7FCB39F0125447ED8B97A593D856EA62","0199d5ff-7210-7b53-b9ce-ff93156cc0ab","0199d5ef-c7d4-7cab-a194-b2c3afbaf8e8","","null","<div style=""display: flex; justify-content: center; align-items: center;"">
                     <img src=""images/causal/causal_series_5/causal_series_5_a.png"" style=""width: 300px; height: 300px;"" />
                   </div>","null","5","2","A","",""
"","","","","","html-keyboard-response","166","1523183","0.0-134.0","7FCB39F0125447ED8B97A593D856EA62","0199d5ff-7210-7b53-b9ce-ff93156cc0ab","0199d5ef-c7d4-7cab-a194-b2c3afbaf8e8","","null","<div style=""display: flex; justify-content: center; align-items: center;"">
                     <img src=""images/causal/causal_series_5/causal_series_5_b.png"" style=""width: 300px; height: 300px;"" />
                   </div>","null","5","2","B","",""
"","","","","","html-keyboard-response","167","1529194","0.0-135.0","7FCB39F0125447ED8B97A593D856EA62","0199d5ff-7210-7b53-b9ce-ff93156cc0ab","0199d5ef-c7d4-7cab-a194-b2c3afbaf8e8","","null","<div style=""display: flex; justify-content: center; align-items: center;"">
                     <img src=""images/causal/causal_series_5/causal_series_5_c.png"" style=""width: 300px; height: 300px;"" />
                   </div>","null","5","2","C","",""
"","","","","","html-button-response","168","1534111","0.0-136.0","7FCB39F0125447ED8B97A593D856EA62","0199d5ff-7210-7b53-b9ce-ff93156cc0ab","0199d5ef-c7d4-7cab-a194-b2c3afbaf8e8","","4916","
        <div style=""display: flex; justify-content: center; align-items: center;"">
          <img src=""images/red_deck_2.png"" style=""width: 300px; height: 300px; margin-right: 10px;"" />
          <img src=""images/blue_deck_1.png"" style=""width: 300px; height: 300px;"" />
        </div>","0","5","2","choice","0",""
"","","","","","html-keyboard-response","169","1540121","0.0-137.0-0.0-0.0","7FCB39F0125447ED8B97A593D856EA62","0199d5ff-7210-7b53-b9ce-ff93156cc0ab","0199d5ef-c7d4-7cab-a194-b2c3afbaf8e8","","null","<div style=""display: flex; justify-content: center; align-items: center;"">
                     <img src=""images/causal/causal_series_5/causal_series_5_d.png"" style=""width: 300px; height: 300px;"" />
                   </div>","null","5","2","D","",""
"","","","","","html-keyboard-response","170","1546135","0.0-137.0-0.0-1.0","7FCB39F0125447ED8B97A593D856EA62","0199d5ff-7210-7b53-b9ce-ff93156cc0ab","0199d5ef-c7d4-7cab-a194-b2c3afbaf8e8","","null","<div style=""display: flex; justify-content: center; align-items: center;"">
                     <img src=""images/causal/causal_series_5/causal_series_5_e.png"" style=""width: 300px; height: 300px;"" />
                   </div>","null","5","2","E","",""
"","","","","","html-keyboard-response","171","1552150","0.0-137.0-0.0-2.0","7FCB39F0125447ED8B97A593D856EA62","0199d5ff-7210-7b53-b9ce-ff93156cc0ab","0199d5ef-c7d4-7cab-a194-b2c3afbaf8e8","","null","<div style=""display: flex; justify-content: center; align-items: center;"">
                     <img src=""images/causal/causal_series_5/causal_series_5_f.png"" style=""width: 300px; height: 300px;"" />
                   </div>","null","5","2","F","",""
"","","","","","survey-likert","172","1556104","0.0-138.0","7FCB39F0125447ED8B97A593D856EA62","0199d5ff-7210-7b53-b9ce-ff93156cc0ab","0199d5ef-c7d4-7cab-a194-b2c3afbaf8e8","","3954","","{""Q0"":3}","5","2","surprise_rating","","[0]"
"","","","","","survey-likert","173","1558187","0.0-139.0","7FCB39F0125447ED8B97A593D856EA62","0199d5ff-7210-7b53-b9ce-ff93156cc0ab","0199d5ef-c7d4-7cab-a194-b2c3afbaf8e8","","2081","","{""Q0"":2}","5","2","enjoyment_rating","","[0]"
"","","","","","html-keyboard-response","174","1564195","0.0-140.0","7FCB39F0125447ED8B97A593D856EA62","0199d5ff-7210-7b53-b9ce-ff93156cc0ab","0199d5ef-c7d4-7cab-a194-b2c3afbaf8e8","","null","<div style=""display: flex; justify-content: center; align-items: center;"">
                     <img src=""images/other/blank.png"" style=""width: 300px; height: 300px;"" />
                   </div>","null","0","0","blank","",""
"","","","","","html-keyboard-response","175","1570211","0.0-141.0","7FCB39F0125447ED8B97A593D856EA62","0199d5ff-7210-7b53-b9ce-ff93156cc0ab","0199d5ef-c7d4-7cab-a194-b2c3afbaf8e8","","null","<div style=""display: flex; justify-content: center; align-items: center;"">
                     <img src=""images/causal/causal_series_4/causal_series_4_a.png"" style=""width: 300px; height: 300px;"" />
                   </div>","null","4","1","A","",""
"","","","","","html-keyboard-response","176","1576227","0.0-142.0","7FCB39F0125447ED8B97A593D856EA62","0199d5ff-7210-7b53-b9ce-ff93156cc0ab","0199d5ef-c7d4-7cab-a194-b2c3afbaf8e8","","null","<div style=""display: flex; justify-content: center; align-items: center;"">
                     <img src=""images/causal/causal_series_4/causal_series_4_b.png"" style=""width: 300px; height: 300px;"" />
                   </div>","null","4","1","B","",""
"","","","","","html-keyboard-response","177","1582239","0.0-143.0","7FCB39F0125447ED8B97A593D856EA62","0199d5ff-7210-7b53-b9ce-ff93156cc0ab","0199d5ef-c7d4-7cab-a194-b2c3afbaf8e8","","null","<div style=""display: flex; justify-content: center; align-items: center;"">
                     <img src=""images/causal/causal_series_4/causal_series_4_c.png"" style=""width: 300px; height: 300px;"" />
                   </div>","null","4","1","C","",""
"","","","","","html-button-response","178","1584667","0.0-144.0","7FCB39F0125447ED8B97A593D856EA62","0199d5ff-7210-7b53-b9ce-ff93156cc0ab","0199d5ef-c7d4-7cab-a194-b2c3afbaf8e8","","2427","
        <div style=""display: flex; justify-content: center; align-items: center;"">
          <img src=""images/red_deck_2.png"" style=""width: 300px; height: 300px; margin-right: 10px;"" />
          <img src=""images/blue_deck_1.png"" style=""width: 300px; height: 300px;"" />
        </div>","0","4","1","choice","0",""
"","","","","","html-keyboard-response","179","1590680","0.0-145.0-0.0-0.0","7FCB39F0125447ED8B97A593D856EA62","0199d5ff-7210-7b53-b9ce-ff93156cc0ab","0199d5ef-c7d4-7cab-a194-b2c3afbaf8e8","","null","<div style=""display: flex; justify-content: center; align-items: center;"">
                     <img src=""images/causal/causal_series_4/causal_series_4_d.png"" style=""width: 300px; height: 300px;"" />
                   </div>","null","4","1","D","",""
"","","","","","html-keyboard-response","180","1596691","0.0-145.0-0.0-1.0","7FCB39F0125447ED8B97A593D856EA62","0199d5ff-7210-7b53-b9ce-ff93156cc0ab","0199d5ef-c7d4-7cab-a194-b2c3afbaf8e8","","null","<div style=""display: flex; justify-content: center; align-items: center;"">
                     <img src=""images/causal/causal_series_4/causal_series_4_e.png"" style=""width: 300px; height: 300px;"" />
                   </div>","null","4","1","E","",""
"","","","","","html-keyboard-response","181","1602704","0.0-145.0-0.0-2.0","7FCB39F0125447ED8B97A593D856EA62","0199d5ff-7210-7b53-b9ce-ff93156cc0ab","0199d5ef-c7d4-7cab-a194-b2c3afbaf8e8","","null","<div style=""display: flex; justify-content: center; align-items: center;"">
                     <img src=""images/causal/causal_series_4/causal_series_4_f.png"" style=""width: 300px; height: 300px;"" />
                   </div>","null","4","1","F","",""
"","","","","","survey-likert","182","1606180","0.0-146.0","7FCB39F0125447ED8B97A593D856EA62","0199d5ff-7210-7b53-b9ce-ff93156cc0ab","0199d5ef-c7d4-7cab-a194-b2c3afbaf8e8","","3476","","{""Q0"":3}","4","1","surprise_rating","","[0]"
"","","","","","survey-likert","183","1608779","0.0-147.0","7FCB39F0125447ED8B97A593D856EA62","0199d5ff-7210-7b53-b9ce-ff93156cc0ab","0199d5ef-c7d4-7cab-a194-b2c3afbaf8e8","","2598","","{""Q0"":3}","4","1","enjoyment_rating","","[0]"
"","","","","","html-keyboard-response","184","1614782","0.0-148.0","7FCB39F0125447ED8B97A593D856EA62","0199d5ff-7210-7b53-b9ce-ff93156cc0ab","0199d5ef-c7d4-7cab-a194-b2c3afbaf8e8","","null","<div style=""display: flex; justify-content: center; align-items: center;"">
                     <img src=""images/other/blank.png"" style=""width: 300px; height: 300px;"" />
                   </div>","null","0","0","blank","",""
"","","","","","html-keyboard-response","185","1620787","0.0-149.0","7FCB39F0125447ED8B97A593D856EA62","0199d5ff-7210-7b53-b9ce-ff93156cc0ab","0199d5ef-c7d4-7cab-a194-b2c3afbaf8e8","","null","<div style=""display: flex; justify-content: center; align-items: center;"">
                     <img src=""images/causal/causal_series_8/causal_series_8_a.png"" style=""width: 300px; height: 300px;"" />
                   </div>","null","8","2","A","",""
"","","","","","html-keyboard-response","186","1626798","0.0-150.0","7FCB39F0125447ED8B97A593D856EA62","0199d5ff-7210-7b53-b9ce-ff93156cc0ab","0199d5ef-c7d4-7cab-a194-b2c3afbaf8e8","","null","<div style=""display: flex; justify-content: center; align-items: center;"">
                     <img src=""images/causal/causal_series_8/causal_series_8_b.png"" style=""width: 300px; height: 300px;"" />
                   </div>","null","8","2","B","",""
"","","","","","html-keyboard-response","187","1632799","0.0-151.0","7FCB39F0125447ED8B97A593D856EA62","0199d5ff-7210-7b53-b9ce-ff93156cc0ab","0199d5ef-c7d4-7cab-a194-b2c3afbaf8e8","","null","<div style=""display: flex; justify-content: center; align-items: center;"">
                     <img src=""images/causal/causal_series_8/causal_series_8_c.png"" style=""width: 300px; height: 300px;"" />
                   </div>","null","8","2","C","",""
"","","","","","html-button-response","188","1634399","0.0-152.0","7FCB39F0125447ED8B97A593D856EA62","0199d5ff-7210-7b53-b9ce-ff93156cc0ab","0199d5ef-c7d4-7cab-a194-b2c3afbaf8e8","","1599","
        <div style=""display: flex; justify-content: center; align-items: center;"">
          <img src=""images/red_deck_2.png"" style=""width: 300px; height: 300px; margin-right: 10px;"" />
          <img src=""images/blue_deck_1.png"" style=""width: 300px; height: 300px;"" />
        </div>","0","8","2","choice","0",""
"","","","","","html-keyboard-response","189","1640404","0.0-153.0-0.0-0.0","7FCB39F0125447ED8B97A593D856EA62","0199d5ff-7210-7b53-b9ce-ff93156cc0ab","0199d5ef-c7d4-7cab-a194-b2c3afbaf8e8","","null","<div style=""display: flex; justify-content: center; align-items: center;"">
                     <img src=""images/causal/causal_series_8/causal_series_8_d.png"" style=""width: 300px; height: 300px;"" />
                   </div>","null","8","2","D","",""
"","","","","","html-keyboard-response","190","1646418","0.0-153.0-0.0-1.0","7FCB39F0125447ED8B97A593D856EA62","0199d5ff-7210-7b53-b9ce-ff93156cc0ab","0199d5ef-c7d4-7cab-a194-b2c3afbaf8e8","","null","<div style=""display: flex; justify-content: center; align-items: center;"">
                     <img src=""images/causal/causal_series_8/causal_series_8_e.png"" style=""width: 300px; height: 300px;"" />
                   </div>","null","8","2","E","",""
"","","","","","html-keyboard-response","191","1652424","0.0-153.0-0.0-2.0","7FCB39F0125447ED8B97A593D856EA62","0199d5ff-7210-7b53-b9ce-ff93156cc0ab","0199d5ef-c7d4-7cab-a194-b2c3afbaf8e8","","null","<div style=""display: flex; justify-content: center; align-items: center;"">
                     <img src=""images/causal/causal_series_8/causal_series_8_f.png"" style=""width: 300px; height: 300px;"" />
                   </div>","null","8","2","F","",""
"","","","","","survey-likert","192","1655152","0.0-154.0","7FCB39F0125447ED8B97A593D856EA62","0199d5ff-7210-7b53-b9ce-ff93156cc0ab","0199d5ef-c7d4-7cab-a194-b2c3afbaf8e8","","2728","","{""Q0"":3}","8","2","surprise_rating","","[0]"
"","","","","","survey-likert","193","1657319","0.0-155.0","7FCB39F0125447ED8B97A593D856EA62","0199d5ff-7210-7b53-b9ce-ff93156cc0ab","0199d5ef-c7d4-7cab-a194-b2c3afbaf8e8","","2166","","{""Q0"":4}","8","2","enjoyment_rating","","[0]"
"","","","","","html-keyboard-response","194","1663322","0.0-156.0","7FCB39F0125447ED8B97A593D856EA62","0199d5ff-7210-7b53-b9ce-ff93156cc0ab","0199d5ef-c7d4-7cab-a194-b2c3afbaf8e8","","null","<div style=""display: flex; justify-content: center; align-items: center;"">
                     <img src=""images/other/blank.png"" style=""width: 300px; height: 300px;"" />
                   </div>","null","0","0","blank","",""
"","","","","","html-keyboard-response","195","1669334","0.0-157.0","7FCB39F0125447ED8B97A593D856EA62","0199d5ff-7210-7b53-b9ce-ff93156cc0ab","0199d5ef-c7d4-7cab-a194-b2c3afbaf8e8","","null","<div style=""display: flex; justify-content: center; align-items: center;"">
                     <img src=""images/causal/causal_series_9/causal_series_9_a.png"" style=""width: 300px; height: 300px;"" />
                   </div>","null","9","1","A","",""
"","","","","","html-keyboard-response","196","1675342","0.0-158.0","7FCB39F0125447ED8B97A593D856EA62","0199d5ff-7210-7b53-b9ce-ff93156cc0ab","0199d5ef-c7d4-7cab-a194-b2c3afbaf8e8","","null","<div style=""display: flex; justify-content: center; align-items: center;"">
                     <img src=""images/causal/causal_series_9/causal_series_9_b.png"" style=""width: 300px; height: 300px;"" />
                   </div>","null","9","1","B","",""
"","","","","","html-keyboard-response","197","1681347","0.0-159.0","7FCB39F0125447ED8B97A593D856EA62","0199d5ff-7210-7b53-b9ce-ff93156cc0ab","0199d5ef-c7d4-7cab-a194-b2c3afbaf8e8","","null","<div style=""display: flex; justify-content: center; align-items: center;"">
                     <img src=""images/causal/causal_series_9/causal_series_9_c.png"" style=""width: 300px; height: 300px;"" />
                   </div>","null","9","1","C","",""
"","","","","","html-button-response","198","1682892","0.0-160.0","7FCB39F0125447ED8B97A593D856EA62","0199d5ff-7210-7b53-b9ce-ff93156cc0ab","0199d5ef-c7d4-7cab-a194-b2c3afbaf8e8","","1544","
        <div style=""display: flex; justify-content: center; align-items: center;"">
          <img src=""images/red_deck_2.png"" style=""width: 300px; height: 300px; margin-right: 10px;"" />
          <img src=""images/blue_deck_1.png"" style=""width: 300px; height: 300px;"" />
        </div>","0","9","1","choice","0",""
"","","","","","html-keyboard-response","199","1688897","0.0-161.0-0.0-0.0","7FCB39F0125447ED8B97A593D856EA62","0199d5ff-7210-7b53-b9ce-ff93156cc0ab","0199d5ef-c7d4-7cab-a194-b2c3afbaf8e8","","null","<div style=""display: flex; justify-content: center; align-items: center;"">
                     <img src=""images/causal/causal_series_9/causal_series_9_d.png"" style=""width: 300px; height: 300px;"" />
                   </div>","null","9","1","D","",""
"","","","","","html-keyboard-response","200","1694901","0.0-161.0-0.0-1.0","7FCB39F0125447ED8B97A593D856EA62","0199d5ff-7210-7b53-b9ce-ff93156cc0ab","0199d5ef-c7d4-7cab-a194-b2c3afbaf8e8","","null","<div style=""display: flex; justify-content: center; align-items: center;"">
                     <img src=""images/causal/causal_series_9/causal_series_9_e.png"" style=""width: 300px; height: 300px;"" />
                   </div>","null","9","1","E","",""
"","","","","","html-keyboard-response","201","1700903","0.0-161.0-0.0-2.0","7FCB39F0125447ED8B97A593D856EA62","0199d5ff-7210-7b53-b9ce-ff93156cc0ab","0199d5ef-c7d4-7cab-a194-b2c3afbaf8e8","","null","<div style=""display: flex; justify-content: center; align-items: center;"">
                     <img src=""images/causal/causal_series_9/causal_series_9_f.png"" style=""width: 300px; height: 300px;"" />
                   </div>","null","9","1","F","",""
"","","","","","survey-likert","202","1703294","0.0-162.0","7FCB39F0125447ED8B97A593D856EA62","0199d5ff-7210-7b53-b9ce-ff93156cc0ab","0199d5ef-c7d4-7cab-a194-b2c3afbaf8e8","","2390","","{""Q0"":4}","9","1","surprise_rating","","[0]"
"","","","","","survey-likert","203","1704559","0.0-163.0","7FCB39F0125447ED8B97A593D856EA62","0199d5ff-7210-7b53-b9ce-ff93156cc0ab","0199d5ef-c7d4-7cab-a194-b2c3afbaf8e8","","1264","","{""Q0"":4}","9","1","enjoyment_rating","","[0]"
"","","","","","html-keyboard-response","204","1710910","0.0-164.0","7FCB39F0125447ED8B97A593D856EA62","0199d5ff-7210-7b53-b9ce-ff93156cc0ab","0199d5ef-c7d4-7cab-a194-b2c3afbaf8e8","","null","<div style=""display: flex; justify-content: center; align-items: center;"">
                     <img src=""images/other/blank.png"" style=""width: 300px; height: 300px;"" />
                   </div>","null","0","0","blank","",""
"","","","","","survey-text","205","1737864","0.0-165.0","7FCB39F0125447ED8B97A593D856EA62","0199d5ff-7210-7b53-b9ce-ff93156cc0ab","0199d5ef-c7d4-7cab-a194-b2c3afbaf8e8","","26946","","{""Q0"":""one was red while the other was blue""}","","","","",""
"","","","","","html-button-response","206","1745214","0.0-166.0","7FCB39F0125447ED8B97A593D856EA62","0199d5ff-7210-7b53-b9ce-ff93156cc0ab","0199d5ef-c7d4-7cab-a194-b2c3afbaf8e8","","7348","Which color deck do the following sentences continue the story from?","0","","","","",""
"","","","","","html-button-response","207","1749401","0.0-167.0","7FCB39F0125447ED8B97A593D856EA62","0199d5ff-7210-7b53-b9ce-ff93156cc0ab","0199d5ef-c7d4-7cab-a194-b2c3afbaf8e8","","4187","Which color deck do the following sentences NOT follow the story from?","1","","","","",""
"","","","","","html-button-response","208","1755517","0.0-168.0","7FCB39F0125447ED8B97A593D856EA62","0199d5ff-7210-7b53-b9ce-ff93156cc0ab","0199d5ef-c7d4-7cab-a194-b2c3afbaf8e8","","6115","Which type of deck did you prefer overall?","1","","","","",""
"","","","","","survey-text","209","1763168","0.0-169.0","7FCB39F0125447ED8B97A593D856EA62","0199d5ff-7210-7b53-b9ce-ff93156cc0ab","0199d5ef-c7d4-7cab-a194-b2c3afbaf8e8","","7646","","{""Q0"":""Male"",""Q1"":""29""}","","","","",""
"","","","","","instructions","210","1766468","0.0-170.0","7FCB39F0125447ED8B97A593D856EA62","0199d5ff-7210-7b53-b9ce-ff93156cc0ab","0199d5ef-c7d4-7cab-a194-b2c3afbaf8e8","[{""page_index"":0,""viewing_time"":3299}]","3300","","","","","","",""
