"success","timeout","failed_images","failed_audio","failed_video","trial_type","trial_index","time_elapsed","internal_node_id","subject_id","study_id","session_id","view_history","rt","stimulus","response","choice"
"true","false","[]","[]","[]","preload","0","4848","0.0-0.0","B4E11C24954F4DE8A318AED1657A3525","8aebf676-f36d-4051-a454-b9dae621b0d3","683bf07d-1a26-40b1-9cff-5abdc1eed0ee","","","","",""
"","","","","","instructions","1","6330","0.0-1.0","B4E11C24954F4DE8A318AED1657A3525","8aebf676-f36d-4051-a454-b9dae621b0d3","683bf07d-1a26-40b1-9cff-5abdc1eed0ee","[{""page_index"":0,""viewing_time"":1480}]","1481","","",""
"","","","","","instructions","2","8661","0.0-2.0","B4E11C24954F4DE8A318AED1657A3525","8aebf676-f36d-4051-a454-b9dae621b0d3","683bf07d-1a26-40b1-9cff-5abdc1eed0ee","[{""page_index"":0,""viewing_time"":2330}]","2331","","",""
"true","","","","","fullscreen","3","11110","0.0-3.0","B4E11C24954F4DE8A318AED1657A3525","8aebf676-f36d-4051-a454-b9dae621b0d3","683bf07d-1a26-40b1-9cff-5abdc1eed0ee","","1437","","",""
"","","","","","instructions","4","21047","0.0-4.0","B4E11C24954F4DE8A318AED1657A3525","8aebf676-f36d-4051-a454-b9dae621b0d3","683bf07d-1a26-40b1-9cff-5abdc1eed0ee","[{""page_index"":0,""viewing_time"":9935}]","9935","","",""
"","","","","","html-keyboard-response","5","24063","0.0-5.0","B4E11C24954F4DE8A318AED1657A3525","8aebf676-f36d-4051-a454-b9dae621b0d3","683bf07d-1a26-40b1-9cff-5abdc1eed0ee","","null","<div style=""display: flex; justify-content: center; align-items: center;"">
                <img src=""images/causal/causal_series_3/causal_series_3_a.jpg"" style=""width: 300px; height: 300px;"" />
              </div>","null",""
"","","","","","html-keyboard-response","6","27073","0.0-6.0","B4E11C24954F4DE8A318AED1657A3525","8aebf676-f36d-4051-a454-b9dae621b0d3","683bf07d-1a26-40b1-9cff-5abdc1eed0ee","","null","<div style=""display: flex; justify-content: center; align-items: center;"">
                <img src=""images/causal/causal_series_3/causal_series_3_b.jpg"" style=""width: 300px; height: 300px;"" />
              </div>","null",""
"","","","","","html-keyboard-response","7","30082","0.0-7.0","B4E11C24954F4DE8A318AED1657A3525","8aebf676-f36d-4051-a454-b9dae621b0d3","683bf07d-1a26-40b1-9cff-5abdc1eed0ee","","null","<div style=""display: flex; justify-content: center; align-items: center;"">
                <img src=""images/causal/causal_series_3/causal_series_3_c.jpg"" style=""width: 300px; height: 300px;"" />
              </div>","null",""
"","","","","","html-button-response","8","32182","0.0-8.0","B4E11C24954F4DE8A318AED1657A3525","8aebf676-f36d-4051-a454-b9dae621b0d3","683bf07d-1a26-40b1-9cff-5abdc1eed0ee","","2097","
    <div style=""display: flex; justify-content: center; align-items: center;"">
      <img src=""images/red_deck_2.png"" style=""width: 300px; height: 300px; margin-right: 10px;"" />
      <img src=""images/blue_deck_1.png"" style=""width: 300px; height: 300px;"" />
    </div>","0","0"
"","","","","","html-keyboard-response","9","35187","0.0-9.0-0.0-0.0","B4E11C24954F4DE8A318AED1657A3525","8aebf676-f36d-4051-a454-b9dae621b0d3","683bf07d-1a26-40b1-9cff-5abdc1eed0ee","","null","<div style=""display: flex; justify-content: center; align-items: center;"">
                <img src=""images/causal/causal_series_3/causal_series_3_d.jpg"" style=""width: 300px; height: 300px;"" />
              </div>","null",""
"","","","","","html-keyboard-response","10","38194","0.0-10.0","B4E11C24954F4DE8A318AED1657A3525","8aebf676-f36d-4051-a454-b9dae621b0d3","683bf07d-1a26-40b1-9cff-5abdc1eed0ee","","null","<div style=""display: flex; justify-content: center; align-items: center;"">
                <img src=""images/other/blank.jpg"" style=""width: 300px; height: 300px;"" />
              </div>","null",""
"","","","","","html-keyboard-response","11","41208","0.0-11.0","B4E11C24954F4DE8A318AED1657A3525","8aebf676-f36d-4051-a454-b9dae621b0d3","683bf07d-1a26-40b1-9cff-5abdc1eed0ee","","null","<div style=""display: flex; justify-content: center; align-items: center;"">
                <img src=""images/causal/causal_series_17/causal_series_17_a.jpg"" style=""width: 300px; height: 300px;"" />
              </div>","null",""
"","","","","","html-keyboard-response","12","44210","0.0-12.0","B4E11C24954F4DE8A318AED1657A3525","8aebf676-f36d-4051-a454-b9dae621b0d3","683bf07d-1a26-40b1-9cff-5abdc1eed0ee","","null","<div style=""display: flex; justify-content: center; align-items: center;"">
                <img src=""images/causal/causal_series_17/causal_series_17_b.jpg"" style=""width: 300px; height: 300px;"" />
              </div>","null",""
"","","","","","html-keyboard-response","13","47221","0.0-13.0","B4E11C24954F4DE8A318AED1657A3525","8aebf676-f36d-4051-a454-b9dae621b0d3","683bf07d-1a26-40b1-9cff-5abdc1eed0ee","","null","<div style=""display: flex; justify-content: center; align-items: center;"">
                <img src=""images/causal/causal_series_17/causal_series_17_c.jpg"" style=""width: 300px; height: 300px;"" />
              </div>","null",""
"","","","","","html-button-response","14","48147","0.0-14.0","B4E11C24954F4DE8A318AED1657A3525","8aebf676-f36d-4051-a454-b9dae621b0d3","683bf07d-1a26-40b1-9cff-5abdc1eed0ee","","924","
    <div style=""display: flex; justify-content: center; align-items: center;"">
      <img src=""images/red_deck_2.png"" style=""width: 300px; height: 300px; margin-right: 10px;"" />
      <img src=""images/blue_deck_1.png"" style=""width: 300px; height: 300px;"" />
    </div>","1","1"
"","","","","","html-keyboard-response","15","51158","0.0-15.0-1.0-0.0","B4E11C24954F4DE8A318AED1657A3525","8aebf676-f36d-4051-a454-b9dae621b0d3","683bf07d-1a26-40b1-9cff-5abdc1eed0ee","","null","<div style=""display: flex; justify-content: center; align-items: center;"">
                <img src=""images/semantic/semantic_series_16/semantic_series_16_d.jpg"" style=""width: 300px; height: 300px;"" />
              </div>","null",""
"","","","","","html-keyboard-response","16","54169","0.0-16.0","B4E11C24954F4DE8A318AED1657A3525","8aebf676-f36d-4051-a454-b9dae621b0d3","683bf07d-1a26-40b1-9cff-5abdc1eed0ee","","null","<div style=""display: flex; justify-content: center; align-items: center;"">
                <img src=""images/other/blank.jpg"" style=""width: 300px; height: 300px;"" />
              </div>","null",""
"","","","","","html-keyboard-response","17","57176","0.0-17.0","B4E11C24954F4DE8A318AED1657A3525","8aebf676-f36d-4051-a454-b9dae621b0d3","683bf07d-1a26-40b1-9cff-5abdc1eed0ee","","null","<div style=""display: flex; justify-content: center; align-items: center;"">
                <img src=""images/causal/causal_series_18/causal_series_18_a.jpg"" style=""width: 300px; height: 300px;"" />
              </div>","null",""
"","","","","","html-keyboard-response","18","60185","0.0-18.0","B4E11C24954F4DE8A318AED1657A3525","8aebf676-f36d-4051-a454-b9dae621b0d3","683bf07d-1a26-40b1-9cff-5abdc1eed0ee","","null","<div style=""display: flex; justify-content: center; align-items: center;"">
                <img src=""images/causal/causal_series_18/causal_series_18_b.jpg"" style=""width: 300px; height: 300px;"" />
              </div>","null",""
"","","","","","html-keyboard-response","19","63197","0.0-19.0","B4E11C24954F4DE8A318AED1657A3525","8aebf676-f36d-4051-a454-b9dae621b0d3","683bf07d-1a26-40b1-9cff-5abdc1eed0ee","","null","<div style=""display: flex; justify-content: center; align-items: center;"">
                <img src=""images/causal/causal_series_18/causal_series_18_c.jpg"" style=""width: 300px; height: 300px;"" />
              </div>","null",""
"","","","","","html-button-response","20","64345","0.0-20.0","B4E11C24954F4DE8A318AED1657A3525","8aebf676-f36d-4051-a454-b9dae621b0d3","683bf07d-1a26-40b1-9cff-5abdc1eed0ee","","1146","
    <div style=""display: flex; justify-content: center; align-items: center;"">
      <img src=""images/red_deck_2.png"" style=""width: 300px; height: 300px; margin-right: 10px;"" />
      <img src=""images/blue_deck_1.png"" style=""width: 300px; height: 300px;"" />
    </div>","0","0"
"","","","","","html-keyboard-response","21","67350","0.0-21.0-0.0-0.0","B4E11C24954F4DE8A318AED1657A3525","8aebf676-f36d-4051-a454-b9dae621b0d3","683bf07d-1a26-40b1-9cff-5abdc1eed0ee","","null","<div style=""display: flex; justify-content: center; align-items: center;"">
                <img src=""images/causal/causal_series_18/causal_series_18_d.jpg"" style=""width: 300px; height: 300px;"" />
              </div>","null",""
"","","","","","html-keyboard-response","22","70356","0.0-22.0","B4E11C24954F4DE8A318AED1657A3525","8aebf676-f36d-4051-a454-b9dae621b0d3","683bf07d-1a26-40b1-9cff-5abdc1eed0ee","","null","<div style=""display: flex; justify-content: center; align-items: center;"">
                <img src=""images/other/blank.jpg"" style=""width: 300px; height: 300px;"" />
              </div>","null",""
"","","","","","html-keyboard-response","23","73360","0.0-23.0","B4E11C24954F4DE8A318AED1657A3525","8aebf676-f36d-4051-a454-b9dae621b0d3","683bf07d-1a26-40b1-9cff-5abdc1eed0ee","","null","<div style=""display: flex; justify-content: center; align-items: center;"">
                <img src=""images/causal/causal_series_6/causal_series_6_a.jpg"" style=""width: 300px; height: 300px;"" />
              </div>","null",""
"","","","","","html-keyboard-response","24","76367","0.0-24.0","B4E11C24954F4DE8A318AED1657A3525","8aebf676-f36d-4051-a454-b9dae621b0d3","683bf07d-1a26-40b1-9cff-5abdc1eed0ee","","null","<div style=""display: flex; justify-content: center; align-items: center;"">
                <img src=""images/causal/causal_series_6/causal_series_6_b.jpg"" style=""width: 300px; height: 300px;"" />
              </div>","null",""
"","","","","","html-keyboard-response","25","79376","0.0-25.0","B4E11C24954F4DE8A318AED1657A3525","8aebf676-f36d-4051-a454-b9dae621b0d3","683bf07d-1a26-40b1-9cff-5abdc1eed0ee","","null","<div style=""display: flex; justify-content: center; align-items: center;"">
                <img src=""images/causal/causal_series_6/causal_series_6_c.jpg"" style=""width: 300px; height: 300px;"" />
              </div>","null",""
"","","","","","html-button-response","26","80603","0.0-26.0","B4E11C24954F4DE8A318AED1657A3525","8aebf676-f36d-4051-a454-b9dae621b0d3","683bf07d-1a26-40b1-9cff-5abdc1eed0ee","","1225","
    <div style=""display: flex; justify-content: center; align-items: center;"">
      <img src=""images/red_deck_2.png"" style=""width: 300px; height: 300px; margin-right: 10px;"" />
      <img src=""images/blue_deck_1.png"" style=""width: 300px; height: 300px;"" />
    </div>","0","0"
"","","","","","html-keyboard-response","27","83614","0.0-27.0-0.0-0.0","B4E11C24954F4DE8A318AED1657A3525","8aebf676-f36d-4051-a454-b9dae621b0d3","683bf07d-1a26-40b1-9cff-5abdc1eed0ee","","null","<div style=""display: flex; justify-content: center; align-items: center;"">
                <img src=""images/causal/causal_series_6/causal_series_6_d.jpg"" style=""width: 300px; height: 300px;"" />
              </div>","null",""
"","","","","","html-keyboard-response","28","86624","0.0-28.0","B4E11C24954F4DE8A318AED1657A3525","8aebf676-f36d-4051-a454-b9dae621b0d3","683bf07d-1a26-40b1-9cff-5abdc1eed0ee","","null","<div style=""display: flex; justify-content: center; align-items: center;"">
                <img src=""images/other/blank.jpg"" style=""width: 300px; height: 300px;"" />
              </div>","null",""
"","","","","","html-keyboard-response","29","89626","0.0-29.0","B4E11C24954F4DE8A318AED1657A3525","8aebf676-f36d-4051-a454-b9dae621b0d3","683bf07d-1a26-40b1-9cff-5abdc1eed0ee","","null","<div style=""display: flex; justify-content: center; align-items: center;"">
                <img src=""images/causal/causal_series_15/causal_series_15_a.jpg"" style=""width: 300px; height: 300px;"" />
              </div>","null",""
"","","","","","html-keyboard-response","30","92634","0.0-30.0","B4E11C24954F4DE8A318AED1657A3525","8aebf676-f36d-4051-a454-b9dae621b0d3","683bf07d-1a26-40b1-9cff-5abdc1eed0ee","","null","<div style=""display: flex; justify-content: center; align-items: center;"">
                <img src=""images/causal/causal_series_15/causal_series_15_b.jpg"" style=""width: 300px; height: 300px;"" />
              </div>","null",""
"","","","","","html-keyboard-response","31","95636","0.0-31.0","B4E11C24954F4DE8A318AED1657A3525","8aebf676-f36d-4051-a454-b9dae621b0d3","683bf07d-1a26-40b1-9cff-5abdc1eed0ee","","null","<div style=""display: flex; justify-content: center; align-items: center;"">
                <img src=""images/causal/causal_series_15/causal_series_15_c.jpg"" style=""width: 300px; height: 300px;"" />
              </div>","null",""
"","","","","","html-button-response","32","96377","0.0-32.0","B4E11C24954F4DE8A318AED1657A3525","8aebf676-f36d-4051-a454-b9dae621b0d3","683bf07d-1a26-40b1-9cff-5abdc1eed0ee","","739","
    <div style=""display: flex; justify-content: center; align-items: center;"">
      <img src=""images/red_deck_2.png"" style=""width: 300px; height: 300px; margin-right: 10px;"" />
      <img src=""images/blue_deck_1.png"" style=""width: 300px; height: 300px;"" />
    </div>","1","1"
"","","","","","html-keyboard-response","33","99392","0.0-33.0-1.0-0.0","B4E11C24954F4DE8A318AED1657A3525","8aebf676-f36d-4051-a454-b9dae621b0d3","683bf07d-1a26-40b1-9cff-5abdc1eed0ee","","null","<div style=""display: flex; justify-content: center; align-items: center;"">
                <img src=""images/semantic/semantic_series_14/semantic_series_14_d.jpg"" style=""width: 300px; height: 300px;"" />
              </div>","null",""
"","","","","","html-keyboard-response","34","102394","0.0-34.0","B4E11C24954F4DE8A318AED1657A3525","8aebf676-f36d-4051-a454-b9dae621b0d3","683bf07d-1a26-40b1-9cff-5abdc1eed0ee","","null","<div style=""display: flex; justify-content: center; align-items: center;"">
                <img src=""images/other/blank.jpg"" style=""width: 300px; height: 300px;"" />
              </div>","null",""
"","","","","","html-keyboard-response","35","105397","0.0-35.0","B4E11C24954F4DE8A318AED1657A3525","8aebf676-f36d-4051-a454-b9dae621b0d3","683bf07d-1a26-40b1-9cff-5abdc1eed0ee","","null","<div style=""display: flex; justify-content: center; align-items: center;"">
                <img src=""images/causal/causal_series_13/causal_series_13_a.jpg"" style=""width: 300px; height: 300px;"" />
              </div>","null",""
"","","","","","html-keyboard-response","36","108401","0.0-36.0","B4E11C24954F4DE8A318AED1657A3525","8aebf676-f36d-4051-a454-b9dae621b0d3","683bf07d-1a26-40b1-9cff-5abdc1eed0ee","","null","<div style=""display: flex; justify-content: center; align-items: center;"">
                <img src=""images/causal/causal_series_13/causal_series_13_b.jpg"" style=""width: 300px; height: 300px;"" />
              </div>","null",""
"","","","","","html-keyboard-response","37","111413","0.0-37.0","B4E11C24954F4DE8A318AED1657A3525","8aebf676-f36d-4051-a454-b9dae621b0d3","683bf07d-1a26-40b1-9cff-5abdc1eed0ee","","null","<div style=""display: flex; justify-content: center; align-items: center;"">
                <img src=""images/causal/causal_series_13/causal_series_13_c.jpg"" style=""width: 300px; height: 300px;"" />
              </div>","null",""
"","","","","","html-button-response","38","112027","0.0-38.0","B4E11C24954F4DE8A318AED1657A3525","8aebf676-f36d-4051-a454-b9dae621b0d3","683bf07d-1a26-40b1-9cff-5abdc1eed0ee","","612","
    <div style=""display: flex; justify-content: center; align-items: center;"">
      <img src=""images/red_deck_2.png"" style=""width: 300px; height: 300px; margin-right: 10px;"" />
      <img src=""images/blue_deck_1.png"" style=""width: 300px; height: 300px;"" />
    </div>","0","0"
"","","","","","html-keyboard-response","39","115036","0.0-39.0-0.0-0.0","B4E11C24954F4DE8A318AED1657A3525","8aebf676-f36d-4051-a454-b9dae621b0d3","683bf07d-1a26-40b1-9cff-5abdc1eed0ee","","null","<div style=""display: flex; justify-content: center; align-items: center;"">
                <img src=""images/causal/causal_series_13/causal_series_13_d.jpg"" style=""width: 300px; height: 300px;"" />
              </div>","null",""
"","","","","","html-keyboard-response","40","118043","0.0-40.0","B4E11C24954F4DE8A318AED1657A3525","8aebf676-f36d-4051-a454-b9dae621b0d3","683bf07d-1a26-40b1-9cff-5abdc1eed0ee","","null","<div style=""display: flex; justify-content: center; align-items: center;"">
                <img src=""images/other/blank.jpg"" style=""width: 300px; height: 300px;"" />
              </div>","null",""
"","","","","","html-keyboard-response","41","121051","0.0-41.0","B4E11C24954F4DE8A318AED1657A3525","8aebf676-f36d-4051-a454-b9dae621b0d3","683bf07d-1a26-40b1-9cff-5abdc1eed0ee","","null","<div style=""display: flex; justify-content: center; align-items: center;"">
                <img src=""images/causal/causal_series_1/causal_series_1_a.jpg"" style=""width: 300px; height: 300px;"" />
              </div>","null",""
"","","","","","html-keyboard-response","42","124058","0.0-42.0","B4E11C24954F4DE8A318AED1657A3525","8aebf676-f36d-4051-a454-b9dae621b0d3","683bf07d-1a26-40b1-9cff-5abdc1eed0ee","","null","<div style=""display: flex; justify-content: center; align-items: center;"">
                <img src=""images/causal/causal_series_1/causal_series_1_b.jpg"" style=""width: 300px; height: 300px;"" />
              </div>","null",""
"","","","","","html-keyboard-response","43","127063","0.0-43.0","B4E11C24954F4DE8A318AED1657A3525","8aebf676-f36d-4051-a454-b9dae621b0d3","683bf07d-1a26-40b1-9cff-5abdc1eed0ee","","null","<div style=""display: flex; justify-content: center; align-items: center;"">
                <img src=""images/causal/causal_series_1/causal_series_1_c.jpg"" style=""width: 300px; height: 300px;"" />
              </div>","null",""
"","","","","","html-button-response","44","128294","0.0-44.0","B4E11C24954F4DE8A318AED1657A3525","8aebf676-f36d-4051-a454-b9dae621b0d3","683bf07d-1a26-40b1-9cff-5abdc1eed0ee","","1230","
    <div style=""display: flex; justify-content: center; align-items: center;"">
      <img src=""images/red_deck_2.png"" style=""width: 300px; height: 300px; margin-right: 10px;"" />
      <img src=""images/blue_deck_1.png"" style=""width: 300px; height: 300px;"" />
    </div>","1","1"
"","","","","","html-keyboard-response","45","131301","0.0-45.0-1.0-0.0","B4E11C24954F4DE8A318AED1657A3525","8aebf676-f36d-4051-a454-b9dae621b0d3","683bf07d-1a26-40b1-9cff-5abdc1eed0ee","","null","<div style=""display: flex; justify-content: center; align-items: center;"">
                <img src=""images/semantic/semantic_series_18/semantic_series_18_d.jpg"" style=""width: 300px; height: 300px;"" />
              </div>","null",""
"","","","","","html-keyboard-response","46","134313","0.0-46.0","B4E11C24954F4DE8A318AED1657A3525","8aebf676-f36d-4051-a454-b9dae621b0d3","683bf07d-1a26-40b1-9cff-5abdc1eed0ee","","null","<div style=""display: flex; justify-content: center; align-items: center;"">
                <img src=""images/other/blank.jpg"" style=""width: 300px; height: 300px;"" />
              </div>","null",""
"","","","","","html-keyboard-response","47","137321","0.0-47.0","B4E11C24954F4DE8A318AED1657A3525","8aebf676-f36d-4051-a454-b9dae621b0d3","683bf07d-1a26-40b1-9cff-5abdc1eed0ee","","null","<div style=""display: flex; justify-content: center; align-items: center;"">
                <img src=""images/causal/causal_series_7/causal_series_7_a.jpg"" style=""width: 300px; height: 300px;"" />
              </div>","null",""
"","","","","","html-keyboard-response","48","140327","0.0-48.0","B4E11C24954F4DE8A318AED1657A3525","8aebf676-f36d-4051-a454-b9dae621b0d3","683bf07d-1a26-40b1-9cff-5abdc1eed0ee","","null","<div style=""display: flex; justify-content: center; align-items: center;"">
                <img src=""images/causal/causal_series_7/causal_series_7_b.jpg"" style=""width: 300px; height: 300px;"" />
              </div>","null",""
"","","","","","html-keyboard-response","49","143330","0.0-49.0","B4E11C24954F4DE8A318AED1657A3525","8aebf676-f36d-4051-a454-b9dae621b0d3","683bf07d-1a26-40b1-9cff-5abdc1eed0ee","","null","<div style=""display: flex; justify-content: center; align-items: center;"">
                <img src=""images/causal/causal_series_7/causal_series_7_c.jpg"" style=""width: 300px; height: 300px;"" />
              </div>","null",""
"","","","","","html-button-response","50","144960","0.0-50.0","B4E11C24954F4DE8A318AED1657A3525","8aebf676-f36d-4051-a454-b9dae621b0d3","683bf07d-1a26-40b1-9cff-5abdc1eed0ee","","1629","
    <div style=""display: flex; justify-content: center; align-items: center;"">
      <img src=""images/red_deck_2.png"" style=""width: 300px; height: 300px; margin-right: 10px;"" />
      <img src=""images/blue_deck_1.png"" style=""width: 300px; height: 300px;"" />
    </div>","0","0"
"","","","","","html-keyboard-response","51","148594","0.0-51.0-0.0-0.0","B4E11C24954F4DE8A318AED1657A3525","8aebf676-f36d-4051-a454-b9dae621b0d3","683bf07d-1a26-40b1-9cff-5abdc1eed0ee","","null","<div style=""display: flex; justify-content: center; align-items: center;"">
                <img src=""images/causal/causal_series_7/causal_series_7_d.jpg"" style=""width: 300px; height: 300px;"" />
              </div>","null",""
"","","","","","html-keyboard-response","52","152598","0.0-52.0","B4E11C24954F4DE8A318AED1657A3525","8aebf676-f36d-4051-a454-b9dae621b0d3","683bf07d-1a26-40b1-9cff-5abdc1eed0ee","","null","<div style=""display: flex; justify-content: center; align-items: center;"">
                <img src=""images/other/blank.jpg"" style=""width: 300px; height: 300px;"" />
              </div>","null",""
"","","","","","html-keyboard-response","53","155601","0.0-53.0","B4E11C24954F4DE8A318AED1657A3525","8aebf676-f36d-4051-a454-b9dae621b0d3","683bf07d-1a26-40b1-9cff-5abdc1eed0ee","","null","<div style=""display: flex; justify-content: center; align-items: center;"">
                <img src=""images/causal/causal_series_12/causal_series_12_a.jpg"" style=""width: 300px; height: 300px;"" />
              </div>","null",""
"","","","","","html-keyboard-response","54","158610","0.0-54.0","B4E11C24954F4DE8A318AED1657A3525","8aebf676-f36d-4051-a454-b9dae621b0d3","683bf07d-1a26-40b1-9cff-5abdc1eed0ee","","null","<div style=""display: flex; justify-content: center; align-items: center;"">
                <img src=""images/causal/causal_series_12/causal_series_12_b.jpg"" style=""width: 300px; height: 300px;"" />
              </div>","null",""
"","","","","","html-keyboard-response","55","161622","0.0-55.0","B4E11C24954F4DE8A318AED1657A3525","8aebf676-f36d-4051-a454-b9dae621b0d3","683bf07d-1a26-40b1-9cff-5abdc1eed0ee","","null","<div style=""display: flex; justify-content: center; align-items: center;"">
                <img src=""images/causal/causal_series_12/causal_series_12_c.jpg"" style=""width: 300px; height: 300px;"" />
              </div>","null",""
"","","","","","html-button-response","56","162162","0.0-56.0","B4E11C24954F4DE8A318AED1657A3525","8aebf676-f36d-4051-a454-b9dae621b0d3","683bf07d-1a26-40b1-9cff-5abdc1eed0ee","","539","
    <div style=""display: flex; justify-content: center; align-items: center;"">
      <img src=""images/red_deck_2.png"" style=""width: 300px; height: 300px; margin-right: 10px;"" />
      <img src=""images/blue_deck_1.png"" style=""width: 300px; height: 300px;"" />
    </div>","1","1"
"","","","","","html-keyboard-response","57","165600","0.0-57.0-1.0-0.0","B4E11C24954F4DE8A318AED1657A3525","8aebf676-f36d-4051-a454-b9dae621b0d3","683bf07d-1a26-40b1-9cff-5abdc1eed0ee","","null","<div style=""display: flex; justify-content: center; align-items: center;"">
                <img src=""images/semantic/semantic_series_11/semantic_series_11_d.jpg"" style=""width: 300px; height: 300px;"" />
              </div>","null",""
"","","","","","html-keyboard-response","58","169602","0.0-58.0","B4E11C24954F4DE8A318AED1657A3525","8aebf676-f36d-4051-a454-b9dae621b0d3","683bf07d-1a26-40b1-9cff-5abdc1eed0ee","","null","<div style=""display: flex; justify-content: center; align-items: center;"">
                <img src=""images/other/blank.jpg"" style=""width: 300px; height: 300px;"" />
              </div>","null",""
"","","","","","html-keyboard-response","59","173590","0.0-59.0","B4E11C24954F4DE8A318AED1657A3525","8aebf676-f36d-4051-a454-b9dae621b0d3","683bf07d-1a26-40b1-9cff-5abdc1eed0ee","","null","<div style=""display: flex; justify-content: center; align-items: center;"">
                <img src=""images/causal/causal_series_4/causal_series_4_a.jpg"" style=""width: 300px; height: 300px;"" />
              </div>","null",""
"","","","","","html-keyboard-response","60","176975","0.0-60.0","B4E11C24954F4DE8A318AED1657A3525","8aebf676-f36d-4051-a454-b9dae621b0d3","683bf07d-1a26-40b1-9cff-5abdc1eed0ee","","null","<div style=""display: flex; justify-content: center; align-items: center;"">
                <img src=""images/causal/causal_series_4/causal_series_4_b.jpg"" style=""width: 300px; height: 300px;"" />
              </div>","null",""
"","","","","","html-keyboard-response","61","179980","0.0-61.0","B4E11C24954F4DE8A318AED1657A3525","8aebf676-f36d-4051-a454-b9dae621b0d3","683bf07d-1a26-40b1-9cff-5abdc1eed0ee","","null","<div style=""display: flex; justify-content: center; align-items: center;"">
                <img src=""images/causal/causal_series_4/causal_series_4_c.jpg"" style=""width: 300px; height: 300px;"" />
              </div>","null",""
"","","","","","html-button-response","62","180714","0.0-62.0","B4E11C24954F4DE8A318AED1657A3525","8aebf676-f36d-4051-a454-b9dae621b0d3","683bf07d-1a26-40b1-9cff-5abdc1eed0ee","","732","
    <div style=""display: flex; justify-content: center; align-items: center;"">
      <img src=""images/red_deck_2.png"" style=""width: 300px; height: 300px; margin-right: 10px;"" />
      <img src=""images/blue_deck_1.png"" style=""width: 300px; height: 300px;"" />
    </div>","0","0"
"","","","","","html-keyboard-response","63","183730","0.0-63.0-0.0-0.0","B4E11C24954F4DE8A318AED1657A3525","8aebf676-f36d-4051-a454-b9dae621b0d3","683bf07d-1a26-40b1-9cff-5abdc1eed0ee","","null","<div style=""display: flex; justify-content: center; align-items: center;"">
                <img src=""images/causal/causal_series_4/causal_series_4_d.jpg"" style=""width: 300px; height: 300px;"" />
              </div>","null",""
"","","","","","html-keyboard-response","64","186736","0.0-64.0","B4E11C24954F4DE8A318AED1657A3525","8aebf676-f36d-4051-a454-b9dae621b0d3","683bf07d-1a26-40b1-9cff-5abdc1eed0ee","","null","<div style=""display: flex; justify-content: center; align-items: center;"">
                <img src=""images/other/blank.jpg"" style=""width: 300px; height: 300px;"" />
              </div>","null",""
"","","","","","html-keyboard-response","65","189749","0.0-65.0","B4E11C24954F4DE8A318AED1657A3525","8aebf676-f36d-4051-a454-b9dae621b0d3","683bf07d-1a26-40b1-9cff-5abdc1eed0ee","","null","<div style=""display: flex; justify-content: center; align-items: center;"">
                <img src=""images/causal/causal_series_5/causal_series_5_a.jpg"" style=""width: 300px; height: 300px;"" />
              </div>","null",""
"","","","","","html-keyboard-response","66","192752","0.0-66.0","B4E11C24954F4DE8A318AED1657A3525","8aebf676-f36d-4051-a454-b9dae621b0d3","683bf07d-1a26-40b1-9cff-5abdc1eed0ee","","null","<div style=""display: flex; justify-content: center; align-items: center;"">
                <img src=""images/causal/causal_series_5/causal_series_5_b.jpg"" style=""width: 300px; height: 300px;"" />
              </div>","null",""
"","","","","","html-keyboard-response","67","195759","0.0-67.0","B4E11C24954F4DE8A318AED1657A3525","8aebf676-f36d-4051-a454-b9dae621b0d3","683bf07d-1a26-40b1-9cff-5abdc1eed0ee","","null","<div style=""display: flex; justify-content: center; align-items: center;"">
                <img src=""images/causal/causal_series_5/causal_series_5_c.jpg"" style=""width: 300px; height: 300px;"" />
              </div>","null",""
"","","","","","html-button-response","68","198161","0.0-68.0","B4E11C24954F4DE8A318AED1657A3525","8aebf676-f36d-4051-a454-b9dae621b0d3","683bf07d-1a26-40b1-9cff-5abdc1eed0ee","","2400","
    <div style=""display: flex; justify-content: center; align-items: center;"">
      <img src=""images/red_deck_2.png"" style=""width: 300px; height: 300px; margin-right: 10px;"" />
      <img src=""images/blue_deck_1.png"" style=""width: 300px; height: 300px;"" />
    </div>","1","1"
"","","","","","html-keyboard-response","69","201176","0.0-69.0-1.0-0.0","B4E11C24954F4DE8A318AED1657A3525","8aebf676-f36d-4051-a454-b9dae621b0d3","683bf07d-1a26-40b1-9cff-5abdc1eed0ee","","null","<div style=""display: flex; justify-content: center; align-items: center;"">
                <img src=""images/semantic/semantic_series_4/semantic_series_4_d.jpg"" style=""width: 300px; height: 300px;"" />
              </div>","null",""
"","","","","","html-keyboard-response","70","204193","0.0-70.0","B4E11C24954F4DE8A318AED1657A3525","8aebf676-f36d-4051-a454-b9dae621b0d3","683bf07d-1a26-40b1-9cff-5abdc1eed0ee","","null","<div style=""display: flex; justify-content: center; align-items: center;"">
                <img src=""images/other/blank.jpg"" style=""width: 300px; height: 300px;"" />
              </div>","null",""
"","","","","","html-keyboard-response","71","207197","0.0-71.0","B4E11C24954F4DE8A318AED1657A3525","8aebf676-f36d-4051-a454-b9dae621b0d3","683bf07d-1a26-40b1-9cff-5abdc1eed0ee","","null","<div style=""display: flex; justify-content: center; align-items: center;"">
                <img src=""images/causal/causal_series_9/causal_series_9_a.jpg"" style=""width: 300px; height: 300px;"" />
              </div>","null",""
"","","","","","html-keyboard-response","72","210206","0.0-72.0","B4E11C24954F4DE8A318AED1657A3525","8aebf676-f36d-4051-a454-b9dae621b0d3","683bf07d-1a26-40b1-9cff-5abdc1eed0ee","","null","<div style=""display: flex; justify-content: center; align-items: center;"">
                <img src=""images/causal/causal_series_9/causal_series_9_b.jpg"" style=""width: 300px; height: 300px;"" />
              </div>","null",""
"","","","","","html-keyboard-response","73","213217","0.0-73.0","B4E11C24954F4DE8A318AED1657A3525","8aebf676-f36d-4051-a454-b9dae621b0d3","683bf07d-1a26-40b1-9cff-5abdc1eed0ee","","null","<div style=""display: flex; justify-content: center; align-items: center;"">
                <img src=""images/causal/causal_series_9/causal_series_9_c.jpg"" style=""width: 300px; height: 300px;"" />
              </div>","null",""
"","","","","","html-button-response","74","221083","0.0-74.0","B4E11C24954F4DE8A318AED1657A3525","8aebf676-f36d-4051-a454-b9dae621b0d3","683bf07d-1a26-40b1-9cff-5abdc1eed0ee","","7864","
    <div style=""display: flex; justify-content: center; align-items: center;"">
      <img src=""images/red_deck_2.png"" style=""width: 300px; height: 300px; margin-right: 10px;"" />
      <img src=""images/blue_deck_1.png"" style=""width: 300px; height: 300px;"" />
    </div>","0","0"
"","","","","","html-keyboard-response","75","224086","0.0-75.0-0.0-0.0","B4E11C24954F4DE8A318AED1657A3525","8aebf676-f36d-4051-a454-b9dae621b0d3","683bf07d-1a26-40b1-9cff-5abdc1eed0ee","","null","<div style=""display: flex; justify-content: center; align-items: center;"">
                <img src=""images/causal/causal_series_9/causal_series_9_d.jpg"" style=""width: 300px; height: 300px;"" />
              </div>","null",""
"","","","","","html-keyboard-response","76","227092","0.0-76.0","B4E11C24954F4DE8A318AED1657A3525","8aebf676-f36d-4051-a454-b9dae621b0d3","683bf07d-1a26-40b1-9cff-5abdc1eed0ee","","null","<div style=""display: flex; justify-content: center; align-items: center;"">
                <img src=""images/other/blank.jpg"" style=""width: 300px; height: 300px;"" />
              </div>","null",""
"","","","","","html-keyboard-response","77","230105","0.0-77.0","B4E11C24954F4DE8A318AED1657A3525","8aebf676-f36d-4051-a454-b9dae621b0d3","683bf07d-1a26-40b1-9cff-5abdc1eed0ee","","null","<div style=""display: flex; justify-content: center; align-items: center;"">
                <img src=""images/causal/causal_series_11/causal_series_11_a.jpg"" style=""width: 300px; height: 300px;"" />
              </div>","null",""
"","","","","","html-keyboard-response","78","233112","0.0-78.0","B4E11C24954F4DE8A318AED1657A3525","8aebf676-f36d-4051-a454-b9dae621b0d3","683bf07d-1a26-40b1-9cff-5abdc1eed0ee","","null","<div style=""display: flex; justify-content: center; align-items: center;"">
                <img src=""images/causal/causal_series_11/causal_series_11_b.jpg"" style=""width: 300px; height: 300px;"" />
              </div>","null",""
"","","","","","html-keyboard-response","79","236121","0.0-79.0","B4E11C24954F4DE8A318AED1657A3525","8aebf676-f36d-4051-a454-b9dae621b0d3","683bf07d-1a26-40b1-9cff-5abdc1eed0ee","","null","<div style=""display: flex; justify-content: center; align-items: center;"">
                <img src=""images/causal/causal_series_11/causal_series_11_c.jpg"" style=""width: 300px; height: 300px;"" />
              </div>","null",""
"","","","","","html-button-response","80","236445","0.0-80.0","B4E11C24954F4DE8A318AED1657A3525","8aebf676-f36d-4051-a454-b9dae621b0d3","683bf07d-1a26-40b1-9cff-5abdc1eed0ee","","323","
    <div style=""display: flex; justify-content: center; align-items: center;"">
      <img src=""images/red_deck_2.png"" style=""width: 300px; height: 300px; margin-right: 10px;"" />
      <img src=""images/blue_deck_1.png"" style=""width: 300px; height: 300px;"" />
    </div>","0","0"
"","","","","","html-keyboard-response","81","239459","0.0-81.0-0.0-0.0","B4E11C24954F4DE8A318AED1657A3525","8aebf676-f36d-4051-a454-b9dae621b0d3","683bf07d-1a26-40b1-9cff-5abdc1eed0ee","","null","<div style=""display: flex; justify-content: center; align-items: center;"">
                <img src=""images/causal/causal_series_11/causal_series_11_d.jpg"" style=""width: 300px; height: 300px;"" />
              </div>","null",""
"","","","","","html-keyboard-response","82","242472","0.0-82.0","B4E11C24954F4DE8A318AED1657A3525","8aebf676-f36d-4051-a454-b9dae621b0d3","683bf07d-1a26-40b1-9cff-5abdc1eed0ee","","null","<div style=""display: flex; justify-content: center; align-items: center;"">
                <img src=""images/other/blank.jpg"" style=""width: 300px; height: 300px;"" />
              </div>","null",""
"","","","","","html-keyboard-response","83","245485","0.0-83.0","B4E11C24954F4DE8A318AED1657A3525","8aebf676-f36d-4051-a454-b9dae621b0d3","683bf07d-1a26-40b1-9cff-5abdc1eed0ee","","null","<div style=""display: flex; justify-content: center; align-items: center;"">
                <img src=""images/causal/causal_series_2/causal_series_2_a.jpg"" style=""width: 300px; height: 300px;"" />
              </div>","null",""
"","","","","","html-keyboard-response","84","248493","0.0-84.0","B4E11C24954F4DE8A318AED1657A3525","8aebf676-f36d-4051-a454-b9dae621b0d3","683bf07d-1a26-40b1-9cff-5abdc1eed0ee","","null","<div style=""display: flex; justify-content: center; align-items: center;"">
                <img src=""images/causal/causal_series_2/causal_series_2_b.jpg"" style=""width: 300px; height: 300px;"" />
              </div>","null",""
"","","","","","html-keyboard-response","85","251504","0.0-85.0","B4E11C24954F4DE8A318AED1657A3525","8aebf676-f36d-4051-a454-b9dae621b0d3","683bf07d-1a26-40b1-9cff-5abdc1eed0ee","","null","<div style=""display: flex; justify-content: center; align-items: center;"">
                <img src=""images/causal/causal_series_2/causal_series_2_c.jpg"" style=""width: 300px; height: 300px;"" />
              </div>","null",""
"","","","","","html-button-response","86","252997","0.0-86.0","B4E11C24954F4DE8A318AED1657A3525","8aebf676-f36d-4051-a454-b9dae621b0d3","683bf07d-1a26-40b1-9cff-5abdc1eed0ee","","1491","
    <div style=""display: flex; justify-content: center; align-items: center;"">
      <img src=""images/red_deck_2.png"" style=""width: 300px; height: 300px; margin-right: 10px;"" />
      <img src=""images/blue_deck_1.png"" style=""width: 300px; height: 300px;"" />
    </div>","1","1"
"","","","","","html-keyboard-response","87","256591","0.0-87.0-1.0-0.0","B4E11C24954F4DE8A318AED1657A3525","8aebf676-f36d-4051-a454-b9dae621b0d3","683bf07d-1a26-40b1-9cff-5abdc1eed0ee","","null","<div style=""display: flex; justify-content: center; align-items: center;"">
                <img src=""images/semantic/semantic_series_1/semantic_series_1_d.jpg"" style=""width: 300px; height: 300px;"" />
              </div>","null",""
"","","","","","html-keyboard-response","88","259593","0.0-88.0","B4E11C24954F4DE8A318AED1657A3525","8aebf676-f36d-4051-a454-b9dae621b0d3","683bf07d-1a26-40b1-9cff-5abdc1eed0ee","","null","<div style=""display: flex; justify-content: center; align-items: center;"">
                <img src=""images/other/blank.jpg"" style=""width: 300px; height: 300px;"" />
              </div>","null",""
"","","","","","html-keyboard-response","89","263601","0.0-89.0","B4E11C24954F4DE8A318AED1657A3525","8aebf676-f36d-4051-a454-b9dae621b0d3","683bf07d-1a26-40b1-9cff-5abdc1eed0ee","","null","<div style=""display: flex; justify-content: center; align-items: center;"">
                <img src=""images/causal/causal_series_16/causal_series_16_a.jpg"" style=""width: 300px; height: 300px;"" />
              </div>","null",""
"","","","","","html-keyboard-response","90","267593","0.0-90.0","B4E11C24954F4DE8A318AED1657A3525","8aebf676-f36d-4051-a454-b9dae621b0d3","683bf07d-1a26-40b1-9cff-5abdc1eed0ee","","null","<div style=""display: flex; justify-content: center; align-items: center;"">
                <img src=""images/causal/causal_series_16/causal_series_16_b.jpg"" style=""width: 300px; height: 300px;"" />
              </div>","null",""
"","","","","","html-keyboard-response","91","271591","0.0-91.0","B4E11C24954F4DE8A318AED1657A3525","8aebf676-f36d-4051-a454-b9dae621b0d3","683bf07d-1a26-40b1-9cff-5abdc1eed0ee","","null","<div style=""display: flex; justify-content: center; align-items: center;"">
                <img src=""images/causal/causal_series_16/causal_series_16_c.jpg"" style=""width: 300px; height: 300px;"" />
              </div>","null",""
"","","","","","html-button-response","92","282123","0.0-92.0","B4E11C24954F4DE8A318AED1657A3525","8aebf676-f36d-4051-a454-b9dae621b0d3","683bf07d-1a26-40b1-9cff-5abdc1eed0ee","","10530","
    <div style=""display: flex; justify-content: center; align-items: center;"">
      <img src=""images/red_deck_2.png"" style=""width: 300px; height: 300px; margin-right: 10px;"" />
      <img src=""images/blue_deck_1.png"" style=""width: 300px; height: 300px;"" />
    </div>","1","1"
"","","","","","html-keyboard-response","93","285129","0.0-93.0-1.0-0.0","B4E11C24954F4DE8A318AED1657A3525","8aebf676-f36d-4051-a454-b9dae621b0d3","683bf07d-1a26-40b1-9cff-5abdc1eed0ee","","null","<div style=""display: flex; justify-content: center; align-items: center;"">
                <img src=""images/semantic/semantic_series_15/semantic_series_15_d.jpg"" style=""width: 300px; height: 300px;"" />
              </div>","null",""
"","","","","","html-keyboard-response","94","288133","0.0-94.0","B4E11C24954F4DE8A318AED1657A3525","8aebf676-f36d-4051-a454-b9dae621b0d3","683bf07d-1a26-40b1-9cff-5abdc1eed0ee","","null","<div style=""display: flex; justify-content: center; align-items: center;"">
                <img src=""images/other/blank.jpg"" style=""width: 300px; height: 300px;"" />
              </div>","null",""
"","","","","","html-keyboard-response","95","291142","0.0-95.0","B4E11C24954F4DE8A318AED1657A3525","8aebf676-f36d-4051-a454-b9dae621b0d3","683bf07d-1a26-40b1-9cff-5abdc1eed0ee","","null","<div style=""display: flex; justify-content: center; align-items: center;"">
                <img src=""images/causal/causal_series_14/causal_series_14_a.jpg"" style=""width: 300px; height: 300px;"" />
              </div>","null",""
"","","","","","html-keyboard-response","96","294146","0.0-96.0","B4E11C24954F4DE8A318AED1657A3525","8aebf676-f36d-4051-a454-b9dae621b0d3","683bf07d-1a26-40b1-9cff-5abdc1eed0ee","","null","<div style=""display: flex; justify-content: center; align-items: center;"">
                <img src=""images/causal/causal_series_14/causal_series_14_b.jpg"" style=""width: 300px; height: 300px;"" />
              </div>","null",""
"","","","","","html-keyboard-response","97","297150","0.0-97.0","B4E11C24954F4DE8A318AED1657A3525","8aebf676-f36d-4051-a454-b9dae621b0d3","683bf07d-1a26-40b1-9cff-5abdc1eed0ee","","null","<div style=""display: flex; justify-content: center; align-items: center;"">
                <img src=""images/causal/causal_series_14/causal_series_14_c.jpg"" style=""width: 300px; height: 300px;"" />
              </div>","null",""
"","","","","","html-button-response","98","297493","0.0-98.0","B4E11C24954F4DE8A318AED1657A3525","8aebf676-f36d-4051-a454-b9dae621b0d3","683bf07d-1a26-40b1-9cff-5abdc1eed0ee","","341","
    <div style=""display: flex; justify-content: center; align-items: center;"">
      <img src=""images/red_deck_2.png"" style=""width: 300px; height: 300px; margin-right: 10px;"" />
      <img src=""images/blue_deck_1.png"" style=""width: 300px; height: 300px;"" />
    </div>","0","0"
"","","","","","html-keyboard-response","99","300496","0.0-99.0-0.0-0.0","B4E11C24954F4DE8A318AED1657A3525","8aebf676-f36d-4051-a454-b9dae621b0d3","683bf07d-1a26-40b1-9cff-5abdc1eed0ee","","null","<div style=""display: flex; justify-content: center; align-items: center;"">
                <img src=""images/causal/causal_series_14/causal_series_14_d.jpg"" style=""width: 300px; height: 300px;"" />
              </div>","null",""
"","","","","","html-keyboard-response","100","303500","0.0-100.0","B4E11C24954F4DE8A318AED1657A3525","8aebf676-f36d-4051-a454-b9dae621b0d3","683bf07d-1a26-40b1-9cff-5abdc1eed0ee","","null","<div style=""display: flex; justify-content: center; align-items: center;"">
                <img src=""images/other/blank.jpg"" style=""width: 300px; height: 300px;"" />
              </div>","null",""
"","","","","","html-keyboard-response","101","306509","0.0-101.0","B4E11C24954F4DE8A318AED1657A3525","8aebf676-f36d-4051-a454-b9dae621b0d3","683bf07d-1a26-40b1-9cff-5abdc1eed0ee","","null","<div style=""display: flex; justify-content: center; align-items: center;"">
                <img src=""images/causal/causal_series_10/causal_series_10_a.jpg"" style=""width: 300px; height: 300px;"" />
              </div>","null",""
"","","","","","html-keyboard-response","102","309522","0.0-102.0","B4E11C24954F4DE8A318AED1657A3525","8aebf676-f36d-4051-a454-b9dae621b0d3","683bf07d-1a26-40b1-9cff-5abdc1eed0ee","","null","<div style=""display: flex; justify-content: center; align-items: center;"">
                <img src=""images/causal/causal_series_10/causal_series_10_b.jpg"" style=""width: 300px; height: 300px;"" />
              </div>","null",""
"","","","","","html-keyboard-response","103","312531","0.0-103.0","B4E11C24954F4DE8A318AED1657A3525","8aebf676-f36d-4051-a454-b9dae621b0d3","683bf07d-1a26-40b1-9cff-5abdc1eed0ee","","null","<div style=""display: flex; justify-content: center; align-items: center;"">
                <img src=""images/causal/causal_series_10/causal_series_10_c.jpg"" style=""width: 300px; height: 300px;"" />
              </div>","null",""
"","","","","","html-button-response","104","314318","0.0-104.0","B4E11C24954F4DE8A318AED1657A3525","8aebf676-f36d-4051-a454-b9dae621b0d3","683bf07d-1a26-40b1-9cff-5abdc1eed0ee","","1786","
    <div style=""display: flex; justify-content: center; align-items: center;"">
      <img src=""images/red_deck_2.png"" style=""width: 300px; height: 300px; margin-right: 10px;"" />
      <img src=""images/blue_deck_1.png"" style=""width: 300px; height: 300px;"" />
    </div>","1","1"
"","","","","","html-keyboard-response","105","317595","0.0-105.0-1.0-0.0","B4E11C24954F4DE8A318AED1657A3525","8aebf676-f36d-4051-a454-b9dae621b0d3","683bf07d-1a26-40b1-9cff-5abdc1eed0ee","","null","<div style=""display: flex; justify-content: center; align-items: center;"">
                <img src=""images/semantic/semantic_series_9/semantic_series_9_d.jpg"" style=""width: 300px; height: 300px;"" />
              </div>","null",""
"","","","","","html-keyboard-response","106","321599","0.0-106.0","B4E11C24954F4DE8A318AED1657A3525","8aebf676-f36d-4051-a454-b9dae621b0d3","683bf07d-1a26-40b1-9cff-5abdc1eed0ee","","null","<div style=""display: flex; justify-content: center; align-items: center;"">
                <img src=""images/other/blank.jpg"" style=""width: 300px; height: 300px;"" />
              </div>","null",""
"","","","","","html-keyboard-response","107","325596","0.0-107.0","B4E11C24954F4DE8A318AED1657A3525","8aebf676-f36d-4051-a454-b9dae621b0d3","683bf07d-1a26-40b1-9cff-5abdc1eed0ee","","null","<div style=""display: flex; justify-content: center; align-items: center;"">
                <img src=""images/causal/causal_series_8/causal_series_8_a.jpg"" style=""width: 300px; height: 300px;"" />
              </div>","null",""
"","","","","","html-keyboard-response","108","329600","0.0-108.0","B4E11C24954F4DE8A318AED1657A3525","8aebf676-f36d-4051-a454-b9dae621b0d3","683bf07d-1a26-40b1-9cff-5abdc1eed0ee","","null","<div style=""display: flex; justify-content: center; align-items: center;"">
                <img src=""images/causal/causal_series_8/causal_series_8_b.jpg"" style=""width: 300px; height: 300px;"" />
              </div>","null",""
"","","","","","html-keyboard-response","109","333597","0.0-109.0","B4E11C24954F4DE8A318AED1657A3525","8aebf676-f36d-4051-a454-b9dae621b0d3","683bf07d-1a26-40b1-9cff-5abdc1eed0ee","","null","<div style=""display: flex; justify-content: center; align-items: center;"">
                <img src=""images/causal/causal_series_8/causal_series_8_c.jpg"" style=""width: 300px; height: 300px;"" />
              </div>","null",""
"","","","","","html-button-response","110","337382","0.0-110.0","B4E11C24954F4DE8A318AED1657A3525","8aebf676-f36d-4051-a454-b9dae621b0d3","683bf07d-1a26-40b1-9cff-5abdc1eed0ee","","3785","
    <div style=""display: flex; justify-content: center; align-items: center;"">
      <img src=""images/red_deck_2.png"" style=""width: 300px; height: 300px; margin-right: 10px;"" />
      <img src=""images/blue_deck_1.png"" style=""width: 300px; height: 300px;"" />
    </div>","0","0"
"","","","","","html-keyboard-response","111","340387","0.0-111.0-0.0-0.0","B4E11C24954F4DE8A318AED1657A3525","8aebf676-f36d-4051-a454-b9dae621b0d3","683bf07d-1a26-40b1-9cff-5abdc1eed0ee","","null","<div style=""display: flex; justify-content: center; align-items: center;"">
                <img src=""images/causal/causal_series_8/causal_series_8_d.jpg"" style=""width: 300px; height: 300px;"" />
              </div>","null",""
"","","","","","html-keyboard-response","112","343389","0.0-112.0","B4E11C24954F4DE8A318AED1657A3525","8aebf676-f36d-4051-a454-b9dae621b0d3","683bf07d-1a26-40b1-9cff-5abdc1eed0ee","","null","<div style=""display: flex; justify-content: center; align-items: center;"">
                <img src=""images/other/blank.jpg"" style=""width: 300px; height: 300px;"" />
              </div>","null",""
"","","","","","survey-text","113","357939","0.0-113.0","B4E11C24954F4DE8A318AED1657A3525","8aebf676-f36d-4051-a454-b9dae621b0d3","683bf07d-1a26-40b1-9cff-5abdc1eed0ee","","14539","","{""Q0"":""One deck of card had happy moments and one had sad moments""}",""
"","","","","","survey-text","114","364235","0.0-114.0","B4E11C24954F4DE8A318AED1657A3525","8aebf676-f36d-4051-a454-b9dae621b0d3","683bf07d-1a26-40b1-9cff-5abdc1eed0ee","","6292","","{""Q0"":""The blue deck""}",""
"","","","","","html-button-response","115","370780","0.0-115.0","B4E11C24954F4DE8A318AED1657A3525","8aebf676-f36d-4051-a454-b9dae621b0d3","683bf07d-1a26-40b1-9cff-5abdc1eed0ee","","6544","Which color deck does the fourth image continue the story from the series?","0",""
"","","","","","html-button-response","116","374588","0.0-116.0","B4E11C24954F4DE8A318AED1657A3525","8aebf676-f36d-4051-a454-b9dae621b0d3","683bf07d-1a26-40b1-9cff-5abdc1eed0ee","","3807","Which color deck does the fourth image not follow the story from the series?","1",""
"","","","","","survey-text","117","380371","0.0-117.0","B4E11C24954F4DE8A318AED1657A3525","8aebf676-f36d-4051-a454-b9dae621b0d3","683bf07d-1a26-40b1-9cff-5abdc1eed0ee","","5778","","{""Q0"":""MALE"",""Q1"":""30""}",""
"","","","","","instructions","118","396674","0.0-118.0","B4E11C24954F4DE8A318AED1657A3525","8aebf676-f36d-4051-a454-b9dae621b0d3","683bf07d-1a26-40b1-9cff-5abdc1eed0ee","[{""page_index"":0,""viewing_time"":16302}]","16302","","",""
