"success","timeout","failed_images","failed_audio","failed_video","trial_type","trial_index","time_elapsed","internal_node_id","subject_id","study_id","session_id","view_history","rt","stimulus","response","series","repetition","phase","choice","question_order"
"true","false","[]","[]","[]","preload","0","6769","0.0-0.0","3873A0B8992B49D08811A39BFC7DADA1","0199d676-5949-7eb6-86ce-5845ba2b1658","0199d675-8795-765b-adc2-c813de8cd3d1","","","","","","","","",""
"","","","","","instructions","1","20059","0.0-1.0","3873A0B8992B49D08811A39BFC7DADA1","0199d676-5949-7eb6-86ce-5845ba2b1658","0199d675-8795-765b-adc2-c813de8cd3d1","[{""page_index"":0,""viewing_time"":13289}]","13289","","","","","","",""
"","","","","","instructions","2","22368","0.0-2.0","3873A0B8992B49D08811A39BFC7DADA1","0199d676-5949-7eb6-86ce-5845ba2b1658","0199d675-8795-765b-adc2-c813de8cd3d1","[{""page_index"":0,""viewing_time"":2307}]","2308","","","","","","",""
"true","","","","","fullscreen","3","25666","0.0-3.0","3873A0B8992B49D08811A39BFC7DADA1","0199d676-5949-7eb6-86ce-5845ba2b1658","0199d675-8795-765b-adc2-c813de8cd3d1","","2295","","","","","","",""
"","","","","","instructions","4","60952","0.0-4.0","3873A0B8992B49D08811A39BFC7DADA1","0199d676-5949-7eb6-86ce-5845ba2b1658","0199d675-8795-765b-adc2-c813de8cd3d1","[{""page_index"":0,""viewing_time"":35283}]","35284","","","","","","",""
"","","","","","html-keyboard-response","5","66958","0.0-5.0","3873A0B8992B49D08811A39BFC7DADA1","0199d676-5949-7eb6-86ce-5845ba2b1658","0199d675-8795-765b-adc2-c813de8cd3d1","","null","<div style=""display: flex; justify-content: center; align-items: center;"">
                     <img src=""images/causal/causal_series_3/causal_series_3_a.png"" style=""width: 300px; height: 300px;"" />
                   </div>","null","3","1","A","",""
"","","","","","html-button-response","6","71158","0.0-6.0","3873A0B8992B49D08811A39BFC7DADA1","0199d676-5949-7eb6-86ce-5845ba2b1658","0199d675-8795-765b-adc2-c813de8cd3d1","","4197","
        <div style=""display: flex; justify-content: center; align-items: center;"">
          <img src=""images/red_deck_2.png"" style=""width: 300px; height: 300px; margin-right: 10px;"" />
          <img src=""images/blue_deck_1.png"" style=""width: 300px; height: 300px;"" />
        </div>","0","3","1","choice","0",""
"","","","","","html-keyboard-response","7","77170","0.0-7.0-0.0-0.0","3873A0B8992B49D08811A39BFC7DADA1","0199d676-5949-7eb6-86ce-5845ba2b1658","0199d675-8795-765b-adc2-c813de8cd3d1","","null","<div style=""display: flex; justify-content: center; align-items: center;"">
                     <img src=""images/causal/causal_series_3/causal_series_3_b.png"" style=""width: 300px; height: 300px;"" />
                   </div>","null","3","1","B","",""
"","","","","","html-keyboard-response","8","83174","0.0-7.0-0.0-1.0","3873A0B8992B49D08811A39BFC7DADA1","0199d676-5949-7eb6-86ce-5845ba2b1658","0199d675-8795-765b-adc2-c813de8cd3d1","","null","<div style=""display: flex; justify-content: center; align-items: center;"">
                     <img src=""images/causal/causal_series_3/causal_series_3_c.png"" style=""width: 300px; height: 300px;"" />
                   </div>","null","3","1","C","",""
"","","","","","html-keyboard-response","9","89190","0.0-7.0-0.0-2.0","3873A0B8992B49D08811A39BFC7DADA1","0199d676-5949-7eb6-86ce-5845ba2b1658","0199d675-8795-765b-adc2-c813de8cd3d1","","null","<div style=""display: flex; justify-content: center; align-items: center;"">
                     <img src=""images/causal/causal_series_3/causal_series_3_d.png"" style=""width: 300px; height: 300px;"" />
                   </div>","null","3","1","D","",""
"","","","","","survey-likert","10","95660","0.0-8.0","3873A0B8992B49D08811A39BFC7DADA1","0199d676-5949-7eb6-86ce-5845ba2b1658","0199d675-8795-765b-adc2-c813de8cd3d1","","6469","","{""Q0"":3}","3","1","surprise_rating","","[0]"
"","","","","","survey-likert","11","98317","0.0-9.0","3873A0B8992B49D08811A39BFC7DADA1","0199d676-5949-7eb6-86ce-5845ba2b1658","0199d675-8795-765b-adc2-c813de8cd3d1","","2656","","{""Q0"":1}","3","1","enjoyment_rating","","[0]"
"","","","","","html-keyboard-response","12","104322","0.0-10.0","3873A0B8992B49D08811A39BFC7DADA1","0199d676-5949-7eb6-86ce-5845ba2b1658","0199d675-8795-765b-adc2-c813de8cd3d1","","null","<div style=""display: flex; justify-content: center; align-items: center;"">
                     <img src=""images/other/blank.png"" style=""width: 300px; height: 300px;"" />
                   </div>","null","0","0","blank","",""
"","","","","","html-keyboard-response","13","110330","0.0-11.0","3873A0B8992B49D08811A39BFC7DADA1","0199d676-5949-7eb6-86ce-5845ba2b1658","0199d675-8795-765b-adc2-c813de8cd3d1","","null","<div style=""display: flex; justify-content: center; align-items: center;"">
                     <img src=""images/causal/causal_series_9/causal_series_9_a.png"" style=""width: 300px; height: 300px;"" />
                   </div>","null","9","2","A","",""
"","","","","","html-button-response","14","112129","0.0-12.0","3873A0B8992B49D08811A39BFC7DADA1","0199d676-5949-7eb6-86ce-5845ba2b1658","0199d675-8795-765b-adc2-c813de8cd3d1","","1798","
        <div style=""display: flex; justify-content: center; align-items: center;"">
          <img src=""images/red_deck_2.png"" style=""width: 300px; height: 300px; margin-right: 10px;"" />
          <img src=""images/blue_deck_1.png"" style=""width: 300px; height: 300px;"" />
        </div>","1","9","2","choice","1",""
"","","","","","html-keyboard-response","15","118131","0.0-13.0-1.0-0.0","3873A0B8992B49D08811A39BFC7DADA1","0199d676-5949-7eb6-86ce-5845ba2b1658","0199d675-8795-765b-adc2-c813de8cd3d1","","null","<div style=""display: flex; justify-content: center; align-items: center;"">
                     <img src=""images/semantic/semantic_series_9/semantic_series_9_b.png"" style=""width: 300px; height: 300px;"" />
                   </div>","null","9","2","B","",""
"","","","","","html-keyboard-response","16","124144","0.0-13.0-1.0-1.0","3873A0B8992B49D08811A39BFC7DADA1","0199d676-5949-7eb6-86ce-5845ba2b1658","0199d675-8795-765b-adc2-c813de8cd3d1","","null","<div style=""display: flex; justify-content: center; align-items: center;"">
                     <img src=""images/semantic/semantic_series_9/semantic_series_9_c.png"" style=""width: 300px; height: 300px;"" />
                   </div>","null","9","2","C","",""
"","","","","","html-keyboard-response","17","130159","0.0-13.0-1.0-2.0","3873A0B8992B49D08811A39BFC7DADA1","0199d676-5949-7eb6-86ce-5845ba2b1658","0199d675-8795-765b-adc2-c813de8cd3d1","","null","<div style=""display: flex; justify-content: center; align-items: center;"">
                     <img src=""images/semantic/semantic_series_9/semantic_series_9_d.png"" style=""width: 300px; height: 300px;"" />
                   </div>","null","9","2","D","",""
"","","","","","survey-likert","18","133101","0.0-14.0","3873A0B8992B49D08811A39BFC7DADA1","0199d676-5949-7eb6-86ce-5845ba2b1658","0199d675-8795-765b-adc2-c813de8cd3d1","","2941","","{""Q0"":4}","9","2","surprise_rating","","[0]"
"","","","","","survey-likert","19","136544","0.0-15.0","3873A0B8992B49D08811A39BFC7DADA1","0199d676-5949-7eb6-86ce-5845ba2b1658","0199d675-8795-765b-adc2-c813de8cd3d1","","3441","","{""Q0"":3}","9","2","enjoyment_rating","","[0]"
"","","","","","html-keyboard-response","20","142559","0.0-16.0","3873A0B8992B49D08811A39BFC7DADA1","0199d676-5949-7eb6-86ce-5845ba2b1658","0199d675-8795-765b-adc2-c813de8cd3d1","","null","<div style=""display: flex; justify-content: center; align-items: center;"">
                     <img src=""images/other/blank.png"" style=""width: 300px; height: 300px;"" />
                   </div>","null","0","0","blank","",""
"","","","","","html-keyboard-response","21","148563","0.0-17.0","3873A0B8992B49D08811A39BFC7DADA1","0199d676-5949-7eb6-86ce-5845ba2b1658","0199d675-8795-765b-adc2-c813de8cd3d1","","null","<div style=""display: flex; justify-content: center; align-items: center;"">
                     <img src=""images/causal/causal_series_4/causal_series_4_a.png"" style=""width: 300px; height: 300px;"" />
                   </div>","null","4","1","A","",""
"","","","","","html-button-response","22","149790","0.0-18.0","3873A0B8992B49D08811A39BFC7DADA1","0199d676-5949-7eb6-86ce-5845ba2b1658","0199d675-8795-765b-adc2-c813de8cd3d1","","1225","
        <div style=""display: flex; justify-content: center; align-items: center;"">
          <img src=""images/red_deck_2.png"" style=""width: 300px; height: 300px; margin-right: 10px;"" />
          <img src=""images/blue_deck_1.png"" style=""width: 300px; height: 300px;"" />
        </div>","1","4","1","choice","1",""
"","","","","","html-keyboard-response","23","155795","0.0-19.0-1.0-0.0","3873A0B8992B49D08811A39BFC7DADA1","0199d676-5949-7eb6-86ce-5845ba2b1658","0199d675-8795-765b-adc2-c813de8cd3d1","","null","<div style=""display: flex; justify-content: center; align-items: center;"">
                     <img src=""images/semantic/semantic_series_4/semantic_series_4_b.png"" style=""width: 300px; height: 300px;"" />
                   </div>","null","4","1","B","",""
"","","","","","html-keyboard-response","24","161811","0.0-19.0-1.0-1.0","3873A0B8992B49D08811A39BFC7DADA1","0199d676-5949-7eb6-86ce-5845ba2b1658","0199d675-8795-765b-adc2-c813de8cd3d1","","null","<div style=""display: flex; justify-content: center; align-items: center;"">
                     <img src=""images/semantic/semantic_series_4/semantic_series_4_c.png"" style=""width: 300px; height: 300px;"" />
                   </div>","null","4","1","C","",""
"","","","","","html-keyboard-response","25","167828","0.0-19.0-1.0-2.0","3873A0B8992B49D08811A39BFC7DADA1","0199d676-5949-7eb6-86ce-5845ba2b1658","0199d675-8795-765b-adc2-c813de8cd3d1","","null","<div style=""display: flex; justify-content: center; align-items: center;"">
                     <img src=""images/semantic/semantic_series_4/semantic_series_4_d.png"" style=""width: 300px; height: 300px;"" />
                   </div>","null","4","1","D","",""
"","","","","","survey-likert","26","170678","0.0-20.0","3873A0B8992B49D08811A39BFC7DADA1","0199d676-5949-7eb6-86ce-5845ba2b1658","0199d675-8795-765b-adc2-c813de8cd3d1","","2848","","{""Q0"":4}","4","1","surprise_rating","","[0]"
"","","","","","survey-likert","27","174197","0.0-21.0","3873A0B8992B49D08811A39BFC7DADA1","0199d676-5949-7eb6-86ce-5845ba2b1658","0199d675-8795-765b-adc2-c813de8cd3d1","","3517","","{""Q0"":2}","4","1","enjoyment_rating","","[0]"
"","","","","","html-keyboard-response","28","180200","0.0-22.0","3873A0B8992B49D08811A39BFC7DADA1","0199d676-5949-7eb6-86ce-5845ba2b1658","0199d675-8795-765b-adc2-c813de8cd3d1","","null","<div style=""display: flex; justify-content: center; align-items: center;"">
                     <img src=""images/other/blank.png"" style=""width: 300px; height: 300px;"" />
                   </div>","null","0","0","blank","",""
"","","","","","html-keyboard-response","29","186201","0.0-23.0","3873A0B8992B49D08811A39BFC7DADA1","0199d676-5949-7eb6-86ce-5845ba2b1658","0199d675-8795-765b-adc2-c813de8cd3d1","","null","<div style=""display: flex; justify-content: center; align-items: center;"">
                     <img src=""images/causal/causal_series_6/causal_series_6_a.png"" style=""width: 300px; height: 300px;"" />
                   </div>","null","6","1","A","",""
"","","","","","html-button-response","30","187286","0.0-24.0","3873A0B8992B49D08811A39BFC7DADA1","0199d676-5949-7eb6-86ce-5845ba2b1658","0199d675-8795-765b-adc2-c813de8cd3d1","","1084","
        <div style=""display: flex; justify-content: center; align-items: center;"">
          <img src=""images/red_deck_2.png"" style=""width: 300px; height: 300px; margin-right: 10px;"" />
          <img src=""images/blue_deck_1.png"" style=""width: 300px; height: 300px;"" />
        </div>","0","6","1","choice","0",""
"","","","","","html-keyboard-response","31","193293","0.0-25.0-0.0-0.0","3873A0B8992B49D08811A39BFC7DADA1","0199d676-5949-7eb6-86ce-5845ba2b1658","0199d675-8795-765b-adc2-c813de8cd3d1","","null","<div style=""display: flex; justify-content: center; align-items: center;"">
                     <img src=""images/causal/causal_series_6/causal_series_6_b.png"" style=""width: 300px; height: 300px;"" />
                   </div>","null","6","1","B","",""
"","","","","","html-keyboard-response","32","199297","0.0-25.0-0.0-1.0","3873A0B8992B49D08811A39BFC7DADA1","0199d676-5949-7eb6-86ce-5845ba2b1658","0199d675-8795-765b-adc2-c813de8cd3d1","","null","<div style=""display: flex; justify-content: center; align-items: center;"">
                     <img src=""images/causal/causal_series_6/causal_series_6_c.png"" style=""width: 300px; height: 300px;"" />
                   </div>","null","6","1","C","",""
"","","","","","html-keyboard-response","33","205307","0.0-25.0-0.0-2.0","3873A0B8992B49D08811A39BFC7DADA1","0199d676-5949-7eb6-86ce-5845ba2b1658","0199d675-8795-765b-adc2-c813de8cd3d1","","null","<div style=""display: flex; justify-content: center; align-items: center;"">
                     <img src=""images/causal/causal_series_6/causal_series_6_d.png"" style=""width: 300px; height: 300px;"" />
                   </div>","null","6","1","D","",""
"","","","","","survey-likert","34","209776","0.0-26.0","3873A0B8992B49D08811A39BFC7DADA1","0199d676-5949-7eb6-86ce-5845ba2b1658","0199d675-8795-765b-adc2-c813de8cd3d1","","4468","","{""Q0"":3}","6","1","surprise_rating","","[0]"
"","","","","","survey-likert","35","212433","0.0-27.0","3873A0B8992B49D08811A39BFC7DADA1","0199d676-5949-7eb6-86ce-5845ba2b1658","0199d675-8795-765b-adc2-c813de8cd3d1","","2656","","{""Q0"":3}","6","1","enjoyment_rating","","[0]"
"","","","","","html-keyboard-response","36","218440","0.0-28.0","3873A0B8992B49D08811A39BFC7DADA1","0199d676-5949-7eb6-86ce-5845ba2b1658","0199d675-8795-765b-adc2-c813de8cd3d1","","null","<div style=""display: flex; justify-content: center; align-items: center;"">
                     <img src=""images/other/blank.png"" style=""width: 300px; height: 300px;"" />
                   </div>","null","0","0","blank","",""
"","","","","","html-keyboard-response","37","224449","0.0-29.0","3873A0B8992B49D08811A39BFC7DADA1","0199d676-5949-7eb6-86ce-5845ba2b1658","0199d675-8795-765b-adc2-c813de8cd3d1","","null","<div style=""display: flex; justify-content: center; align-items: center;"">
                     <img src=""images/causal/causal_series_9/causal_series_9_a.png"" style=""width: 300px; height: 300px;"" />
                   </div>","null","9","1","A","",""
"","","","","","html-button-response","38","225793","0.0-30.0","3873A0B8992B49D08811A39BFC7DADA1","0199d676-5949-7eb6-86ce-5845ba2b1658","0199d675-8795-765b-adc2-c813de8cd3d1","","1342","
        <div style=""display: flex; justify-content: center; align-items: center;"">
          <img src=""images/red_deck_2.png"" style=""width: 300px; height: 300px; margin-right: 10px;"" />
          <img src=""images/blue_deck_1.png"" style=""width: 300px; height: 300px;"" />
        </div>","1","9","1","choice","1",""
"","","","","","html-keyboard-response","39","231808","0.0-31.0-1.0-0.0","3873A0B8992B49D08811A39BFC7DADA1","0199d676-5949-7eb6-86ce-5845ba2b1658","0199d675-8795-765b-adc2-c813de8cd3d1","","null","<div style=""display: flex; justify-content: center; align-items: center;"">
                     <img src=""images/semantic/semantic_series_9/semantic_series_9_b.png"" style=""width: 300px; height: 300px;"" />
                   </div>","null","9","1","B","",""
"","","","","","html-keyboard-response","40","237823","0.0-31.0-1.0-1.0","3873A0B8992B49D08811A39BFC7DADA1","0199d676-5949-7eb6-86ce-5845ba2b1658","0199d675-8795-765b-adc2-c813de8cd3d1","","null","<div style=""display: flex; justify-content: center; align-items: center;"">
                     <img src=""images/semantic/semantic_series_9/semantic_series_9_c.png"" style=""width: 300px; height: 300px;"" />
                   </div>","null","9","1","C","",""
"","","","","","html-keyboard-response","41","243838","0.0-31.0-1.0-2.0","3873A0B8992B49D08811A39BFC7DADA1","0199d676-5949-7eb6-86ce-5845ba2b1658","0199d675-8795-765b-adc2-c813de8cd3d1","","null","<div style=""display: flex; justify-content: center; align-items: center;"">
                     <img src=""images/semantic/semantic_series_9/semantic_series_9_d.png"" style=""width: 300px; height: 300px;"" />
                   </div>","null","9","1","D","",""
"","","","","","survey-likert","42","245455","0.0-32.0","3873A0B8992B49D08811A39BFC7DADA1","0199d676-5949-7eb6-86ce-5845ba2b1658","0199d675-8795-765b-adc2-c813de8cd3d1","","1616","","{""Q0"":4}","9","1","surprise_rating","","[0]"
"","","","","","survey-likert","43","248681","0.0-33.0","3873A0B8992B49D08811A39BFC7DADA1","0199d676-5949-7eb6-86ce-5845ba2b1658","0199d675-8795-765b-adc2-c813de8cd3d1","","3224","","{""Q0"":2}","9","1","enjoyment_rating","","[0]"
"","","","","","html-keyboard-response","44","254685","0.0-34.0","3873A0B8992B49D08811A39BFC7DADA1","0199d676-5949-7eb6-86ce-5845ba2b1658","0199d675-8795-765b-adc2-c813de8cd3d1","","null","<div style=""display: flex; justify-content: center; align-items: center;"">
                     <img src=""images/other/blank.png"" style=""width: 300px; height: 300px;"" />
                   </div>","null","0","0","blank","",""
"","","","","","html-keyboard-response","45","260689","0.0-35.0","3873A0B8992B49D08811A39BFC7DADA1","0199d676-5949-7eb6-86ce-5845ba2b1658","0199d675-8795-765b-adc2-c813de8cd3d1","","null","<div style=""display: flex; justify-content: center; align-items: center;"">
                     <img src=""images/causal/causal_series_5/causal_series_5_a.png"" style=""width: 300px; height: 300px;"" />
                   </div>","null","5","2","A","",""
"","","","","","html-button-response","46","261912","0.0-36.0","3873A0B8992B49D08811A39BFC7DADA1","0199d676-5949-7eb6-86ce-5845ba2b1658","0199d675-8795-765b-adc2-c813de8cd3d1","","1221","
        <div style=""display: flex; justify-content: center; align-items: center;"">
          <img src=""images/red_deck_2.png"" style=""width: 300px; height: 300px; margin-right: 10px;"" />
          <img src=""images/blue_deck_1.png"" style=""width: 300px; height: 300px;"" />
        </div>","1","5","2","choice","1",""
"","","","","","html-keyboard-response","47","267917","0.0-37.0-1.0-0.0","3873A0B8992B49D08811A39BFC7DADA1","0199d676-5949-7eb6-86ce-5845ba2b1658","0199d675-8795-765b-adc2-c813de8cd3d1","","null","<div style=""display: flex; justify-content: center; align-items: center;"">
                     <img src=""images/semantic/semantic_series_5/semantic_series_5_b.png"" style=""width: 300px; height: 300px;"" />
                   </div>","null","5","2","B","",""
"","","","","","html-keyboard-response","48","273920","0.0-37.0-1.0-1.0","3873A0B8992B49D08811A39BFC7DADA1","0199d676-5949-7eb6-86ce-5845ba2b1658","0199d675-8795-765b-adc2-c813de8cd3d1","","null","<div style=""display: flex; justify-content: center; align-items: center;"">
                     <img src=""images/semantic/semantic_series_5/semantic_series_5_c.png"" style=""width: 300px; height: 300px;"" />
                   </div>","null","5","2","C","",""
"","","","","","html-keyboard-response","49","279926","0.0-37.0-1.0-2.0","3873A0B8992B49D08811A39BFC7DADA1","0199d676-5949-7eb6-86ce-5845ba2b1658","0199d675-8795-765b-adc2-c813de8cd3d1","","null","<div style=""display: flex; justify-content: center; align-items: center;"">
                     <img src=""images/semantic/semantic_series_5/semantic_series_5_d.png"" style=""width: 300px; height: 300px;"" />
                   </div>","null","5","2","D","",""
"","","","","","survey-likert","50","282194","0.0-38.0","3873A0B8992B49D08811A39BFC7DADA1","0199d676-5949-7eb6-86ce-5845ba2b1658","0199d675-8795-765b-adc2-c813de8cd3d1","","2267","","{""Q0"":4}","5","2","surprise_rating","","[0]"
"","","","","","survey-likert","51","286310","0.0-39.0","3873A0B8992B49D08811A39BFC7DADA1","0199d676-5949-7eb6-86ce-5845ba2b1658","0199d675-8795-765b-adc2-c813de8cd3d1","","4114","","{""Q0"":2}","5","2","enjoyment_rating","","[0]"
"","","","","","html-keyboard-response","52","292317","0.0-40.0","3873A0B8992B49D08811A39BFC7DADA1","0199d676-5949-7eb6-86ce-5845ba2b1658","0199d675-8795-765b-adc2-c813de8cd3d1","","null","<div style=""display: flex; justify-content: center; align-items: center;"">
                     <img src=""images/other/blank.png"" style=""width: 300px; height: 300px;"" />
                   </div>","null","0","0","blank","",""
"","","","","","html-keyboard-response","53","298331","0.0-41.0","3873A0B8992B49D08811A39BFC7DADA1","0199d676-5949-7eb6-86ce-5845ba2b1658","0199d675-8795-765b-adc2-c813de8cd3d1","","null","<div style=""display: flex; justify-content: center; align-items: center;"">
                     <img src=""images/causal/causal_series_7/causal_series_7_a.png"" style=""width: 300px; height: 300px;"" />
                   </div>","null","7","2","A","",""
"","","","","","html-button-response","54","299649","0.0-42.0","3873A0B8992B49D08811A39BFC7DADA1","0199d676-5949-7eb6-86ce-5845ba2b1658","0199d675-8795-765b-adc2-c813de8cd3d1","","1317","
        <div style=""display: flex; justify-content: center; align-items: center;"">
          <img src=""images/red_deck_2.png"" style=""width: 300px; height: 300px; margin-right: 10px;"" />
          <img src=""images/blue_deck_1.png"" style=""width: 300px; height: 300px;"" />
        </div>","1","7","2","choice","1",""
"","","","","","html-keyboard-response","55","305650","0.0-43.0-1.0-0.0","3873A0B8992B49D08811A39BFC7DADA1","0199d676-5949-7eb6-86ce-5845ba2b1658","0199d675-8795-765b-adc2-c813de8cd3d1","","null","<div style=""display: flex; justify-content: center; align-items: center;"">
                     <img src=""images/semantic/semantic_series_7/semantic_series_7_b.png"" style=""width: 300px; height: 300px;"" />
                   </div>","null","7","2","B","",""
"","","","","","html-keyboard-response","56","311665","0.0-43.0-1.0-1.0","3873A0B8992B49D08811A39BFC7DADA1","0199d676-5949-7eb6-86ce-5845ba2b1658","0199d675-8795-765b-adc2-c813de8cd3d1","","null","<div style=""display: flex; justify-content: center; align-items: center;"">
                     <img src=""images/semantic/semantic_series_7/semantic_series_7_c.png"" style=""width: 300px; height: 300px;"" />
                   </div>","null","7","2","C","",""
"","","","","","html-keyboard-response","57","317669","0.0-43.0-1.0-2.0","3873A0B8992B49D08811A39BFC7DADA1","0199d676-5949-7eb6-86ce-5845ba2b1658","0199d675-8795-765b-adc2-c813de8cd3d1","","null","<div style=""display: flex; justify-content: center; align-items: center;"">
                     <img src=""images/semantic/semantic_series_7/semantic_series_7_d.png"" style=""width: 300px; height: 300px;"" />
                   </div>","null","7","2","D","",""
"","","","","","survey-likert","58","321911","0.0-44.0","3873A0B8992B49D08811A39BFC7DADA1","0199d676-5949-7eb6-86ce-5845ba2b1658","0199d675-8795-765b-adc2-c813de8cd3d1","","4242","","{""Q0"":3}","7","2","surprise_rating","","[0]"
"","","","","","survey-likert","59","324090","0.0-45.0","3873A0B8992B49D08811A39BFC7DADA1","0199d676-5949-7eb6-86ce-5845ba2b1658","0199d675-8795-765b-adc2-c813de8cd3d1","","2179","","{""Q0"":1}","7","2","enjoyment_rating","","[0]"
"","","","","","html-keyboard-response","60","330099","0.0-46.0","3873A0B8992B49D08811A39BFC7DADA1","0199d676-5949-7eb6-86ce-5845ba2b1658","0199d675-8795-765b-adc2-c813de8cd3d1","","null","<div style=""display: flex; justify-content: center; align-items: center;"">
                     <img src=""images/other/blank.png"" style=""width: 300px; height: 300px;"" />
                   </div>","null","0","0","blank","",""
"","","","","","html-keyboard-response","61","336102","0.0-47.0","3873A0B8992B49D08811A39BFC7DADA1","0199d676-5949-7eb6-86ce-5845ba2b1658","0199d675-8795-765b-adc2-c813de8cd3d1","","null","<div style=""display: flex; justify-content: center; align-items: center;"">
                     <img src=""images/causal/causal_series_8/causal_series_8_a.png"" style=""width: 300px; height: 300px;"" />
                   </div>","null","8","2","A","",""
"","","","","","html-button-response","62","337328","0.0-48.0","3873A0B8992B49D08811A39BFC7DADA1","0199d676-5949-7eb6-86ce-5845ba2b1658","0199d675-8795-765b-adc2-c813de8cd3d1","","1225","
        <div style=""display: flex; justify-content: center; align-items: center;"">
          <img src=""images/red_deck_2.png"" style=""width: 300px; height: 300px; margin-right: 10px;"" />
          <img src=""images/blue_deck_1.png"" style=""width: 300px; height: 300px;"" />
        </div>","1","8","2","choice","1",""
"","","","","","html-keyboard-response","63","343331","0.0-49.0-1.0-0.0","3873A0B8992B49D08811A39BFC7DADA1","0199d676-5949-7eb6-86ce-5845ba2b1658","0199d675-8795-765b-adc2-c813de8cd3d1","","null","<div style=""display: flex; justify-content: center; align-items: center;"">
                     <img src=""images/semantic/semantic_series_8/semantic_series_8_b.png"" style=""width: 300px; height: 300px;"" />
                   </div>","null","8","2","B","",""
"","","","","","html-keyboard-response","64","349339","0.0-49.0-1.0-1.0","3873A0B8992B49D08811A39BFC7DADA1","0199d676-5949-7eb6-86ce-5845ba2b1658","0199d675-8795-765b-adc2-c813de8cd3d1","","null","<div style=""display: flex; justify-content: center; align-items: center;"">
                     <img src=""images/semantic/semantic_series_8/semantic_series_8_c.png"" style=""width: 300px; height: 300px;"" />
                   </div>","null","8","2","C","",""
"","","","","","html-keyboard-response","65","355343","0.0-49.0-1.0-2.0","3873A0B8992B49D08811A39BFC7DADA1","0199d676-5949-7eb6-86ce-5845ba2b1658","0199d675-8795-765b-adc2-c813de8cd3d1","","null","<div style=""display: flex; justify-content: center; align-items: center;"">
                     <img src=""images/semantic/semantic_series_8/semantic_series_8_d.png"" style=""width: 300px; height: 300px;"" />
                   </div>","null","8","2","D","",""
"","","","","","survey-likert","66","360853","0.0-50.0","3873A0B8992B49D08811A39BFC7DADA1","0199d676-5949-7eb6-86ce-5845ba2b1658","0199d675-8795-765b-adc2-c813de8cd3d1","","5509","","{""Q0"":3}","8","2","surprise_rating","","[0]"
"","","","","","survey-likert","67","363282","0.0-51.0","3873A0B8992B49D08811A39BFC7DADA1","0199d676-5949-7eb6-86ce-5845ba2b1658","0199d675-8795-765b-adc2-c813de8cd3d1","","2428","","{""Q0"":1}","8","2","enjoyment_rating","","[0]"
"","","","","","html-keyboard-response","68","369290","0.0-52.0","3873A0B8992B49D08811A39BFC7DADA1","0199d676-5949-7eb6-86ce-5845ba2b1658","0199d675-8795-765b-adc2-c813de8cd3d1","","null","<div style=""display: flex; justify-content: center; align-items: center;"">
                     <img src=""images/other/blank.png"" style=""width: 300px; height: 300px;"" />
                   </div>","null","0","0","blank","",""
"","","","","","html-keyboard-response","69","375303","0.0-53.0","3873A0B8992B49D08811A39BFC7DADA1","0199d676-5949-7eb6-86ce-5845ba2b1658","0199d675-8795-765b-adc2-c813de8cd3d1","","null","<div style=""display: flex; justify-content: center; align-items: center;"">
                     <img src=""images/causal/causal_series_2/causal_series_2_a.png"" style=""width: 300px; height: 300px;"" />
                   </div>","null","2","1","A","",""
"","","","","","html-button-response","70","376163","0.0-54.0","3873A0B8992B49D08811A39BFC7DADA1","0199d676-5949-7eb6-86ce-5845ba2b1658","0199d675-8795-765b-adc2-c813de8cd3d1","","859","
        <div style=""display: flex; justify-content: center; align-items: center;"">
          <img src=""images/red_deck_2.png"" style=""width: 300px; height: 300px; margin-right: 10px;"" />
          <img src=""images/blue_deck_1.png"" style=""width: 300px; height: 300px;"" />
        </div>","0","2","1","choice","0",""
"","","","","","html-keyboard-response","71","382178","0.0-55.0-0.0-0.0","3873A0B8992B49D08811A39BFC7DADA1","0199d676-5949-7eb6-86ce-5845ba2b1658","0199d675-8795-765b-adc2-c813de8cd3d1","","null","<div style=""display: flex; justify-content: center; align-items: center;"">
                     <img src=""images/causal/causal_series_2/causal_series_2_b.png"" style=""width: 300px; height: 300px;"" />
                   </div>","null","2","1","B","",""
"","","","","","html-keyboard-response","72","388181","0.0-55.0-0.0-1.0","3873A0B8992B49D08811A39BFC7DADA1","0199d676-5949-7eb6-86ce-5845ba2b1658","0199d675-8795-765b-adc2-c813de8cd3d1","","null","<div style=""display: flex; justify-content: center; align-items: center;"">
                     <img src=""images/causal/causal_series_2/causal_series_2_c.png"" style=""width: 300px; height: 300px;"" />
                   </div>","null","2","1","C","",""
"","","","","","html-keyboard-response","73","394190","0.0-55.0-0.0-2.0","3873A0B8992B49D08811A39BFC7DADA1","0199d676-5949-7eb6-86ce-5845ba2b1658","0199d675-8795-765b-adc2-c813de8cd3d1","","null","<div style=""display: flex; justify-content: center; align-items: center;"">
                     <img src=""images/causal/causal_series_2/causal_series_2_d.png"" style=""width: 300px; height: 300px;"" />
                   </div>","null","2","1","D","",""
"","","","","","survey-likert","74","400286","0.0-56.0","3873A0B8992B49D08811A39BFC7DADA1","0199d676-5949-7eb6-86ce-5845ba2b1658","0199d675-8795-765b-adc2-c813de8cd3d1","","6095","","{""Q0"":2}","2","1","surprise_rating","","[0]"
"","","","","","survey-likert","75","401983","0.0-57.0","3873A0B8992B49D08811A39BFC7DADA1","0199d676-5949-7eb6-86ce-5845ba2b1658","0199d675-8795-765b-adc2-c813de8cd3d1","","1696","","{""Q0"":0}","2","1","enjoyment_rating","","[0]"
"","","","","","html-keyboard-response","76","407997","0.0-58.0","3873A0B8992B49D08811A39BFC7DADA1","0199d676-5949-7eb6-86ce-5845ba2b1658","0199d675-8795-765b-adc2-c813de8cd3d1","","null","<div style=""display: flex; justify-content: center; align-items: center;"">
                     <img src=""images/other/blank.png"" style=""width: 300px; height: 300px;"" />
                   </div>","null","0","0","blank","",""
"","","","","","html-keyboard-response","77","414007","0.0-59.0","3873A0B8992B49D08811A39BFC7DADA1","0199d676-5949-7eb6-86ce-5845ba2b1658","0199d675-8795-765b-adc2-c813de8cd3d1","","null","<div style=""display: flex; justify-content: center; align-items: center;"">
                     <img src=""images/causal/causal_series_10/causal_series_10_a.png"" style=""width: 300px; height: 300px;"" />
                   </div>","null","10","2","A","",""
"","","","","","html-button-response","78","415012","0.0-60.0","3873A0B8992B49D08811A39BFC7DADA1","0199d676-5949-7eb6-86ce-5845ba2b1658","0199d675-8795-765b-adc2-c813de8cd3d1","","1004","
        <div style=""display: flex; justify-content: center; align-items: center;"">
          <img src=""images/red_deck_2.png"" style=""width: 300px; height: 300px; margin-right: 10px;"" />
          <img src=""images/blue_deck_1.png"" style=""width: 300px; height: 300px;"" />
        </div>","1","10","2","choice","1",""
"","","","","","html-keyboard-response","79","421021","0.0-61.0-1.0-0.0","3873A0B8992B49D08811A39BFC7DADA1","0199d676-5949-7eb6-86ce-5845ba2b1658","0199d675-8795-765b-adc2-c813de8cd3d1","","null","<div style=""display: flex; justify-content: center; align-items: center;"">
                     <img src=""images/semantic/semantic_series_10/semantic_series_10_b.png"" style=""width: 300px; height: 300px;"" />
                   </div>","null","10","2","B","",""
"","","","","","html-keyboard-response","80","427022","0.0-61.0-1.0-1.0","3873A0B8992B49D08811A39BFC7DADA1","0199d676-5949-7eb6-86ce-5845ba2b1658","0199d675-8795-765b-adc2-c813de8cd3d1","","null","<div style=""display: flex; justify-content: center; align-items: center;"">
                     <img src=""images/semantic/semantic_series_10/semantic_series_10_c.png"" style=""width: 300px; height: 300px;"" />
                   </div>","null","10","2","C","",""
"","","","","","html-keyboard-response","81","433031","0.0-61.0-1.0-2.0","3873A0B8992B49D08811A39BFC7DADA1","0199d676-5949-7eb6-86ce-5845ba2b1658","0199d675-8795-765b-adc2-c813de8cd3d1","","null","<div style=""display: flex; justify-content: center; align-items: center;"">
                     <img src=""images/semantic/semantic_series_10/semantic_series_10_d.png"" style=""width: 300px; height: 300px;"" />
                   </div>","null","10","2","D","",""
"","","","","","survey-likert","82","436352","0.0-62.0","3873A0B8992B49D08811A39BFC7DADA1","0199d676-5949-7eb6-86ce-5845ba2b1658","0199d675-8795-765b-adc2-c813de8cd3d1","","3321","","{""Q0"":2}","10","2","surprise_rating","","[0]"
"","","","","","survey-likert","83","437969","0.0-63.0","3873A0B8992B49D08811A39BFC7DADA1","0199d676-5949-7eb6-86ce-5845ba2b1658","0199d675-8795-765b-adc2-c813de8cd3d1","","1616","","{""Q0"":2}","10","2","enjoyment_rating","","[0]"
"","","","","","html-keyboard-response","84","443985","0.0-64.0","3873A0B8992B49D08811A39BFC7DADA1","0199d676-5949-7eb6-86ce-5845ba2b1658","0199d675-8795-765b-adc2-c813de8cd3d1","","null","<div style=""display: flex; justify-content: center; align-items: center;"">
                     <img src=""images/other/blank.png"" style=""width: 300px; height: 300px;"" />
                   </div>","null","0","0","blank","",""
"","","","","","html-keyboard-response","85","450000","0.0-65.0","3873A0B8992B49D08811A39BFC7DADA1","0199d676-5949-7eb6-86ce-5845ba2b1658","0199d675-8795-765b-adc2-c813de8cd3d1","","null","<div style=""display: flex; justify-content: center; align-items: center;"">
                     <img src=""images/causal/causal_series_6/causal_series_6_a.png"" style=""width: 300px; height: 300px;"" />
                   </div>","null","6","2","A","",""
"","","","","","html-button-response","86","457552","0.0-66.0","3873A0B8992B49D08811A39BFC7DADA1","0199d676-5949-7eb6-86ce-5845ba2b1658","0199d675-8795-765b-adc2-c813de8cd3d1","","7551","
        <div style=""display: flex; justify-content: center; align-items: center;"">
          <img src=""images/red_deck_2.png"" style=""width: 300px; height: 300px; margin-right: 10px;"" />
          <img src=""images/blue_deck_1.png"" style=""width: 300px; height: 300px;"" />
        </div>","1","6","2","choice","1",""
"","","","","","html-keyboard-response","87","463556","0.0-67.0-1.0-0.0","3873A0B8992B49D08811A39BFC7DADA1","0199d676-5949-7eb6-86ce-5845ba2b1658","0199d675-8795-765b-adc2-c813de8cd3d1","","null","<div style=""display: flex; justify-content: center; align-items: center;"">
                     <img src=""images/semantic/semantic_series_6/semantic_series_6_b.png"" style=""width: 300px; height: 300px;"" />
                   </div>","null","6","2","B","",""
"","","","","","html-keyboard-response","88","469568","0.0-67.0-1.0-1.0","3873A0B8992B49D08811A39BFC7DADA1","0199d676-5949-7eb6-86ce-5845ba2b1658","0199d675-8795-765b-adc2-c813de8cd3d1","","null","<div style=""display: flex; justify-content: center; align-items: center;"">
                     <img src=""images/semantic/semantic_series_6/semantic_series_6_c.png"" style=""width: 300px; height: 300px;"" />
                   </div>","null","6","2","C","",""
"","","","","","html-keyboard-response","89","475572","0.0-67.0-1.0-2.0","3873A0B8992B49D08811A39BFC7DADA1","0199d676-5949-7eb6-86ce-5845ba2b1658","0199d675-8795-765b-adc2-c813de8cd3d1","","null","<div style=""display: flex; justify-content: center; align-items: center;"">
                     <img src=""images/semantic/semantic_series_6/semantic_series_6_d.png"" style=""width: 300px; height: 300px;"" />
                   </div>","null","6","2","D","",""
"","","","","","survey-likert","90","478774","0.0-68.0","3873A0B8992B49D08811A39BFC7DADA1","0199d676-5949-7eb6-86ce-5845ba2b1658","0199d675-8795-765b-adc2-c813de8cd3d1","","3201","","{""Q0"":1}","6","2","surprise_rating","","[0]"
"","","","","","survey-likert","91","481244","0.0-69.0","3873A0B8992B49D08811A39BFC7DADA1","0199d676-5949-7eb6-86ce-5845ba2b1658","0199d675-8795-765b-adc2-c813de8cd3d1","","2468","","{""Q0"":1}","6","2","enjoyment_rating","","[0]"
"","","","","","html-keyboard-response","92","487248","0.0-70.0","3873A0B8992B49D08811A39BFC7DADA1","0199d676-5949-7eb6-86ce-5845ba2b1658","0199d675-8795-765b-adc2-c813de8cd3d1","","null","<div style=""display: flex; justify-content: center; align-items: center;"">
                     <img src=""images/other/blank.png"" style=""width: 300px; height: 300px;"" />
                   </div>","null","0","0","blank","",""
"","","","","","html-keyboard-response","93","493250","0.0-71.0","3873A0B8992B49D08811A39BFC7DADA1","0199d676-5949-7eb6-86ce-5845ba2b1658","0199d675-8795-765b-adc2-c813de8cd3d1","","null","<div style=""display: flex; justify-content: center; align-items: center;"">
                     <img src=""images/causal/causal_series_2/causal_series_2_a.png"" style=""width: 300px; height: 300px;"" />
                   </div>","null","2","2","A","",""
"","","","","","html-button-response","94","494351","0.0-72.0","3873A0B8992B49D08811A39BFC7DADA1","0199d676-5949-7eb6-86ce-5845ba2b1658","0199d675-8795-765b-adc2-c813de8cd3d1","","1099","
        <div style=""display: flex; justify-content: center; align-items: center;"">
          <img src=""images/red_deck_2.png"" style=""width: 300px; height: 300px; margin-right: 10px;"" />
          <img src=""images/blue_deck_1.png"" style=""width: 300px; height: 300px;"" />
        </div>","1","2","2","choice","1",""
"","","","","","html-keyboard-response","95","500364","0.0-73.0-1.0-0.0","3873A0B8992B49D08811A39BFC7DADA1","0199d676-5949-7eb6-86ce-5845ba2b1658","0199d675-8795-765b-adc2-c813de8cd3d1","","null","<div style=""display: flex; justify-content: center; align-items: center;"">
                     <img src=""images/semantic/semantic_series_2/semantic_series_2_b.png"" style=""width: 300px; height: 300px;"" />
                   </div>","null","2","2","B","",""
"","","","","","html-keyboard-response","96","506377","0.0-73.0-1.0-1.0","3873A0B8992B49D08811A39BFC7DADA1","0199d676-5949-7eb6-86ce-5845ba2b1658","0199d675-8795-765b-adc2-c813de8cd3d1","","null","<div style=""display: flex; justify-content: center; align-items: center;"">
                     <img src=""images/semantic/semantic_series_2/semantic_series_2_c.png"" style=""width: 300px; height: 300px;"" />
                   </div>","null","2","2","C","",""
"","","","","","html-keyboard-response","97","512378","0.0-73.0-1.0-2.0","3873A0B8992B49D08811A39BFC7DADA1","0199d676-5949-7eb6-86ce-5845ba2b1658","0199d675-8795-765b-adc2-c813de8cd3d1","","null","<div style=""display: flex; justify-content: center; align-items: center;"">
                     <img src=""images/semantic/semantic_series_2/semantic_series_2_d.png"" style=""width: 300px; height: 300px;"" />
                   </div>","null","2","2","D","",""
"","","","","","survey-likert","98","515397","0.0-74.0","3873A0B8992B49D08811A39BFC7DADA1","0199d676-5949-7eb6-86ce-5845ba2b1658","0199d675-8795-765b-adc2-c813de8cd3d1","","3018","","{""Q0"":2}","2","2","surprise_rating","","[0]"
"","","","","","survey-likert","99","517495","0.0-75.0","3873A0B8992B49D08811A39BFC7DADA1","0199d676-5949-7eb6-86ce-5845ba2b1658","0199d675-8795-765b-adc2-c813de8cd3d1","","2096","","{""Q0"":0}","2","2","enjoyment_rating","","[0]"
"","","","","","html-keyboard-response","100","523498","0.0-76.0","3873A0B8992B49D08811A39BFC7DADA1","0199d676-5949-7eb6-86ce-5845ba2b1658","0199d675-8795-765b-adc2-c813de8cd3d1","","null","<div style=""display: flex; justify-content: center; align-items: center;"">
                     <img src=""images/other/blank.png"" style=""width: 300px; height: 300px;"" />
                   </div>","null","0","0","blank","",""
"","","","","","html-keyboard-response","101","529499","0.0-77.0","3873A0B8992B49D08811A39BFC7DADA1","0199d676-5949-7eb6-86ce-5845ba2b1658","0199d675-8795-765b-adc2-c813de8cd3d1","","null","<div style=""display: flex; justify-content: center; align-items: center;"">
                     <img src=""images/causal/causal_series_4/causal_series_4_a.png"" style=""width: 300px; height: 300px;"" />
                   </div>","null","4","2","A","",""
"","","","","","html-button-response","102","531274","0.0-78.0","3873A0B8992B49D08811A39BFC7DADA1","0199d676-5949-7eb6-86ce-5845ba2b1658","0199d675-8795-765b-adc2-c813de8cd3d1","","1774","
        <div style=""display: flex; justify-content: center; align-items: center;"">
          <img src=""images/red_deck_2.png"" style=""width: 300px; height: 300px; margin-right: 10px;"" />
          <img src=""images/blue_deck_1.png"" style=""width: 300px; height: 300px;"" />
        </div>","0","4","2","choice","0",""
"","","","","","html-keyboard-response","103","537275","0.0-79.0-0.0-0.0","3873A0B8992B49D08811A39BFC7DADA1","0199d676-5949-7eb6-86ce-5845ba2b1658","0199d675-8795-765b-adc2-c813de8cd3d1","","null","<div style=""display: flex; justify-content: center; align-items: center;"">
                     <img src=""images/causal/causal_series_4/causal_series_4_b.png"" style=""width: 300px; height: 300px;"" />
                   </div>","null","4","2","B","",""
"","","","","","html-keyboard-response","104","543279","0.0-79.0-0.0-1.0","3873A0B8992B49D08811A39BFC7DADA1","0199d676-5949-7eb6-86ce-5845ba2b1658","0199d675-8795-765b-adc2-c813de8cd3d1","","null","<div style=""display: flex; justify-content: center; align-items: center;"">
                     <img src=""images/causal/causal_series_4/causal_series_4_c.png"" style=""width: 300px; height: 300px;"" />
                   </div>","null","4","2","C","",""
"","","","","","html-keyboard-response","105","549280","0.0-79.0-0.0-2.0","3873A0B8992B49D08811A39BFC7DADA1","0199d676-5949-7eb6-86ce-5845ba2b1658","0199d675-8795-765b-adc2-c813de8cd3d1","","null","<div style=""display: flex; justify-content: center; align-items: center;"">
                     <img src=""images/causal/causal_series_4/causal_series_4_d.png"" style=""width: 300px; height: 300px;"" />
                   </div>","null","4","2","D","",""
"","","","","","survey-likert","106","552208","0.0-80.0","3873A0B8992B49D08811A39BFC7DADA1","0199d676-5949-7eb6-86ce-5845ba2b1658","0199d675-8795-765b-adc2-c813de8cd3d1","","2927","","{""Q0"":3}","4","2","surprise_rating","","[0]"
"","","","","","survey-likert","107","554789","0.0-81.0","3873A0B8992B49D08811A39BFC7DADA1","0199d676-5949-7eb6-86ce-5845ba2b1658","0199d675-8795-765b-adc2-c813de8cd3d1","","2579","","{""Q0"":1}","4","2","enjoyment_rating","","[0]"
"","","","","","html-keyboard-response","108","560792","0.0-82.0","3873A0B8992B49D08811A39BFC7DADA1","0199d676-5949-7eb6-86ce-5845ba2b1658","0199d675-8795-765b-adc2-c813de8cd3d1","","null","<div style=""display: flex; justify-content: center; align-items: center;"">
                     <img src=""images/other/blank.png"" style=""width: 300px; height: 300px;"" />
                   </div>","null","0","0","blank","",""
"","","","","","html-keyboard-response","109","566807","0.0-83.0","3873A0B8992B49D08811A39BFC7DADA1","0199d676-5949-7eb6-86ce-5845ba2b1658","0199d675-8795-765b-adc2-c813de8cd3d1","","null","<div style=""display: flex; justify-content: center; align-items: center;"">
                     <img src=""images/causal/causal_series_1/causal_series_1_a.png"" style=""width: 300px; height: 300px;"" />
                   </div>","null","1","1","A","",""
"","","","","","html-button-response","110","568160","0.0-84.0","3873A0B8992B49D08811A39BFC7DADA1","0199d676-5949-7eb6-86ce-5845ba2b1658","0199d675-8795-765b-adc2-c813de8cd3d1","","1352","
        <div style=""display: flex; justify-content: center; align-items: center;"">
          <img src=""images/red_deck_2.png"" style=""width: 300px; height: 300px; margin-right: 10px;"" />
          <img src=""images/blue_deck_1.png"" style=""width: 300px; height: 300px;"" />
        </div>","1","1","1","choice","1",""
"","","","","","html-keyboard-response","111","574175","0.0-85.0-1.0-0.0","3873A0B8992B49D08811A39BFC7DADA1","0199d676-5949-7eb6-86ce-5845ba2b1658","0199d675-8795-765b-adc2-c813de8cd3d1","","null","<div style=""display: flex; justify-content: center; align-items: center;"">
                     <img src=""images/semantic/semantic_series_1/semantic_series_1_b.png"" style=""width: 300px; height: 300px;"" />
                   </div>","null","1","1","B","",""
"","","","","","html-keyboard-response","112","580188","0.0-85.0-1.0-1.0","3873A0B8992B49D08811A39BFC7DADA1","0199d676-5949-7eb6-86ce-5845ba2b1658","0199d675-8795-765b-adc2-c813de8cd3d1","","null","<div style=""display: flex; justify-content: center; align-items: center;"">
                     <img src=""images/semantic/semantic_series_1/semantic_series_1_c.png"" style=""width: 300px; height: 300px;"" />
                   </div>","null","1","1","C","",""
"","","","","","html-keyboard-response","113","586191","0.0-85.0-1.0-2.0","3873A0B8992B49D08811A39BFC7DADA1","0199d676-5949-7eb6-86ce-5845ba2b1658","0199d675-8795-765b-adc2-c813de8cd3d1","","null","<div style=""display: flex; justify-content: center; align-items: center;"">
                     <img src=""images/semantic/semantic_series_1/semantic_series_1_d.png"" style=""width: 300px; height: 300px;"" />
                   </div>","null","1","1","D","",""
"","","","","","survey-likert","114","590432","0.0-86.0","3873A0B8992B49D08811A39BFC7DADA1","0199d676-5949-7eb6-86ce-5845ba2b1658","0199d675-8795-765b-adc2-c813de8cd3d1","","4240","","{""Q0"":1}","1","1","surprise_rating","","[0]"
"","","","","","survey-likert","115","594526","0.0-87.0","3873A0B8992B49D08811A39BFC7DADA1","0199d676-5949-7eb6-86ce-5845ba2b1658","0199d675-8795-765b-adc2-c813de8cd3d1","","4092","","{""Q0"":0}","1","1","enjoyment_rating","","[0]"
"","","","","","html-keyboard-response","116","600528","0.0-88.0","3873A0B8992B49D08811A39BFC7DADA1","0199d676-5949-7eb6-86ce-5845ba2b1658","0199d675-8795-765b-adc2-c813de8cd3d1","","null","<div style=""display: flex; justify-content: center; align-items: center;"">
                     <img src=""images/other/blank.png"" style=""width: 300px; height: 300px;"" />
                   </div>","null","0","0","blank","",""
"","","","","","html-keyboard-response","117","606529","0.0-89.0","3873A0B8992B49D08811A39BFC7DADA1","0199d676-5949-7eb6-86ce-5845ba2b1658","0199d675-8795-765b-adc2-c813de8cd3d1","","null","<div style=""display: flex; justify-content: center; align-items: center;"">
                     <img src=""images/causal/causal_series_10/causal_series_10_a.png"" style=""width: 300px; height: 300px;"" />
                   </div>","null","10","1","A","",""
"","","","","","html-button-response","118","607949","0.0-90.0","3873A0B8992B49D08811A39BFC7DADA1","0199d676-5949-7eb6-86ce-5845ba2b1658","0199d675-8795-765b-adc2-c813de8cd3d1","","1419","
        <div style=""display: flex; justify-content: center; align-items: center;"">
          <img src=""images/red_deck_2.png"" style=""width: 300px; height: 300px; margin-right: 10px;"" />
          <img src=""images/blue_deck_1.png"" style=""width: 300px; height: 300px;"" />
        </div>","0","10","1","choice","0",""
"","","","","","html-keyboard-response","119","613952","0.0-91.0-0.0-0.0","3873A0B8992B49D08811A39BFC7DADA1","0199d676-5949-7eb6-86ce-5845ba2b1658","0199d675-8795-765b-adc2-c813de8cd3d1","","null","<div style=""display: flex; justify-content: center; align-items: center;"">
                     <img src=""images/causal/causal_series_10/causal_series_10_b.png"" style=""width: 300px; height: 300px;"" />
                   </div>","null","10","1","B","",""
"","","","","","html-keyboard-response","120","619965","0.0-91.0-0.0-1.0","3873A0B8992B49D08811A39BFC7DADA1","0199d676-5949-7eb6-86ce-5845ba2b1658","0199d675-8795-765b-adc2-c813de8cd3d1","","null","<div style=""display: flex; justify-content: center; align-items: center;"">
                     <img src=""images/causal/causal_series_10/causal_series_10_c.png"" style=""width: 300px; height: 300px;"" />
                   </div>","null","10","1","C","",""
"","","","","","html-keyboard-response","121","625970","0.0-91.0-0.0-2.0","3873A0B8992B49D08811A39BFC7DADA1","0199d676-5949-7eb6-86ce-5845ba2b1658","0199d675-8795-765b-adc2-c813de8cd3d1","","null","<div style=""display: flex; justify-content: center; align-items: center;"">
                     <img src=""images/causal/causal_series_10/causal_series_10_d.png"" style=""width: 300px; height: 300px;"" />
                   </div>","null","10","1","D","",""
"","","","","","survey-likert","122","632131","0.0-92.0","3873A0B8992B49D08811A39BFC7DADA1","0199d676-5949-7eb6-86ce-5845ba2b1658","0199d675-8795-765b-adc2-c813de8cd3d1","","6160","","{""Q0"":4}","10","1","surprise_rating","","[0]"
"","","","","","survey-likert","123","635394","0.0-93.0","3873A0B8992B49D08811A39BFC7DADA1","0199d676-5949-7eb6-86ce-5845ba2b1658","0199d675-8795-765b-adc2-c813de8cd3d1","","3262","","{""Q0"":1}","10","1","enjoyment_rating","","[0]"
"","","","","","html-keyboard-response","124","641405","0.0-94.0","3873A0B8992B49D08811A39BFC7DADA1","0199d676-5949-7eb6-86ce-5845ba2b1658","0199d675-8795-765b-adc2-c813de8cd3d1","","null","<div style=""display: flex; justify-content: center; align-items: center;"">
                     <img src=""images/other/blank.png"" style=""width: 300px; height: 300px;"" />
                   </div>","null","0","0","blank","",""
"","","","","","html-keyboard-response","125","647414","0.0-95.0","3873A0B8992B49D08811A39BFC7DADA1","0199d676-5949-7eb6-86ce-5845ba2b1658","0199d675-8795-765b-adc2-c813de8cd3d1","","null","<div style=""display: flex; justify-content: center; align-items: center;"">
                     <img src=""images/causal/causal_series_5/causal_series_5_a.png"" style=""width: 300px; height: 300px;"" />
                   </div>","null","5","1","A","",""
"","","","","","html-button-response","126","648361","0.0-96.0","3873A0B8992B49D08811A39BFC7DADA1","0199d676-5949-7eb6-86ce-5845ba2b1658","0199d675-8795-765b-adc2-c813de8cd3d1","","946","
        <div style=""display: flex; justify-content: center; align-items: center;"">
          <img src=""images/red_deck_2.png"" style=""width: 300px; height: 300px; margin-right: 10px;"" />
          <img src=""images/blue_deck_1.png"" style=""width: 300px; height: 300px;"" />
        </div>","0","5","1","choice","0",""
"","","","","","html-keyboard-response","127","654363","0.0-97.0-0.0-0.0","3873A0B8992B49D08811A39BFC7DADA1","0199d676-5949-7eb6-86ce-5845ba2b1658","0199d675-8795-765b-adc2-c813de8cd3d1","","null","<div style=""display: flex; justify-content: center; align-items: center;"">
                     <img src=""images/causal/causal_series_5/causal_series_5_b.png"" style=""width: 300px; height: 300px;"" />
                   </div>","null","5","1","B","",""
"","","","","","html-keyboard-response","128","660374","0.0-97.0-0.0-1.0","3873A0B8992B49D08811A39BFC7DADA1","0199d676-5949-7eb6-86ce-5845ba2b1658","0199d675-8795-765b-adc2-c813de8cd3d1","","null","<div style=""display: flex; justify-content: center; align-items: center;"">
                     <img src=""images/causal/causal_series_5/causal_series_5_c.png"" style=""width: 300px; height: 300px;"" />
                   </div>","null","5","1","C","",""
"","","","","","html-keyboard-response","129","666388","0.0-97.0-0.0-2.0","3873A0B8992B49D08811A39BFC7DADA1","0199d676-5949-7eb6-86ce-5845ba2b1658","0199d675-8795-765b-adc2-c813de8cd3d1","","null","<div style=""display: flex; justify-content: center; align-items: center;"">
                     <img src=""images/causal/causal_series_5/causal_series_5_d.png"" style=""width: 300px; height: 300px;"" />
                   </div>","null","5","1","D","",""
"","","","","","survey-likert","130","669602","0.0-98.0","3873A0B8992B49D08811A39BFC7DADA1","0199d676-5949-7eb6-86ce-5845ba2b1658","0199d675-8795-765b-adc2-c813de8cd3d1","","3212","","{""Q0"":3}","5","1","surprise_rating","","[0]"
"","","","","","survey-likert","131","671281","0.0-99.0","3873A0B8992B49D08811A39BFC7DADA1","0199d676-5949-7eb6-86ce-5845ba2b1658","0199d675-8795-765b-adc2-c813de8cd3d1","","1677","","{""Q0"":1}","5","1","enjoyment_rating","","[0]"
"","","","","","html-keyboard-response","132","677287","0.0-100.0","3873A0B8992B49D08811A39BFC7DADA1","0199d676-5949-7eb6-86ce-5845ba2b1658","0199d675-8795-765b-adc2-c813de8cd3d1","","null","<div style=""display: flex; justify-content: center; align-items: center;"">
                     <img src=""images/other/blank.png"" style=""width: 300px; height: 300px;"" />
                   </div>","null","0","0","blank","",""
"","","","","","html-keyboard-response","133","683300","0.0-101.0","3873A0B8992B49D08811A39BFC7DADA1","0199d676-5949-7eb6-86ce-5845ba2b1658","0199d675-8795-765b-adc2-c813de8cd3d1","","null","<div style=""display: flex; justify-content: center; align-items: center;"">
                     <img src=""images/causal/causal_series_7/causal_series_7_a.png"" style=""width: 300px; height: 300px;"" />
                   </div>","null","7","1","A","",""
"","","","","","html-button-response","134","684220","0.0-102.0","3873A0B8992B49D08811A39BFC7DADA1","0199d676-5949-7eb6-86ce-5845ba2b1658","0199d675-8795-765b-adc2-c813de8cd3d1","","919","
        <div style=""display: flex; justify-content: center; align-items: center;"">
          <img src=""images/red_deck_2.png"" style=""width: 300px; height: 300px; margin-right: 10px;"" />
          <img src=""images/blue_deck_1.png"" style=""width: 300px; height: 300px;"" />
        </div>","0","7","1","choice","0",""
"","","","","","html-keyboard-response","135","690233","0.0-103.0-0.0-0.0","3873A0B8992B49D08811A39BFC7DADA1","0199d676-5949-7eb6-86ce-5845ba2b1658","0199d675-8795-765b-adc2-c813de8cd3d1","","null","<div style=""display: flex; justify-content: center; align-items: center;"">
                     <img src=""images/causal/causal_series_7/causal_series_7_b.png"" style=""width: 300px; height: 300px;"" />
                   </div>","null","7","1","B","",""
"","","","","","html-keyboard-response","136","696242","0.0-103.0-0.0-1.0","3873A0B8992B49D08811A39BFC7DADA1","0199d676-5949-7eb6-86ce-5845ba2b1658","0199d675-8795-765b-adc2-c813de8cd3d1","","null","<div style=""display: flex; justify-content: center; align-items: center;"">
                     <img src=""images/causal/causal_series_7/causal_series_7_c.png"" style=""width: 300px; height: 300px;"" />
                   </div>","null","7","1","C","",""
"","","","","","html-keyboard-response","137","702256","0.0-103.0-0.0-2.0","3873A0B8992B49D08811A39BFC7DADA1","0199d676-5949-7eb6-86ce-5845ba2b1658","0199d675-8795-765b-adc2-c813de8cd3d1","","null","<div style=""display: flex; justify-content: center; align-items: center;"">
                     <img src=""images/causal/causal_series_7/causal_series_7_d.png"" style=""width: 300px; height: 300px;"" />
                   </div>","null","7","1","D","",""
"","","","","","survey-likert","138","705043","0.0-104.0","3873A0B8992B49D08811A39BFC7DADA1","0199d676-5949-7eb6-86ce-5845ba2b1658","0199d675-8795-765b-adc2-c813de8cd3d1","","2785","","{""Q0"":4}","7","1","surprise_rating","","[0]"
"","","","","","survey-likert","139","711247","0.0-105.0","3873A0B8992B49D08811A39BFC7DADA1","0199d676-5949-7eb6-86ce-5845ba2b1658","0199d675-8795-765b-adc2-c813de8cd3d1","","6203","","{""Q0"":4}","7","1","enjoyment_rating","","[0]"
"","","","","","html-keyboard-response","140","717257","0.0-106.0","3873A0B8992B49D08811A39BFC7DADA1","0199d676-5949-7eb6-86ce-5845ba2b1658","0199d675-8795-765b-adc2-c813de8cd3d1","","null","<div style=""display: flex; justify-content: center; align-items: center;"">
                     <img src=""images/other/blank.png"" style=""width: 300px; height: 300px;"" />
                   </div>","null","0","0","blank","",""
"","","","","","html-keyboard-response","141","723261","0.0-107.0","3873A0B8992B49D08811A39BFC7DADA1","0199d676-5949-7eb6-86ce-5845ba2b1658","0199d675-8795-765b-adc2-c813de8cd3d1","","null","<div style=""display: flex; justify-content: center; align-items: center;"">
                     <img src=""images/causal/causal_series_3/causal_series_3_a.png"" style=""width: 300px; height: 300px;"" />
                   </div>","null","3","2","A","",""
"","","","","","html-button-response","142","726391","0.0-108.0","3873A0B8992B49D08811A39BFC7DADA1","0199d676-5949-7eb6-86ce-5845ba2b1658","0199d675-8795-765b-adc2-c813de8cd3d1","","3128","
        <div style=""display: flex; justify-content: center; align-items: center;"">
          <img src=""images/red_deck_2.png"" style=""width: 300px; height: 300px; margin-right: 10px;"" />
          <img src=""images/blue_deck_1.png"" style=""width: 300px; height: 300px;"" />
        </div>","1","3","2","choice","1",""
"","","","","","html-keyboard-response","143","732398","0.0-109.0-1.0-0.0","3873A0B8992B49D08811A39BFC7DADA1","0199d676-5949-7eb6-86ce-5845ba2b1658","0199d675-8795-765b-adc2-c813de8cd3d1","","null","<div style=""display: flex; justify-content: center; align-items: center;"">
                     <img src=""images/semantic/semantic_series_3/semantic_series_3_b.png"" style=""width: 300px; height: 300px;"" />
                   </div>","null","3","2","B","",""
"","","","","","html-keyboard-response","144","738401","0.0-109.0-1.0-1.0","3873A0B8992B49D08811A39BFC7DADA1","0199d676-5949-7eb6-86ce-5845ba2b1658","0199d675-8795-765b-adc2-c813de8cd3d1","","null","<div style=""display: flex; justify-content: center; align-items: center;"">
                     <img src=""images/semantic/semantic_series_3/semantic_series_3_c.png"" style=""width: 300px; height: 300px;"" />
                   </div>","null","3","2","C","",""
"","","","","","html-keyboard-response","145","744412","0.0-109.0-1.0-2.0","3873A0B8992B49D08811A39BFC7DADA1","0199d676-5949-7eb6-86ce-5845ba2b1658","0199d675-8795-765b-adc2-c813de8cd3d1","","null","<div style=""display: flex; justify-content: center; align-items: center;"">
                     <img src=""images/semantic/semantic_series_3/semantic_series_3_d.png"" style=""width: 300px; height: 300px;"" />
                   </div>","null","3","2","D","",""
"","","","","","survey-likert","146","747350","0.0-110.0","3873A0B8992B49D08811A39BFC7DADA1","0199d676-5949-7eb6-86ce-5845ba2b1658","0199d675-8795-765b-adc2-c813de8cd3d1","","2937","","{""Q0"":1}","3","2","surprise_rating","","[0]"
"","","","","","survey-likert","147","749045","0.0-111.0","3873A0B8992B49D08811A39BFC7DADA1","0199d676-5949-7eb6-86ce-5845ba2b1658","0199d675-8795-765b-adc2-c813de8cd3d1","","1694","","{""Q0"":0}","3","2","enjoyment_rating","","[0]"
"","","","","","html-keyboard-response","148","755053","0.0-112.0","3873A0B8992B49D08811A39BFC7DADA1","0199d676-5949-7eb6-86ce-5845ba2b1658","0199d675-8795-765b-adc2-c813de8cd3d1","","null","<div style=""display: flex; justify-content: center; align-items: center;"">
                     <img src=""images/other/blank.png"" style=""width: 300px; height: 300px;"" />
                   </div>","null","0","0","blank","",""
"","","","","","html-keyboard-response","149","761064","0.0-113.0","3873A0B8992B49D08811A39BFC7DADA1","0199d676-5949-7eb6-86ce-5845ba2b1658","0199d675-8795-765b-adc2-c813de8cd3d1","","null","<div style=""display: flex; justify-content: center; align-items: center;"">
                     <img src=""images/causal/causal_series_8/causal_series_8_a.png"" style=""width: 300px; height: 300px;"" />
                   </div>","null","8","1","A","",""
"","","","","","html-button-response","150","762017","0.0-114.0","3873A0B8992B49D08811A39BFC7DADA1","0199d676-5949-7eb6-86ce-5845ba2b1658","0199d675-8795-765b-adc2-c813de8cd3d1","","952","
        <div style=""display: flex; justify-content: center; align-items: center;"">
          <img src=""images/red_deck_2.png"" style=""width: 300px; height: 300px; margin-right: 10px;"" />
          <img src=""images/blue_deck_1.png"" style=""width: 300px; height: 300px;"" />
        </div>","0","8","1","choice","0",""
"","","","","","html-keyboard-response","151","768030","0.0-115.0-0.0-0.0","3873A0B8992B49D08811A39BFC7DADA1","0199d676-5949-7eb6-86ce-5845ba2b1658","0199d675-8795-765b-adc2-c813de8cd3d1","","null","<div style=""display: flex; justify-content: center; align-items: center;"">
                     <img src=""images/causal/causal_series_8/causal_series_8_b.png"" style=""width: 300px; height: 300px;"" />
                   </div>","null","8","1","B","",""
"","","","","","html-keyboard-response","152","774043","0.0-115.0-0.0-1.0","3873A0B8992B49D08811A39BFC7DADA1","0199d676-5949-7eb6-86ce-5845ba2b1658","0199d675-8795-765b-adc2-c813de8cd3d1","","null","<div style=""display: flex; justify-content: center; align-items: center;"">
                     <img src=""images/causal/causal_series_8/causal_series_8_c.png"" style=""width: 300px; height: 300px;"" />
                   </div>","null","8","1","C","",""
"","","","","","html-keyboard-response","153","780053","0.0-115.0-0.0-2.0","3873A0B8992B49D08811A39BFC7DADA1","0199d676-5949-7eb6-86ce-5845ba2b1658","0199d675-8795-765b-adc2-c813de8cd3d1","","null","<div style=""display: flex; justify-content: center; align-items: center;"">
                     <img src=""images/causal/causal_series_8/causal_series_8_d.png"" style=""width: 300px; height: 300px;"" />
                   </div>","null","8","1","D","",""
"","","","","","survey-likert","154","783253","0.0-116.0","3873A0B8992B49D08811A39BFC7DADA1","0199d676-5949-7eb6-86ce-5845ba2b1658","0199d675-8795-765b-adc2-c813de8cd3d1","","3198","","{""Q0"":2}","8","1","surprise_rating","","[0]"
"","","","","","survey-likert","155","784919","0.0-117.0","3873A0B8992B49D08811A39BFC7DADA1","0199d676-5949-7eb6-86ce-5845ba2b1658","0199d675-8795-765b-adc2-c813de8cd3d1","","1664","","{""Q0"":2}","8","1","enjoyment_rating","","[0]"
"","","","","","html-keyboard-response","156","790926","0.0-118.0","3873A0B8992B49D08811A39BFC7DADA1","0199d676-5949-7eb6-86ce-5845ba2b1658","0199d675-8795-765b-adc2-c813de8cd3d1","","null","<div style=""display: flex; justify-content: center; align-items: center;"">
                     <img src=""images/other/blank.png"" style=""width: 300px; height: 300px;"" />
                   </div>","null","0","0","blank","",""
"","","","","","html-keyboard-response","157","796927","0.0-119.0","3873A0B8992B49D08811A39BFC7DADA1","0199d676-5949-7eb6-86ce-5845ba2b1658","0199d675-8795-765b-adc2-c813de8cd3d1","","null","<div style=""display: flex; justify-content: center; align-items: center;"">
                     <img src=""images/causal/causal_series_1/causal_series_1_a.png"" style=""width: 300px; height: 300px;"" />
                   </div>","null","1","2","A","",""
"","","","","","html-button-response","158","799889","0.0-120.0","3873A0B8992B49D08811A39BFC7DADA1","0199d676-5949-7eb6-86ce-5845ba2b1658","0199d675-8795-765b-adc2-c813de8cd3d1","","2961","
        <div style=""display: flex; justify-content: center; align-items: center;"">
          <img src=""images/red_deck_2.png"" style=""width: 300px; height: 300px; margin-right: 10px;"" />
          <img src=""images/blue_deck_1.png"" style=""width: 300px; height: 300px;"" />
        </div>","0","1","2","choice","0",""
"","","","","","html-keyboard-response","159","805900","0.0-121.0-0.0-0.0","3873A0B8992B49D08811A39BFC7DADA1","0199d676-5949-7eb6-86ce-5845ba2b1658","0199d675-8795-765b-adc2-c813de8cd3d1","","null","<div style=""display: flex; justify-content: center; align-items: center;"">
                     <img src=""images/causal/causal_series_1/causal_series_1_b.png"" style=""width: 300px; height: 300px;"" />
                   </div>","null","1","2","B","",""
"","","","","","html-keyboard-response","160","811916","0.0-121.0-0.0-1.0","3873A0B8992B49D08811A39BFC7DADA1","0199d676-5949-7eb6-86ce-5845ba2b1658","0199d675-8795-765b-adc2-c813de8cd3d1","","null","<div style=""display: flex; justify-content: center; align-items: center;"">
                     <img src=""images/causal/causal_series_1/causal_series_1_c.png"" style=""width: 300px; height: 300px;"" />
                   </div>","null","1","2","C","",""
"","","","","","html-keyboard-response","161","817925","0.0-121.0-0.0-2.0","3873A0B8992B49D08811A39BFC7DADA1","0199d676-5949-7eb6-86ce-5845ba2b1658","0199d675-8795-765b-adc2-c813de8cd3d1","","null","<div style=""display: flex; justify-content: center; align-items: center;"">
                     <img src=""images/causal/causal_series_1/causal_series_1_d.png"" style=""width: 300px; height: 300px;"" />
                   </div>","null","1","2","D","",""
"","","","","","survey-likert","162","821531","0.0-122.0","3873A0B8992B49D08811A39BFC7DADA1","0199d676-5949-7eb6-86ce-5845ba2b1658","0199d675-8795-765b-adc2-c813de8cd3d1","","3605","","{""Q0"":3}","1","2","surprise_rating","","[0]"
"","","","","","survey-likert","163","823376","0.0-123.0","3873A0B8992B49D08811A39BFC7DADA1","0199d676-5949-7eb6-86ce-5845ba2b1658","0199d675-8795-765b-adc2-c813de8cd3d1","","1844","","{""Q0"":3}","1","2","enjoyment_rating","","[0]"
"","","","","","html-keyboard-response","164","829383","0.0-124.0","3873A0B8992B49D08811A39BFC7DADA1","0199d676-5949-7eb6-86ce-5845ba2b1658","0199d675-8795-765b-adc2-c813de8cd3d1","","null","<div style=""display: flex; justify-content: center; align-items: center;"">
                     <img src=""images/other/blank.png"" style=""width: 300px; height: 300px;"" />
                   </div>","null","0","0","blank","",""
"","","","","","survey-text","165","849091","0.0-125.0","3873A0B8992B49D08811A39BFC7DADA1","0199d676-5949-7eb6-86ce-5845ba2b1658","0199d675-8795-765b-adc2-c813de8cd3d1","","19705","","{""Q0"":""one tells a coherent story and the other tells a sequence of unrelated events""}","","","","",""
"","","","","","html-button-response","166","857561","0.0-126.0","3873A0B8992B49D08811A39BFC7DADA1","0199d676-5949-7eb6-86ce-5845ba2b1658","0199d675-8795-765b-adc2-c813de8cd3d1","","8468","Which color deck do the following sentences continue the story from?","0","","","","",""
"","","","","","html-button-response","167","860245","0.0-127.0","3873A0B8992B49D08811A39BFC7DADA1","0199d676-5949-7eb6-86ce-5845ba2b1658","0199d675-8795-765b-adc2-c813de8cd3d1","","2682","Which color deck do the following sentences NOT follow the story from?","1","","","","",""
"","","","","","html-button-response","168","866459","0.0-128.0","3873A0B8992B49D08811A39BFC7DADA1","0199d676-5949-7eb6-86ce-5845ba2b1658","0199d675-8795-765b-adc2-c813de8cd3d1","","6212","Which type of deck did you prefer overall?","1","","","","",""
"","","","","","survey-text","169","874439","0.0-129.0","3873A0B8992B49D08811A39BFC7DADA1","0199d676-5949-7eb6-86ce-5845ba2b1658","0199d675-8795-765b-adc2-c813de8cd3d1","","7975","","{""Q0"":""MALE"",""Q1"":""25""}","","","","",""
"","","","","","instructions","170","878562","0.0-130.0","3873A0B8992B49D08811A39BFC7DADA1","0199d676-5949-7eb6-86ce-5845ba2b1658","0199d675-8795-765b-adc2-c813de8cd3d1","[{""page_index"":0,""viewing_time"":4122}]","4122","","","","","","",""
