"success","timeout","failed_images","failed_audio","failed_video","trial_type","trial_index","time_elapsed","internal_node_id","subject_id","study_id","session_id","view_history","rt","stimulus","response","choice"
"true","false","[]","[]","[]","preload","0","1410","0.0-0.0","C71EA99B69604478B8EF5CA26B99DB99","45a8d457-9960-4cfd-af3f-a882aa527ffa","23db58b9-63b0-4bce-8714-07ce439e665e","","","","",""
"","","","","","instructions","1","2495","0.0-1.0","C71EA99B69604478B8EF5CA26B99DB99","45a8d457-9960-4cfd-af3f-a882aa527ffa","23db58b9-63b0-4bce-8714-07ce439e665e","[{""page_index"":0,""viewing_time"":1085}]","1085","","",""
"","","","","","instructions","2","4919","0.0-2.0","C71EA99B69604478B8EF5CA26B99DB99","45a8d457-9960-4cfd-af3f-a882aa527ffa","23db58b9-63b0-4bce-8714-07ce439e665e","[{""page_index"":0,""viewing_time"":2423}]","2424","","",""
"true","","","","","fullscreen","3","8029","0.0-3.0","C71EA99B69604478B8EF5CA26B99DB99","45a8d457-9960-4cfd-af3f-a882aa527ffa","23db58b9-63b0-4bce-8714-07ce439e665e","","2096","","",""
"","","","","","instructions","4","16232","0.0-4.0","C71EA99B69604478B8EF5CA26B99DB99","45a8d457-9960-4cfd-af3f-a882aa527ffa","23db58b9-63b0-4bce-8714-07ce439e665e","[{""page_index"":0,""viewing_time"":8203}]","8203","","",""
"","","","","","html-keyboard-response","5","19241","0.0-5.0","C71EA99B69604478B8EF5CA26B99DB99","45a8d457-9960-4cfd-af3f-a882aa527ffa","23db58b9-63b0-4bce-8714-07ce439e665e","","null","<div style=""display: flex; justify-content: center; align-items: center;"">
                <img src=""images/causal/causal_series_18/causal_series_18_a.jpg"" style=""width: 300px; height: 300px;"" />
              </div>","null",""
"","","","","","html-button-response","6","21873","0.0-6.0","C71EA99B69604478B8EF5CA26B99DB99","45a8d457-9960-4cfd-af3f-a882aa527ffa","23db58b9-63b0-4bce-8714-07ce439e665e","","2631","
    <div style=""display: flex; justify-content: center; align-items: center;"">
      <img src=""images/red_deck_2.png"" style=""width: 300px; height: 300px; margin-right: 10px;"" />
      <img src=""images/blue_deck_1.png"" style=""width: 300px; height: 300px;"" />
    </div>","1","1"
"","","","","","html-keyboard-response","7","24875","0.0-7.0-1.0-0.0","C71EA99B69604478B8EF5CA26B99DB99","45a8d457-9960-4cfd-af3f-a882aa527ffa","23db58b9-63b0-4bce-8714-07ce439e665e","","null","<div style=""display: flex; justify-content: center; align-items: center;"">
                <img src=""images/semantic/semantic_series_15/semantic_series_15_d.jpg"" style=""width: 300px; height: 300px;"" />
              </div>","null",""
"","","","","","html-keyboard-response","8","27876","0.0-7.0-1.0-1.0","C71EA99B69604478B8EF5CA26B99DB99","45a8d457-9960-4cfd-af3f-a882aa527ffa","23db58b9-63b0-4bce-8714-07ce439e665e","","null","<div style=""display: flex; justify-content: center; align-items: center;"">
                <img src=""images/semantic/semantic_series_16/semantic_series_16_d.jpg"" style=""width: 300px; height: 300px;"" />
              </div>","null",""
"","","","","","html-keyboard-response","9","30880","0.0-7.0-1.0-2.0","C71EA99B69604478B8EF5CA26B99DB99","45a8d457-9960-4cfd-af3f-a882aa527ffa","23db58b9-63b0-4bce-8714-07ce439e665e","","null","<div style=""display: flex; justify-content: center; align-items: center;"">
                <img src=""images/semantic/semantic_series_17/semantic_series_17_d.jpg"" style=""width: 300px; height: 300px;"" />
              </div>","null",""
"","","","","","html-keyboard-response","10","33882","0.0-8.0","C71EA99B69604478B8EF5CA26B99DB99","45a8d457-9960-4cfd-af3f-a882aa527ffa","23db58b9-63b0-4bce-8714-07ce439e665e","","null","<div style=""display: flex; justify-content: center; align-items: center;"">
                <img src=""images/other/blank.jpg"" style=""width: 300px; height: 300px;"" />
              </div>","null",""
"","","","","","html-keyboard-response","11","36897","0.0-9.0","C71EA99B69604478B8EF5CA26B99DB99","45a8d457-9960-4cfd-af3f-a882aa527ffa","23db58b9-63b0-4bce-8714-07ce439e665e","","null","<div style=""display: flex; justify-content: center; align-items: center;"">
                <img src=""images/causal/causal_series_4/causal_series_4_a.jpg"" style=""width: 300px; height: 300px;"" />
              </div>","null",""
"","","","","","html-button-response","12","38515","0.0-10.0","C71EA99B69604478B8EF5CA26B99DB99","45a8d457-9960-4cfd-af3f-a882aa527ffa","23db58b9-63b0-4bce-8714-07ce439e665e","","1617","
    <div style=""display: flex; justify-content: center; align-items: center;"">
      <img src=""images/red_deck_2.png"" style=""width: 300px; height: 300px; margin-right: 10px;"" />
      <img src=""images/blue_deck_1.png"" style=""width: 300px; height: 300px;"" />
    </div>","0","0"
"","","","","","html-keyboard-response","13","41532","0.0-11.0-0.0-0.0","C71EA99B69604478B8EF5CA26B99DB99","45a8d457-9960-4cfd-af3f-a882aa527ffa","23db58b9-63b0-4bce-8714-07ce439e665e","","null","<div style=""display: flex; justify-content: center; align-items: center;"">
                <img src=""images/causal/causal_series_4/causal_series_4_b.jpg"" style=""width: 300px; height: 300px;"" />
              </div>","null",""
"","","","","","html-keyboard-response","14","44539","0.0-11.0-0.0-1.0","C71EA99B69604478B8EF5CA26B99DB99","45a8d457-9960-4cfd-af3f-a882aa527ffa","23db58b9-63b0-4bce-8714-07ce439e665e","","null","<div style=""display: flex; justify-content: center; align-items: center;"">
                <img src=""images/causal/causal_series_4/causal_series_4_c.jpg"" style=""width: 300px; height: 300px;"" />
              </div>","null",""
"","","","","","html-keyboard-response","15","47544","0.0-11.0-0.0-2.0","C71EA99B69604478B8EF5CA26B99DB99","45a8d457-9960-4cfd-af3f-a882aa527ffa","23db58b9-63b0-4bce-8714-07ce439e665e","","null","<div style=""display: flex; justify-content: center; align-items: center;"">
                <img src=""images/causal/causal_series_4/causal_series_4_d.jpg"" style=""width: 300px; height: 300px;"" />
              </div>","null",""
"","","","","","html-keyboard-response","16","50558","0.0-12.0","C71EA99B69604478B8EF5CA26B99DB99","45a8d457-9960-4cfd-af3f-a882aa527ffa","23db58b9-63b0-4bce-8714-07ce439e665e","","null","<div style=""display: flex; justify-content: center; align-items: center;"">
                <img src=""images/other/blank.jpg"" style=""width: 300px; height: 300px;"" />
              </div>","null",""
"","","","","","html-keyboard-response","17","53572","0.0-13.0","C71EA99B69604478B8EF5CA26B99DB99","45a8d457-9960-4cfd-af3f-a882aa527ffa","23db58b9-63b0-4bce-8714-07ce439e665e","","null","<div style=""display: flex; justify-content: center; align-items: center;"">
                <img src=""images/causal/causal_series_12/causal_series_12_a.jpg"" style=""width: 300px; height: 300px;"" />
              </div>","null",""
"","","","","","html-button-response","18","54517","0.0-14.0","C71EA99B69604478B8EF5CA26B99DB99","45a8d457-9960-4cfd-af3f-a882aa527ffa","23db58b9-63b0-4bce-8714-07ce439e665e","","944","
    <div style=""display: flex; justify-content: center; align-items: center;"">
      <img src=""images/red_deck_2.png"" style=""width: 300px; height: 300px; margin-right: 10px;"" />
      <img src=""images/blue_deck_1.png"" style=""width: 300px; height: 300px;"" />
    </div>","1","1"
"","","","","","html-keyboard-response","19","57529","0.0-15.0-1.0-0.0","C71EA99B69604478B8EF5CA26B99DB99","45a8d457-9960-4cfd-af3f-a882aa527ffa","23db58b9-63b0-4bce-8714-07ce439e665e","","null","<div style=""display: flex; justify-content: center; align-items: center;"">
                <img src=""images/semantic/semantic_series_15/semantic_series_15_d.jpg"" style=""width: 300px; height: 300px;"" />
              </div>","null",""
"","","","","","html-keyboard-response","20","60538","0.0-15.0-1.0-1.0","C71EA99B69604478B8EF5CA26B99DB99","45a8d457-9960-4cfd-af3f-a882aa527ffa","23db58b9-63b0-4bce-8714-07ce439e665e","","null","<div style=""display: flex; justify-content: center; align-items: center;"">
                <img src=""images/semantic/semantic_series_16/semantic_series_16_d.jpg"" style=""width: 300px; height: 300px;"" />
              </div>","null",""
"","","","","","html-keyboard-response","21","63550","0.0-15.0-1.0-2.0","C71EA99B69604478B8EF5CA26B99DB99","45a8d457-9960-4cfd-af3f-a882aa527ffa","23db58b9-63b0-4bce-8714-07ce439e665e","","null","<div style=""display: flex; justify-content: center; align-items: center;"">
                <img src=""images/semantic/semantic_series_17/semantic_series_17_d.jpg"" style=""width: 300px; height: 300px;"" />
              </div>","null",""
"","","","","","html-keyboard-response","22","66566","0.0-16.0","C71EA99B69604478B8EF5CA26B99DB99","45a8d457-9960-4cfd-af3f-a882aa527ffa","23db58b9-63b0-4bce-8714-07ce439e665e","","null","<div style=""display: flex; justify-content: center; align-items: center;"">
                <img src=""images/other/blank.jpg"" style=""width: 300px; height: 300px;"" />
              </div>","null",""
"","","","","","html-keyboard-response","23","69580","0.0-17.0","C71EA99B69604478B8EF5CA26B99DB99","45a8d457-9960-4cfd-af3f-a882aa527ffa","23db58b9-63b0-4bce-8714-07ce439e665e","","null","<div style=""display: flex; justify-content: center; align-items: center;"">
                <img src=""images/causal/causal_series_8/causal_series_8_a.jpg"" style=""width: 300px; height: 300px;"" />
              </div>","null",""
"","","","","","html-button-response","24","71214","0.0-18.0","C71EA99B69604478B8EF5CA26B99DB99","45a8d457-9960-4cfd-af3f-a882aa527ffa","23db58b9-63b0-4bce-8714-07ce439e665e","","1634","
    <div style=""display: flex; justify-content: center; align-items: center;"">
      <img src=""images/red_deck_2.png"" style=""width: 300px; height: 300px; margin-right: 10px;"" />
      <img src=""images/blue_deck_1.png"" style=""width: 300px; height: 300px;"" />
    </div>","1","1"
"","","","","","html-keyboard-response","25","74225","0.0-19.0-1.0-0.0","C71EA99B69604478B8EF5CA26B99DB99","45a8d457-9960-4cfd-af3f-a882aa527ffa","23db58b9-63b0-4bce-8714-07ce439e665e","","null","<div style=""display: flex; justify-content: center; align-items: center;"">
                <img src=""images/semantic/semantic_series_3/semantic_series_3_d.jpg"" style=""width: 300px; height: 300px;"" />
              </div>","null",""
"","","","","","html-keyboard-response","26","77238","0.0-19.0-1.0-1.0","C71EA99B69604478B8EF5CA26B99DB99","45a8d457-9960-4cfd-af3f-a882aa527ffa","23db58b9-63b0-4bce-8714-07ce439e665e","","null","<div style=""display: flex; justify-content: center; align-items: center;"">
                <img src=""images/semantic/semantic_series_4/semantic_series_4_d.jpg"" style=""width: 300px; height: 300px;"" />
              </div>","null",""
"","","","","","html-keyboard-response","27","80253","0.0-19.0-1.0-2.0","C71EA99B69604478B8EF5CA26B99DB99","45a8d457-9960-4cfd-af3f-a882aa527ffa","23db58b9-63b0-4bce-8714-07ce439e665e","","null","<div style=""display: flex; justify-content: center; align-items: center;"">
                <img src=""images/semantic/semantic_series_5/semantic_series_5_d.jpg"" style=""width: 300px; height: 300px;"" />
              </div>","null",""
"","","","","","html-keyboard-response","28","83263","0.0-20.0","C71EA99B69604478B8EF5CA26B99DB99","45a8d457-9960-4cfd-af3f-a882aa527ffa","23db58b9-63b0-4bce-8714-07ce439e665e","","null","<div style=""display: flex; justify-content: center; align-items: center;"">
                <img src=""images/other/blank.jpg"" style=""width: 300px; height: 300px;"" />
              </div>","null",""
"","","","","","html-keyboard-response","29","86271","0.0-21.0","C71EA99B69604478B8EF5CA26B99DB99","45a8d457-9960-4cfd-af3f-a882aa527ffa","23db58b9-63b0-4bce-8714-07ce439e665e","","null","<div style=""display: flex; justify-content: center; align-items: center;"">
                <img src=""images/causal/causal_series_15/causal_series_15_a.jpg"" style=""width: 300px; height: 300px;"" />
              </div>","null",""
"","","","","","html-button-response","30","87488","0.0-22.0","C71EA99B69604478B8EF5CA26B99DB99","45a8d457-9960-4cfd-af3f-a882aa527ffa","23db58b9-63b0-4bce-8714-07ce439e665e","","1216","
    <div style=""display: flex; justify-content: center; align-items: center;"">
      <img src=""images/red_deck_2.png"" style=""width: 300px; height: 300px; margin-right: 10px;"" />
      <img src=""images/blue_deck_1.png"" style=""width: 300px; height: 300px;"" />
    </div>","1","1"
"","","","","","html-keyboard-response","31","90504","0.0-23.0-1.0-0.0","C71EA99B69604478B8EF5CA26B99DB99","45a8d457-9960-4cfd-af3f-a882aa527ffa","23db58b9-63b0-4bce-8714-07ce439e665e","","null","<div style=""display: flex; justify-content: center; align-items: center;"">
                <img src=""images/semantic/semantic_series_6/semantic_series_6_d.jpg"" style=""width: 300px; height: 300px;"" />
              </div>","null",""
"","","","","","html-keyboard-response","32","93515","0.0-23.0-1.0-1.0","C71EA99B69604478B8EF5CA26B99DB99","45a8d457-9960-4cfd-af3f-a882aa527ffa","23db58b9-63b0-4bce-8714-07ce439e665e","","null","<div style=""display: flex; justify-content: center; align-items: center;"">
                <img src=""images/semantic/semantic_series_7/semantic_series_7_d.jpg"" style=""width: 300px; height: 300px;"" />
              </div>","null",""
"","","","","","html-keyboard-response","33","96526","0.0-23.0-1.0-2.0","C71EA99B69604478B8EF5CA26B99DB99","45a8d457-9960-4cfd-af3f-a882aa527ffa","23db58b9-63b0-4bce-8714-07ce439e665e","","null","<div style=""display: flex; justify-content: center; align-items: center;"">
                <img src=""images/semantic/semantic_series_8/semantic_series_8_d.jpg"" style=""width: 300px; height: 300px;"" />
              </div>","null",""
"","","","","","html-keyboard-response","34","99539","0.0-24.0","C71EA99B69604478B8EF5CA26B99DB99","45a8d457-9960-4cfd-af3f-a882aa527ffa","23db58b9-63b0-4bce-8714-07ce439e665e","","null","<div style=""display: flex; justify-content: center; align-items: center;"">
                <img src=""images/other/blank.jpg"" style=""width: 300px; height: 300px;"" />
              </div>","null",""
"","","","","","html-keyboard-response","35","102547","0.0-25.0","C71EA99B69604478B8EF5CA26B99DB99","45a8d457-9960-4cfd-af3f-a882aa527ffa","23db58b9-63b0-4bce-8714-07ce439e665e","","null","<div style=""display: flex; justify-content: center; align-items: center;"">
                <img src=""images/causal/causal_series_3/causal_series_3_a.jpg"" style=""width: 300px; height: 300px;"" />
              </div>","null",""
"","","","","","html-button-response","36","104265","0.0-26.0","C71EA99B69604478B8EF5CA26B99DB99","45a8d457-9960-4cfd-af3f-a882aa527ffa","23db58b9-63b0-4bce-8714-07ce439e665e","","1718","
    <div style=""display: flex; justify-content: center; align-items: center;"">
      <img src=""images/red_deck_2.png"" style=""width: 300px; height: 300px; margin-right: 10px;"" />
      <img src=""images/blue_deck_1.png"" style=""width: 300px; height: 300px;"" />
    </div>","1","1"
"","","","","","html-keyboard-response","37","107267","0.0-27.0-1.0-0.0","C71EA99B69604478B8EF5CA26B99DB99","45a8d457-9960-4cfd-af3f-a882aa527ffa","23db58b9-63b0-4bce-8714-07ce439e665e","","null","<div style=""display: flex; justify-content: center; align-items: center;"">
                <img src=""images/semantic/semantic_series_6/semantic_series_6_d.jpg"" style=""width: 300px; height: 300px;"" />
              </div>","null",""
"","","","","","html-keyboard-response","38","110268","0.0-27.0-1.0-1.0","C71EA99B69604478B8EF5CA26B99DB99","45a8d457-9960-4cfd-af3f-a882aa527ffa","23db58b9-63b0-4bce-8714-07ce439e665e","","null","<div style=""display: flex; justify-content: center; align-items: center;"">
                <img src=""images/semantic/semantic_series_7/semantic_series_7_d.jpg"" style=""width: 300px; height: 300px;"" />
              </div>","null",""
"","","","","","html-keyboard-response","39","113279","0.0-27.0-1.0-2.0","C71EA99B69604478B8EF5CA26B99DB99","45a8d457-9960-4cfd-af3f-a882aa527ffa","23db58b9-63b0-4bce-8714-07ce439e665e","","null","<div style=""display: flex; justify-content: center; align-items: center;"">
                <img src=""images/semantic/semantic_series_8/semantic_series_8_d.jpg"" style=""width: 300px; height: 300px;"" />
              </div>","null",""
"","","","","","html-keyboard-response","40","116286","0.0-28.0","C71EA99B69604478B8EF5CA26B99DB99","45a8d457-9960-4cfd-af3f-a882aa527ffa","23db58b9-63b0-4bce-8714-07ce439e665e","","null","<div style=""display: flex; justify-content: center; align-items: center;"">
                <img src=""images/other/blank.jpg"" style=""width: 300px; height: 300px;"" />
              </div>","null",""
"","","","","","html-keyboard-response","41","119295","0.0-29.0","C71EA99B69604478B8EF5CA26B99DB99","45a8d457-9960-4cfd-af3f-a882aa527ffa","23db58b9-63b0-4bce-8714-07ce439e665e","","null","<div style=""display: flex; justify-content: center; align-items: center;"">
                <img src=""images/causal/causal_series_13/causal_series_13_a.jpg"" style=""width: 300px; height: 300px;"" />
              </div>","null",""
"","","","","","html-button-response","42","120843","0.0-30.0","C71EA99B69604478B8EF5CA26B99DB99","45a8d457-9960-4cfd-af3f-a882aa527ffa","23db58b9-63b0-4bce-8714-07ce439e665e","","1547","
    <div style=""display: flex; justify-content: center; align-items: center;"">
      <img src=""images/red_deck_2.png"" style=""width: 300px; height: 300px; margin-right: 10px;"" />
      <img src=""images/blue_deck_1.png"" style=""width: 300px; height: 300px;"" />
    </div>","1","1"
"","","","","","html-keyboard-response","43","123851","0.0-31.0-1.0-0.0","C71EA99B69604478B8EF5CA26B99DB99","45a8d457-9960-4cfd-af3f-a882aa527ffa","23db58b9-63b0-4bce-8714-07ce439e665e","","null","<div style=""display: flex; justify-content: center; align-items: center;"">
                <img src=""images/semantic/semantic_series_18/semantic_series_18_d.jpg"" style=""width: 300px; height: 300px;"" />
              </div>","null",""
"","","","","","html-keyboard-response","44","126863","0.0-31.0-1.0-1.0","C71EA99B69604478B8EF5CA26B99DB99","45a8d457-9960-4cfd-af3f-a882aa527ffa","23db58b9-63b0-4bce-8714-07ce439e665e","","null","<div style=""display: flex; justify-content: center; align-items: center;"">
                <img src=""images/semantic/semantic_series_1/semantic_series_1_d.jpg"" style=""width: 300px; height: 300px;"" />
              </div>","null",""
"","","","","","html-keyboard-response","45","129872","0.0-31.0-1.0-2.0","C71EA99B69604478B8EF5CA26B99DB99","45a8d457-9960-4cfd-af3f-a882aa527ffa","23db58b9-63b0-4bce-8714-07ce439e665e","","null","<div style=""display: flex; justify-content: center; align-items: center;"">
                <img src=""images/semantic/semantic_series_2/semantic_series_2_d.jpg"" style=""width: 300px; height: 300px;"" />
              </div>","null",""
"","","","","","html-keyboard-response","46","132888","0.0-32.0","C71EA99B69604478B8EF5CA26B99DB99","45a8d457-9960-4cfd-af3f-a882aa527ffa","23db58b9-63b0-4bce-8714-07ce439e665e","","null","<div style=""display: flex; justify-content: center; align-items: center;"">
                <img src=""images/other/blank.jpg"" style=""width: 300px; height: 300px;"" />
              </div>","null",""
"","","","","","html-keyboard-response","47","135899","0.0-33.0","C71EA99B69604478B8EF5CA26B99DB99","45a8d457-9960-4cfd-af3f-a882aa527ffa","23db58b9-63b0-4bce-8714-07ce439e665e","","null","<div style=""display: flex; justify-content: center; align-items: center;"">
                <img src=""images/causal/causal_series_11/causal_series_11_a.jpg"" style=""width: 300px; height: 300px;"" />
              </div>","null",""
"","","","","","html-button-response","48","137173","0.0-34.0","C71EA99B69604478B8EF5CA26B99DB99","45a8d457-9960-4cfd-af3f-a882aa527ffa","23db58b9-63b0-4bce-8714-07ce439e665e","","1273","
    <div style=""display: flex; justify-content: center; align-items: center;"">
      <img src=""images/red_deck_2.png"" style=""width: 300px; height: 300px; margin-right: 10px;"" />
      <img src=""images/blue_deck_1.png"" style=""width: 300px; height: 300px;"" />
    </div>","0","0"
"","","","","","html-keyboard-response","49","140189","0.0-35.0-0.0-0.0","C71EA99B69604478B8EF5CA26B99DB99","45a8d457-9960-4cfd-af3f-a882aa527ffa","23db58b9-63b0-4bce-8714-07ce439e665e","","null","<div style=""display: flex; justify-content: center; align-items: center;"">
                <img src=""images/causal/causal_series_11/causal_series_11_b.jpg"" style=""width: 300px; height: 300px;"" />
              </div>","null",""
"","","","","","html-keyboard-response","50","143199","0.0-35.0-0.0-1.0","C71EA99B69604478B8EF5CA26B99DB99","45a8d457-9960-4cfd-af3f-a882aa527ffa","23db58b9-63b0-4bce-8714-07ce439e665e","","null","<div style=""display: flex; justify-content: center; align-items: center;"">
                <img src=""images/causal/causal_series_11/causal_series_11_c.jpg"" style=""width: 300px; height: 300px;"" />
              </div>","null",""
"","","","","","html-keyboard-response","51","146205","0.0-35.0-0.0-2.0","C71EA99B69604478B8EF5CA26B99DB99","45a8d457-9960-4cfd-af3f-a882aa527ffa","23db58b9-63b0-4bce-8714-07ce439e665e","","null","<div style=""display: flex; justify-content: center; align-items: center;"">
                <img src=""images/causal/causal_series_11/causal_series_11_d.jpg"" style=""width: 300px; height: 300px;"" />
              </div>","null",""
"","","","","","html-keyboard-response","52","149220","0.0-36.0","C71EA99B69604478B8EF5CA26B99DB99","45a8d457-9960-4cfd-af3f-a882aa527ffa","23db58b9-63b0-4bce-8714-07ce439e665e","","null","<div style=""display: flex; justify-content: center; align-items: center;"">
                <img src=""images/other/blank.jpg"" style=""width: 300px; height: 300px;"" />
              </div>","null",""
"","","","","","html-keyboard-response","53","152225","0.0-37.0","C71EA99B69604478B8EF5CA26B99DB99","45a8d457-9960-4cfd-af3f-a882aa527ffa","23db58b9-63b0-4bce-8714-07ce439e665e","","null","<div style=""display: flex; justify-content: center; align-items: center;"">
                <img src=""images/causal/causal_series_5/causal_series_5_a.jpg"" style=""width: 300px; height: 300px;"" />
              </div>","null",""
"","","","","","html-button-response","54","153822","0.0-38.0","C71EA99B69604478B8EF5CA26B99DB99","45a8d457-9960-4cfd-af3f-a882aa527ffa","23db58b9-63b0-4bce-8714-07ce439e665e","","1596","
    <div style=""display: flex; justify-content: center; align-items: center;"">
      <img src=""images/red_deck_2.png"" style=""width: 300px; height: 300px; margin-right: 10px;"" />
      <img src=""images/blue_deck_1.png"" style=""width: 300px; height: 300px;"" />
    </div>","1","1"
"","","","","","html-keyboard-response","55","156823","0.0-39.0-1.0-0.0","C71EA99B69604478B8EF5CA26B99DB99","45a8d457-9960-4cfd-af3f-a882aa527ffa","23db58b9-63b0-4bce-8714-07ce439e665e","","null","<div style=""display: flex; justify-content: center; align-items: center;"">
                <img src=""images/semantic/semantic_series_12/semantic_series_12_d.jpg"" style=""width: 300px; height: 300px;"" />
              </div>","null",""
"","","","","","html-keyboard-response","56","159829","0.0-39.0-1.0-1.0","C71EA99B69604478B8EF5CA26B99DB99","45a8d457-9960-4cfd-af3f-a882aa527ffa","23db58b9-63b0-4bce-8714-07ce439e665e","","null","<div style=""display: flex; justify-content: center; align-items: center;"">
                <img src=""images/semantic/semantic_series_13/semantic_series_13_d.jpg"" style=""width: 300px; height: 300px;"" />
              </div>","null",""
"","","","","","html-keyboard-response","57","162833","0.0-39.0-1.0-2.0","C71EA99B69604478B8EF5CA26B99DB99","45a8d457-9960-4cfd-af3f-a882aa527ffa","23db58b9-63b0-4bce-8714-07ce439e665e","","null","<div style=""display: flex; justify-content: center; align-items: center;"">
                <img src=""images/semantic/semantic_series_14/semantic_series_14_d.jpg"" style=""width: 300px; height: 300px;"" />
              </div>","null",""
"","","","","","html-keyboard-response","58","165845","0.0-40.0","C71EA99B69604478B8EF5CA26B99DB99","45a8d457-9960-4cfd-af3f-a882aa527ffa","23db58b9-63b0-4bce-8714-07ce439e665e","","null","<div style=""display: flex; justify-content: center; align-items: center;"">
                <img src=""images/other/blank.jpg"" style=""width: 300px; height: 300px;"" />
              </div>","null",""
"","","","","","html-keyboard-response","59","168857","0.0-41.0","C71EA99B69604478B8EF5CA26B99DB99","45a8d457-9960-4cfd-af3f-a882aa527ffa","23db58b9-63b0-4bce-8714-07ce439e665e","","null","<div style=""display: flex; justify-content: center; align-items: center;"">
                <img src=""images/causal/causal_series_6/causal_series_6_a.jpg"" style=""width: 300px; height: 300px;"" />
              </div>","null",""
"","","","","","html-button-response","60","169632","0.0-42.0","C71EA99B69604478B8EF5CA26B99DB99","45a8d457-9960-4cfd-af3f-a882aa527ffa","23db58b9-63b0-4bce-8714-07ce439e665e","","774","
    <div style=""display: flex; justify-content: center; align-items: center;"">
      <img src=""images/red_deck_2.png"" style=""width: 300px; height: 300px; margin-right: 10px;"" />
      <img src=""images/blue_deck_1.png"" style=""width: 300px; height: 300px;"" />
    </div>","0","0"
"","","","","","html-keyboard-response","61","172639","0.0-43.0-0.0-0.0","C71EA99B69604478B8EF5CA26B99DB99","45a8d457-9960-4cfd-af3f-a882aa527ffa","23db58b9-63b0-4bce-8714-07ce439e665e","","null","<div style=""display: flex; justify-content: center; align-items: center;"">
                <img src=""images/causal/causal_series_6/causal_series_6_b.jpg"" style=""width: 300px; height: 300px;"" />
              </div>","null",""
"","","","","","html-keyboard-response","62","175655","0.0-43.0-0.0-1.0","C71EA99B69604478B8EF5CA26B99DB99","45a8d457-9960-4cfd-af3f-a882aa527ffa","23db58b9-63b0-4bce-8714-07ce439e665e","","null","<div style=""display: flex; justify-content: center; align-items: center;"">
                <img src=""images/causal/causal_series_6/causal_series_6_c.jpg"" style=""width: 300px; height: 300px;"" />
              </div>","null",""
"","","","","","html-keyboard-response","63","178661","0.0-43.0-0.0-2.0","C71EA99B69604478B8EF5CA26B99DB99","45a8d457-9960-4cfd-af3f-a882aa527ffa","23db58b9-63b0-4bce-8714-07ce439e665e","","null","<div style=""display: flex; justify-content: center; align-items: center;"">
                <img src=""images/causal/causal_series_6/causal_series_6_d.jpg"" style=""width: 300px; height: 300px;"" />
              </div>","null",""
"","","","","","html-keyboard-response","64","181677","0.0-44.0","C71EA99B69604478B8EF5CA26B99DB99","45a8d457-9960-4cfd-af3f-a882aa527ffa","23db58b9-63b0-4bce-8714-07ce439e665e","","null","<div style=""display: flex; justify-content: center; align-items: center;"">
                <img src=""images/other/blank.jpg"" style=""width: 300px; height: 300px;"" />
              </div>","null",""
"","","","","","html-keyboard-response","65","184691","0.0-45.0","C71EA99B69604478B8EF5CA26B99DB99","45a8d457-9960-4cfd-af3f-a882aa527ffa","23db58b9-63b0-4bce-8714-07ce439e665e","","null","<div style=""display: flex; justify-content: center; align-items: center;"">
                <img src=""images/causal/causal_series_9/causal_series_9_a.jpg"" style=""width: 300px; height: 300px;"" />
              </div>","null",""
"","","","","","html-button-response","66","185402","0.0-46.0","C71EA99B69604478B8EF5CA26B99DB99","45a8d457-9960-4cfd-af3f-a882aa527ffa","23db58b9-63b0-4bce-8714-07ce439e665e","","710","
    <div style=""display: flex; justify-content: center; align-items: center;"">
      <img src=""images/red_deck_2.png"" style=""width: 300px; height: 300px; margin-right: 10px;"" />
      <img src=""images/blue_deck_1.png"" style=""width: 300px; height: 300px;"" />
    </div>","0","0"
"","","","","","html-keyboard-response","67","188412","0.0-47.0-0.0-0.0","C71EA99B69604478B8EF5CA26B99DB99","45a8d457-9960-4cfd-af3f-a882aa527ffa","23db58b9-63b0-4bce-8714-07ce439e665e","","null","<div style=""display: flex; justify-content: center; align-items: center;"">
                <img src=""images/causal/causal_series_9/causal_series_9_b.jpg"" style=""width: 300px; height: 300px;"" />
              </div>","null",""
"","","","","","html-keyboard-response","68","191420","0.0-47.0-0.0-1.0","C71EA99B69604478B8EF5CA26B99DB99","45a8d457-9960-4cfd-af3f-a882aa527ffa","23db58b9-63b0-4bce-8714-07ce439e665e","","null","<div style=""display: flex; justify-content: center; align-items: center;"">
                <img src=""images/causal/causal_series_9/causal_series_9_c.jpg"" style=""width: 300px; height: 300px;"" />
              </div>","null",""
"","","","","","html-keyboard-response","69","194429","0.0-47.0-0.0-2.0","C71EA99B69604478B8EF5CA26B99DB99","45a8d457-9960-4cfd-af3f-a882aa527ffa","23db58b9-63b0-4bce-8714-07ce439e665e","","null","<div style=""display: flex; justify-content: center; align-items: center;"">
                <img src=""images/causal/causal_series_9/causal_series_9_d.jpg"" style=""width: 300px; height: 300px;"" />
              </div>","null",""
"","","","","","html-keyboard-response","70","197433","0.0-48.0","C71EA99B69604478B8EF5CA26B99DB99","45a8d457-9960-4cfd-af3f-a882aa527ffa","23db58b9-63b0-4bce-8714-07ce439e665e","","null","<div style=""display: flex; justify-content: center; align-items: center;"">
                <img src=""images/other/blank.jpg"" style=""width: 300px; height: 300px;"" />
              </div>","null",""
"","","","","","html-keyboard-response","71","200440","0.0-49.0","C71EA99B69604478B8EF5CA26B99DB99","45a8d457-9960-4cfd-af3f-a882aa527ffa","23db58b9-63b0-4bce-8714-07ce439e665e","","null","<div style=""display: flex; justify-content: center; align-items: center;"">
                <img src=""images/causal/causal_series_16/causal_series_16_a.jpg"" style=""width: 300px; height: 300px;"" />
              </div>","null",""
"","","","","","html-button-response","72","201907","0.0-50.0","C71EA99B69604478B8EF5CA26B99DB99","45a8d457-9960-4cfd-af3f-a882aa527ffa","23db58b9-63b0-4bce-8714-07ce439e665e","","1466","
    <div style=""display: flex; justify-content: center; align-items: center;"">
      <img src=""images/red_deck_2.png"" style=""width: 300px; height: 300px; margin-right: 10px;"" />
      <img src=""images/blue_deck_1.png"" style=""width: 300px; height: 300px;"" />
    </div>","0","0"
"","","","","","html-keyboard-response","73","204915","0.0-51.0-0.0-0.0","C71EA99B69604478B8EF5CA26B99DB99","45a8d457-9960-4cfd-af3f-a882aa527ffa","23db58b9-63b0-4bce-8714-07ce439e665e","","null","<div style=""display: flex; justify-content: center; align-items: center;"">
                <img src=""images/causal/causal_series_16/causal_series_16_b.jpg"" style=""width: 300px; height: 300px;"" />
              </div>","null",""
"","","","","","html-keyboard-response","74","207929","0.0-51.0-0.0-1.0","C71EA99B69604478B8EF5CA26B99DB99","45a8d457-9960-4cfd-af3f-a882aa527ffa","23db58b9-63b0-4bce-8714-07ce439e665e","","null","<div style=""display: flex; justify-content: center; align-items: center;"">
                <img src=""images/causal/causal_series_16/causal_series_16_c.jpg"" style=""width: 300px; height: 300px;"" />
              </div>","null",""
"","","","","","html-keyboard-response","75","210931","0.0-51.0-0.0-2.0","C71EA99B69604478B8EF5CA26B99DB99","45a8d457-9960-4cfd-af3f-a882aa527ffa","23db58b9-63b0-4bce-8714-07ce439e665e","","null","<div style=""display: flex; justify-content: center; align-items: center;"">
                <img src=""images/causal/causal_series_16/causal_series_16_d.jpg"" style=""width: 300px; height: 300px;"" />
              </div>","null",""
"","","","","","html-keyboard-response","76","213946","0.0-52.0","C71EA99B69604478B8EF5CA26B99DB99","45a8d457-9960-4cfd-af3f-a882aa527ffa","23db58b9-63b0-4bce-8714-07ce439e665e","","null","<div style=""display: flex; justify-content: center; align-items: center;"">
                <img src=""images/other/blank.jpg"" style=""width: 300px; height: 300px;"" />
              </div>","null",""
"","","","","","html-keyboard-response","77","216952","0.0-53.0","C71EA99B69604478B8EF5CA26B99DB99","45a8d457-9960-4cfd-af3f-a882aa527ffa","23db58b9-63b0-4bce-8714-07ce439e665e","","null","<div style=""display: flex; justify-content: center; align-items: center;"">
                <img src=""images/causal/causal_series_7/causal_series_7_a.jpg"" style=""width: 300px; height: 300px;"" />
              </div>","null",""
"","","","","","html-button-response","78","218653","0.0-54.0","C71EA99B69604478B8EF5CA26B99DB99","45a8d457-9960-4cfd-af3f-a882aa527ffa","23db58b9-63b0-4bce-8714-07ce439e665e","","1700","
    <div style=""display: flex; justify-content: center; align-items: center;"">
      <img src=""images/red_deck_2.png"" style=""width: 300px; height: 300px; margin-right: 10px;"" />
      <img src=""images/blue_deck_1.png"" style=""width: 300px; height: 300px;"" />
    </div>","1","1"
"","","","","","html-keyboard-response","79","221662","0.0-55.0-1.0-0.0","C71EA99B69604478B8EF5CA26B99DB99","45a8d457-9960-4cfd-af3f-a882aa527ffa","23db58b9-63b0-4bce-8714-07ce439e665e","","null","<div style=""display: flex; justify-content: center; align-items: center;"">
                <img src=""images/semantic/semantic_series_18/semantic_series_18_d.jpg"" style=""width: 300px; height: 300px;"" />
              </div>","null",""
"","","","","","html-keyboard-response","80","224675","0.0-55.0-1.0-1.0","C71EA99B69604478B8EF5CA26B99DB99","45a8d457-9960-4cfd-af3f-a882aa527ffa","23db58b9-63b0-4bce-8714-07ce439e665e","","null","<div style=""display: flex; justify-content: center; align-items: center;"">
                <img src=""images/semantic/semantic_series_1/semantic_series_1_d.jpg"" style=""width: 300px; height: 300px;"" />
              </div>","null",""
"","","","","","html-keyboard-response","81","227688","0.0-55.0-1.0-2.0","C71EA99B69604478B8EF5CA26B99DB99","45a8d457-9960-4cfd-af3f-a882aa527ffa","23db58b9-63b0-4bce-8714-07ce439e665e","","null","<div style=""display: flex; justify-content: center; align-items: center;"">
                <img src=""images/semantic/semantic_series_2/semantic_series_2_d.jpg"" style=""width: 300px; height: 300px;"" />
              </div>","null",""
"","","","","","html-keyboard-response","82","230698","0.0-56.0","C71EA99B69604478B8EF5CA26B99DB99","45a8d457-9960-4cfd-af3f-a882aa527ffa","23db58b9-63b0-4bce-8714-07ce439e665e","","null","<div style=""display: flex; justify-content: center; align-items: center;"">
                <img src=""images/other/blank.jpg"" style=""width: 300px; height: 300px;"" />
              </div>","null",""
"","","","","","html-keyboard-response","83","233702","0.0-57.0","C71EA99B69604478B8EF5CA26B99DB99","45a8d457-9960-4cfd-af3f-a882aa527ffa","23db58b9-63b0-4bce-8714-07ce439e665e","","null","<div style=""display: flex; justify-content: center; align-items: center;"">
                <img src=""images/causal/causal_series_17/causal_series_17_a.jpg"" style=""width: 300px; height: 300px;"" />
              </div>","null",""
"","","","","","html-button-response","84","235470","0.0-58.0","C71EA99B69604478B8EF5CA26B99DB99","45a8d457-9960-4cfd-af3f-a882aa527ffa","23db58b9-63b0-4bce-8714-07ce439e665e","","1768","
    <div style=""display: flex; justify-content: center; align-items: center;"">
      <img src=""images/red_deck_2.png"" style=""width: 300px; height: 300px; margin-right: 10px;"" />
      <img src=""images/blue_deck_1.png"" style=""width: 300px; height: 300px;"" />
    </div>","0","0"
"","","","","","html-keyboard-response","85","238482","0.0-59.0-0.0-0.0","C71EA99B69604478B8EF5CA26B99DB99","45a8d457-9960-4cfd-af3f-a882aa527ffa","23db58b9-63b0-4bce-8714-07ce439e665e","","null","<div style=""display: flex; justify-content: center; align-items: center;"">
                <img src=""images/causal/causal_series_17/causal_series_17_b.jpg"" style=""width: 300px; height: 300px;"" />
              </div>","null",""
"","","","","","html-keyboard-response","86","241486","0.0-59.0-0.0-1.0","C71EA99B69604478B8EF5CA26B99DB99","45a8d457-9960-4cfd-af3f-a882aa527ffa","23db58b9-63b0-4bce-8714-07ce439e665e","","null","<div style=""display: flex; justify-content: center; align-items: center;"">
                <img src=""images/causal/causal_series_17/causal_series_17_c.jpg"" style=""width: 300px; height: 300px;"" />
              </div>","null",""
"","","","","","html-keyboard-response","87","244492","0.0-59.0-0.0-2.0","C71EA99B69604478B8EF5CA26B99DB99","45a8d457-9960-4cfd-af3f-a882aa527ffa","23db58b9-63b0-4bce-8714-07ce439e665e","","null","<div style=""display: flex; justify-content: center; align-items: center;"">
                <img src=""images/causal/causal_series_17/causal_series_17_d.jpg"" style=""width: 300px; height: 300px;"" />
              </div>","null",""
"","","","","","html-keyboard-response","88","247503","0.0-60.0","C71EA99B69604478B8EF5CA26B99DB99","45a8d457-9960-4cfd-af3f-a882aa527ffa","23db58b9-63b0-4bce-8714-07ce439e665e","","null","<div style=""display: flex; justify-content: center; align-items: center;"">
                <img src=""images/other/blank.jpg"" style=""width: 300px; height: 300px;"" />
              </div>","null",""
"","","","","","html-keyboard-response","89","250515","0.0-61.0","C71EA99B69604478B8EF5CA26B99DB99","45a8d457-9960-4cfd-af3f-a882aa527ffa","23db58b9-63b0-4bce-8714-07ce439e665e","","null","<div style=""display: flex; justify-content: center; align-items: center;"">
                <img src=""images/causal/causal_series_1/causal_series_1_a.jpg"" style=""width: 300px; height: 300px;"" />
              </div>","null",""
"","","","","","html-button-response","90","252008","0.0-62.0","C71EA99B69604478B8EF5CA26B99DB99","45a8d457-9960-4cfd-af3f-a882aa527ffa","23db58b9-63b0-4bce-8714-07ce439e665e","","1492","
    <div style=""display: flex; justify-content: center; align-items: center;"">
      <img src=""images/red_deck_2.png"" style=""width: 300px; height: 300px; margin-right: 10px;"" />
      <img src=""images/blue_deck_1.png"" style=""width: 300px; height: 300px;"" />
    </div>","0","0"
"","","","","","html-keyboard-response","91","255022","0.0-63.0-0.0-0.0","C71EA99B69604478B8EF5CA26B99DB99","45a8d457-9960-4cfd-af3f-a882aa527ffa","23db58b9-63b0-4bce-8714-07ce439e665e","","null","<div style=""display: flex; justify-content: center; align-items: center;"">
                <img src=""images/causal/causal_series_1/causal_series_1_b.jpg"" style=""width: 300px; height: 300px;"" />
              </div>","null",""
"","","","","","html-keyboard-response","92","258034","0.0-63.0-0.0-1.0","C71EA99B69604478B8EF5CA26B99DB99","45a8d457-9960-4cfd-af3f-a882aa527ffa","23db58b9-63b0-4bce-8714-07ce439e665e","","null","<div style=""display: flex; justify-content: center; align-items: center;"">
                <img src=""images/causal/causal_series_1/causal_series_1_c.jpg"" style=""width: 300px; height: 300px;"" />
              </div>","null",""
"","","","","","html-keyboard-response","93","261045","0.0-63.0-0.0-2.0","C71EA99B69604478B8EF5CA26B99DB99","45a8d457-9960-4cfd-af3f-a882aa527ffa","23db58b9-63b0-4bce-8714-07ce439e665e","","null","<div style=""display: flex; justify-content: center; align-items: center;"">
                <img src=""images/causal/causal_series_1/causal_series_1_d.jpg"" style=""width: 300px; height: 300px;"" />
              </div>","null",""
"","","","","","html-keyboard-response","94","264058","0.0-64.0","C71EA99B69604478B8EF5CA26B99DB99","45a8d457-9960-4cfd-af3f-a882aa527ffa","23db58b9-63b0-4bce-8714-07ce439e665e","","null","<div style=""display: flex; justify-content: center; align-items: center;"">
                <img src=""images/other/blank.jpg"" style=""width: 300px; height: 300px;"" />
              </div>","null",""
"","","","","","html-keyboard-response","95","267073","0.0-65.0","C71EA99B69604478B8EF5CA26B99DB99","45a8d457-9960-4cfd-af3f-a882aa527ffa","23db58b9-63b0-4bce-8714-07ce439e665e","","null","<div style=""display: flex; justify-content: center; align-items: center;"">
                <img src=""images/causal/causal_series_2/causal_series_2_a.jpg"" style=""width: 300px; height: 300px;"" />
              </div>","null",""
"","","","","","html-button-response","96","268586","0.0-66.0","C71EA99B69604478B8EF5CA26B99DB99","45a8d457-9960-4cfd-af3f-a882aa527ffa","23db58b9-63b0-4bce-8714-07ce439e665e","","1513","
    <div style=""display: flex; justify-content: center; align-items: center;"">
      <img src=""images/red_deck_2.png"" style=""width: 300px; height: 300px; margin-right: 10px;"" />
      <img src=""images/blue_deck_1.png"" style=""width: 300px; height: 300px;"" />
    </div>","0","0"
"","","","","","html-keyboard-response","97","271602","0.0-67.0-0.0-0.0","C71EA99B69604478B8EF5CA26B99DB99","45a8d457-9960-4cfd-af3f-a882aa527ffa","23db58b9-63b0-4bce-8714-07ce439e665e","","null","<div style=""display: flex; justify-content: center; align-items: center;"">
                <img src=""images/causal/causal_series_2/causal_series_2_b.jpg"" style=""width: 300px; height: 300px;"" />
              </div>","null",""
"","","","","","html-keyboard-response","98","274613","0.0-67.0-0.0-1.0","C71EA99B69604478B8EF5CA26B99DB99","45a8d457-9960-4cfd-af3f-a882aa527ffa","23db58b9-63b0-4bce-8714-07ce439e665e","","null","<div style=""display: flex; justify-content: center; align-items: center;"">
                <img src=""images/causal/causal_series_2/causal_series_2_c.jpg"" style=""width: 300px; height: 300px;"" />
              </div>","null",""
"","","","","","html-keyboard-response","99","277627","0.0-67.0-0.0-2.0","C71EA99B69604478B8EF5CA26B99DB99","45a8d457-9960-4cfd-af3f-a882aa527ffa","23db58b9-63b0-4bce-8714-07ce439e665e","","null","<div style=""display: flex; justify-content: center; align-items: center;"">
                <img src=""images/causal/causal_series_2/causal_series_2_d.jpg"" style=""width: 300px; height: 300px;"" />
              </div>","null",""
"","","","","","html-keyboard-response","100","280643","0.0-68.0","C71EA99B69604478B8EF5CA26B99DB99","45a8d457-9960-4cfd-af3f-a882aa527ffa","23db58b9-63b0-4bce-8714-07ce439e665e","","null","<div style=""display: flex; justify-content: center; align-items: center;"">
                <img src=""images/other/blank.jpg"" style=""width: 300px; height: 300px;"" />
              </div>","null",""
"","","","","","html-keyboard-response","101","283651","0.0-69.0","C71EA99B69604478B8EF5CA26B99DB99","45a8d457-9960-4cfd-af3f-a882aa527ffa","23db58b9-63b0-4bce-8714-07ce439e665e","","null","<div style=""display: flex; justify-content: center; align-items: center;"">
                <img src=""images/causal/causal_series_14/causal_series_14_a.jpg"" style=""width: 300px; height: 300px;"" />
              </div>","null",""
"","","","","","html-button-response","102","285547","0.0-70.0","C71EA99B69604478B8EF5CA26B99DB99","45a8d457-9960-4cfd-af3f-a882aa527ffa","23db58b9-63b0-4bce-8714-07ce439e665e","","1895","
    <div style=""display: flex; justify-content: center; align-items: center;"">
      <img src=""images/red_deck_2.png"" style=""width: 300px; height: 300px; margin-right: 10px;"" />
      <img src=""images/blue_deck_1.png"" style=""width: 300px; height: 300px;"" />
    </div>","1","1"
"","","","","","html-keyboard-response","103","288556","0.0-71.0-1.0-0.0","C71EA99B69604478B8EF5CA26B99DB99","45a8d457-9960-4cfd-af3f-a882aa527ffa","23db58b9-63b0-4bce-8714-07ce439e665e","","null","<div style=""display: flex; justify-content: center; align-items: center;"">
                <img src=""images/semantic/semantic_series_3/semantic_series_3_d.jpg"" style=""width: 300px; height: 300px;"" />
              </div>","null",""
"","","","","","html-keyboard-response","104","291566","0.0-71.0-1.0-1.0","C71EA99B69604478B8EF5CA26B99DB99","45a8d457-9960-4cfd-af3f-a882aa527ffa","23db58b9-63b0-4bce-8714-07ce439e665e","","null","<div style=""display: flex; justify-content: center; align-items: center;"">
                <img src=""images/semantic/semantic_series_4/semantic_series_4_d.jpg"" style=""width: 300px; height: 300px;"" />
              </div>","null",""
"","","","","","html-keyboard-response","105","294575","0.0-71.0-1.0-2.0","C71EA99B69604478B8EF5CA26B99DB99","45a8d457-9960-4cfd-af3f-a882aa527ffa","23db58b9-63b0-4bce-8714-07ce439e665e","","null","<div style=""display: flex; justify-content: center; align-items: center;"">
                <img src=""images/semantic/semantic_series_5/semantic_series_5_d.jpg"" style=""width: 300px; height: 300px;"" />
              </div>","null",""
"","","","","","html-keyboard-response","106","297586","0.0-72.0","C71EA99B69604478B8EF5CA26B99DB99","45a8d457-9960-4cfd-af3f-a882aa527ffa","23db58b9-63b0-4bce-8714-07ce439e665e","","null","<div style=""display: flex; justify-content: center; align-items: center;"">
                <img src=""images/other/blank.jpg"" style=""width: 300px; height: 300px;"" />
              </div>","null",""
"","","","","","html-keyboard-response","107","300597","0.0-73.0","C71EA99B69604478B8EF5CA26B99DB99","45a8d457-9960-4cfd-af3f-a882aa527ffa","23db58b9-63b0-4bce-8714-07ce439e665e","","null","<div style=""display: flex; justify-content: center; align-items: center;"">
                <img src=""images/causal/causal_series_10/causal_series_10_a.jpg"" style=""width: 300px; height: 300px;"" />
              </div>","null",""
"","","","","","html-button-response","108","302069","0.0-74.0","C71EA99B69604478B8EF5CA26B99DB99","45a8d457-9960-4cfd-af3f-a882aa527ffa","23db58b9-63b0-4bce-8714-07ce439e665e","","1471","
    <div style=""display: flex; justify-content: center; align-items: center;"">
      <img src=""images/red_deck_2.png"" style=""width: 300px; height: 300px; margin-right: 10px;"" />
      <img src=""images/blue_deck_1.png"" style=""width: 300px; height: 300px;"" />
    </div>","1","1"
"","","","","","html-keyboard-response","109","305082","0.0-75.0-1.0-0.0","C71EA99B69604478B8EF5CA26B99DB99","45a8d457-9960-4cfd-af3f-a882aa527ffa","23db58b9-63b0-4bce-8714-07ce439e665e","","null","<div style=""display: flex; justify-content: center; align-items: center;"">
                <img src=""images/semantic/semantic_series_9/semantic_series_9_d.jpg"" style=""width: 300px; height: 300px;"" />
              </div>","null",""
"","","","","","html-keyboard-response","110","308089","0.0-75.0-1.0-1.0","C71EA99B69604478B8EF5CA26B99DB99","45a8d457-9960-4cfd-af3f-a882aa527ffa","23db58b9-63b0-4bce-8714-07ce439e665e","","null","<div style=""display: flex; justify-content: center; align-items: center;"">
                <img src=""images/semantic/semantic_series_10/semantic_series_10_d.jpg"" style=""width: 300px; height: 300px;"" />
              </div>","null",""
"","","","","","html-keyboard-response","111","311090","0.0-75.0-1.0-2.0","C71EA99B69604478B8EF5CA26B99DB99","45a8d457-9960-4cfd-af3f-a882aa527ffa","23db58b9-63b0-4bce-8714-07ce439e665e","","null","<div style=""display: flex; justify-content: center; align-items: center;"">
                <img src=""images/semantic/semantic_series_11/semantic_series_11_d.jpg"" style=""width: 300px; height: 300px;"" />
              </div>","null",""
"","","","","","html-keyboard-response","112","314099","0.0-76.0","C71EA99B69604478B8EF5CA26B99DB99","45a8d457-9960-4cfd-af3f-a882aa527ffa","23db58b9-63b0-4bce-8714-07ce439e665e","","null","<div style=""display: flex; justify-content: center; align-items: center;"">
                <img src=""images/other/blank.jpg"" style=""width: 300px; height: 300px;"" />
              </div>","null",""
"","","","","","survey-text","113","339089","0.0-77.0","C71EA99B69604478B8EF5CA26B99DB99","45a8d457-9960-4cfd-af3f-a882aa527ffa","23db58b9-63b0-4bce-8714-07ce439e665e","","24987","","{""Q0"":""one is red the other is blue.""}",""
"","","","","","survey-text","114","345586","0.0-78.0","C71EA99B69604478B8EF5CA26B99DB99","45a8d457-9960-4cfd-af3f-a882aa527ffa","23db58b9-63b0-4bce-8714-07ce439e665e","","6494","","{""Q0"":""blue""}",""
"","","","","","html-button-response","115","354922","0.0-79.0","C71EA99B69604478B8EF5CA26B99DB99","45a8d457-9960-4cfd-af3f-a882aa527ffa","23db58b9-63b0-4bce-8714-07ce439e665e","","9336","Which color deck does the fourth image continue the story from the series?","1",""
"","","","","","html-button-response","116","358138","0.0-80.0","C71EA99B69604478B8EF5CA26B99DB99","45a8d457-9960-4cfd-af3f-a882aa527ffa","23db58b9-63b0-4bce-8714-07ce439e665e","","3216","Which color deck does the fourth image not follow the story from the series?","1",""
"","","","","","survey-text","117","370590","0.0-81.0","C71EA99B69604478B8EF5CA26B99DB99","45a8d457-9960-4cfd-af3f-a882aa527ffa","23db58b9-63b0-4bce-8714-07ce439e665e","","12449","","{""Q0"":""MALE"",""Q1"":""33""}",""
"","","","","","instructions","118","430722","0.0-82.0","C71EA99B69604478B8EF5CA26B99DB99","45a8d457-9960-4cfd-af3f-a882aa527ffa","23db58b9-63b0-4bce-8714-07ce439e665e","[{""page_index"":0,""viewing_time"":60131}]","60131","","",""
