"success","timeout","failed_images","failed_audio","failed_video","trial_type","trial_index","time_elapsed","internal_node_id","subject_id","study_id","session_id","view_history","rt","stimulus","response","series","repetition","phase","choice","question_order"
"true","false","[]","[]","[]","preload","0","1269","0.0-0.0","5BAB0A1BA15A465CB8D7448D7AA9E8FE","0199d5f1-42fb-7d22-bfdf-1dd6da1195c0","0199d5ef-c7d4-7cab-a194-b2c3afbaf8e8","","","","","","","","",""
"","","","","","instructions","1","3274","0.0-1.0","5BAB0A1BA15A465CB8D7448D7AA9E8FE","0199d5f1-42fb-7d22-bfdf-1dd6da1195c0","0199d5ef-c7d4-7cab-a194-b2c3afbaf8e8","[{""page_index"":0,""viewing_time"":2003}]","2004","","","","","","",""
"","","","","","instructions","2","20743","0.0-2.0","5BAB0A1BA15A465CB8D7448D7AA9E8FE","0199d5f1-42fb-7d22-bfdf-1dd6da1195c0","0199d5ef-c7d4-7cab-a194-b2c3afbaf8e8","[{""page_index"":0,""viewing_time"":17467}]","17467","","","","","","",""
"true","","","","","fullscreen","3","24961","0.0-3.0","5BAB0A1BA15A465CB8D7448D7AA9E8FE","0199d5f1-42fb-7d22-bfdf-1dd6da1195c0","0199d5ef-c7d4-7cab-a194-b2c3afbaf8e8","","3207","","","","","","",""
"","","","","","instructions","4","108683","0.0-4.0","5BAB0A1BA15A465CB8D7448D7AA9E8FE","0199d5f1-42fb-7d22-bfdf-1dd6da1195c0","0199d5ef-c7d4-7cab-a194-b2c3afbaf8e8","[{""page_index"":0,""viewing_time"":83718}]","83718","","","","","","",""
"","","","","","html-keyboard-response","5","114710","0.0-5.0","5BAB0A1BA15A465CB8D7448D7AA9E8FE","0199d5f1-42fb-7d22-bfdf-1dd6da1195c0","0199d5ef-c7d4-7cab-a194-b2c3afbaf8e8","","null","<div style=""display: flex; justify-content: center; align-items: center;"">
                     <img src=""images/causal/causal_series_6/causal_series_6_a.png"" style=""width: 300px; height: 300px;"" />
                   </div>","null","6","1","A","",""
"","","","","","html-keyboard-response","6","121028","0.0-6.0","5BAB0A1BA15A465CB8D7448D7AA9E8FE","0199d5f1-42fb-7d22-bfdf-1dd6da1195c0","0199d5ef-c7d4-7cab-a194-b2c3afbaf8e8","","null","<div style=""display: flex; justify-content: center; align-items: center;"">
                     <img src=""images/causal/causal_series_6/causal_series_6_b.png"" style=""width: 300px; height: 300px;"" />
                   </div>","null","6","1","B","",""
"","","","","","html-keyboard-response","7","127257","0.0-7.0","5BAB0A1BA15A465CB8D7448D7AA9E8FE","0199d5f1-42fb-7d22-bfdf-1dd6da1195c0","0199d5ef-c7d4-7cab-a194-b2c3afbaf8e8","","null","<div style=""display: flex; justify-content: center; align-items: center;"">
                     <img src=""images/causal/causal_series_6/causal_series_6_c.png"" style=""width: 300px; height: 300px;"" />
                   </div>","null","6","1","C","",""
"","","","","","html-button-response","8","130219","0.0-8.0","5BAB0A1BA15A465CB8D7448D7AA9E8FE","0199d5f1-42fb-7d22-bfdf-1dd6da1195c0","0199d5ef-c7d4-7cab-a194-b2c3afbaf8e8","","2959","
        <div style=""display: flex; justify-content: center; align-items: center;"">
          <img src=""images/red_deck_2.png"" style=""width: 300px; height: 300px; margin-right: 10px;"" />
          <img src=""images/blue_deck_1.png"" style=""width: 300px; height: 300px;"" />
        </div>","1","6","1","choice","1",""
"","","","","","html-keyboard-response","9","136230","0.0-9.0-1.0-0.0","5BAB0A1BA15A465CB8D7448D7AA9E8FE","0199d5f1-42fb-7d22-bfdf-1dd6da1195c0","0199d5ef-c7d4-7cab-a194-b2c3afbaf8e8","","null","<div style=""display: flex; justify-content: center; align-items: center;"">
                     <img src=""images/semantic/semantic_series_6/semantic_series_6_d.png"" style=""width: 300px; height: 300px;"" />
                   </div>","null","6","1","D","",""
"","","","","","html-keyboard-response","10","142236","0.0-9.0-1.0-1.0","5BAB0A1BA15A465CB8D7448D7AA9E8FE","0199d5f1-42fb-7d22-bfdf-1dd6da1195c0","0199d5ef-c7d4-7cab-a194-b2c3afbaf8e8","","null","<div style=""display: flex; justify-content: center; align-items: center;"">
                     <img src=""images/semantic/semantic_series_6/semantic_series_6_e.png"" style=""width: 300px; height: 300px;"" />
                   </div>","null","6","1","E","",""
"","","","","","html-keyboard-response","11","148751","0.0-9.0-1.0-2.0","5BAB0A1BA15A465CB8D7448D7AA9E8FE","0199d5f1-42fb-7d22-bfdf-1dd6da1195c0","0199d5ef-c7d4-7cab-a194-b2c3afbaf8e8","","null","<div style=""display: flex; justify-content: center; align-items: center;"">
                     <img src=""images/semantic/semantic_series_6/semantic_series_6_f.png"" style=""width: 300px; height: 300px;"" />
                   </div>","null","6","1","F","",""
"","","","","","survey-likert","12","152879","0.0-10.0","5BAB0A1BA15A465CB8D7448D7AA9E8FE","0199d5f1-42fb-7d22-bfdf-1dd6da1195c0","0199d5ef-c7d4-7cab-a194-b2c3afbaf8e8","","4126","","{""Q0"":3}","6","1","surprise_rating","","[0]"
"","","","","","survey-likert","13","154908","0.0-11.0","5BAB0A1BA15A465CB8D7448D7AA9E8FE","0199d5f1-42fb-7d22-bfdf-1dd6da1195c0","0199d5ef-c7d4-7cab-a194-b2c3afbaf8e8","","2026","","{""Q0"":2}","6","1","enjoyment_rating","","[0]"
"","","","","","html-keyboard-response","14","160992","0.0-12.0","5BAB0A1BA15A465CB8D7448D7AA9E8FE","0199d5f1-42fb-7d22-bfdf-1dd6da1195c0","0199d5ef-c7d4-7cab-a194-b2c3afbaf8e8","","null","<div style=""display: flex; justify-content: center; align-items: center;"">
                     <img src=""images/other/blank.png"" style=""width: 300px; height: 300px;"" />
                   </div>","null","0","0","blank","",""
"","","","","","html-keyboard-response","15","167002","0.0-13.0","5BAB0A1BA15A465CB8D7448D7AA9E8FE","0199d5f1-42fb-7d22-bfdf-1dd6da1195c0","0199d5ef-c7d4-7cab-a194-b2c3afbaf8e8","","null","<div style=""display: flex; justify-content: center; align-items: center;"">
                     <img src=""images/causal/causal_series_2/causal_series_2_a.png"" style=""width: 300px; height: 300px;"" />
                   </div>","null","2","2","A","",""
"","","","","","html-keyboard-response","16","173016","0.0-14.0","5BAB0A1BA15A465CB8D7448D7AA9E8FE","0199d5f1-42fb-7d22-bfdf-1dd6da1195c0","0199d5ef-c7d4-7cab-a194-b2c3afbaf8e8","","null","<div style=""display: flex; justify-content: center; align-items: center;"">
                     <img src=""images/causal/causal_series_2/causal_series_2_b.png"" style=""width: 300px; height: 300px;"" />
                   </div>","null","2","2","B","",""
"","","","","","html-keyboard-response","17","179017","0.0-15.0","5BAB0A1BA15A465CB8D7448D7AA9E8FE","0199d5f1-42fb-7d22-bfdf-1dd6da1195c0","0199d5ef-c7d4-7cab-a194-b2c3afbaf8e8","","null","<div style=""display: flex; justify-content: center; align-items: center;"">
                     <img src=""images/causal/causal_series_2/causal_series_2_c.png"" style=""width: 300px; height: 300px;"" />
                   </div>","null","2","2","C","",""
"","","","","","html-button-response","18","182357","0.0-16.0","5BAB0A1BA15A465CB8D7448D7AA9E8FE","0199d5f1-42fb-7d22-bfdf-1dd6da1195c0","0199d5ef-c7d4-7cab-a194-b2c3afbaf8e8","","3340","
        <div style=""display: flex; justify-content: center; align-items: center;"">
          <img src=""images/red_deck_2.png"" style=""width: 300px; height: 300px; margin-right: 10px;"" />
          <img src=""images/blue_deck_1.png"" style=""width: 300px; height: 300px;"" />
        </div>","0","2","2","choice","0",""
"","","","","","html-keyboard-response","19","188364","0.0-17.0-0.0-0.0","5BAB0A1BA15A465CB8D7448D7AA9E8FE","0199d5f1-42fb-7d22-bfdf-1dd6da1195c0","0199d5ef-c7d4-7cab-a194-b2c3afbaf8e8","","null","<div style=""display: flex; justify-content: center; align-items: center;"">
                     <img src=""images/causal/causal_series_2/causal_series_2_d.png"" style=""width: 300px; height: 300px;"" />
                   </div>","null","2","2","D","",""
"","","","","","html-keyboard-response","20","194374","0.0-17.0-0.0-1.0","5BAB0A1BA15A465CB8D7448D7AA9E8FE","0199d5f1-42fb-7d22-bfdf-1dd6da1195c0","0199d5ef-c7d4-7cab-a194-b2c3afbaf8e8","","null","<div style=""display: flex; justify-content: center; align-items: center;"">
                     <img src=""images/causal/causal_series_2/causal_series_2_e.png"" style=""width: 300px; height: 300px;"" />
                   </div>","null","2","2","E","",""
"","","","","","html-keyboard-response","21","200391","0.0-17.0-0.0-2.0","5BAB0A1BA15A465CB8D7448D7AA9E8FE","0199d5f1-42fb-7d22-bfdf-1dd6da1195c0","0199d5ef-c7d4-7cab-a194-b2c3afbaf8e8","","null","<div style=""display: flex; justify-content: center; align-items: center;"">
                     <img src=""images/causal/causal_series_2/causal_series_2_f.png"" style=""width: 300px; height: 300px;"" />
                   </div>","null","2","2","F","",""
"","","","","","survey-likert","22","205443","0.0-18.0","5BAB0A1BA15A465CB8D7448D7AA9E8FE","0199d5f1-42fb-7d22-bfdf-1dd6da1195c0","0199d5ef-c7d4-7cab-a194-b2c3afbaf8e8","","5051","","{""Q0"":3}","2","2","surprise_rating","","[0]"
"","","","","","survey-likert","23","208199","0.0-19.0","5BAB0A1BA15A465CB8D7448D7AA9E8FE","0199d5f1-42fb-7d22-bfdf-1dd6da1195c0","0199d5ef-c7d4-7cab-a194-b2c3afbaf8e8","","2753","","{""Q0"":1}","2","2","enjoyment_rating","","[0]"
"","","","","","html-keyboard-response","24","214216","0.0-20.0","5BAB0A1BA15A465CB8D7448D7AA9E8FE","0199d5f1-42fb-7d22-bfdf-1dd6da1195c0","0199d5ef-c7d4-7cab-a194-b2c3afbaf8e8","","null","<div style=""display: flex; justify-content: center; align-items: center;"">
                     <img src=""images/other/blank.png"" style=""width: 300px; height: 300px;"" />
                   </div>","null","0","0","blank","",""
"","","","","","html-keyboard-response","25","220229","0.0-21.0","5BAB0A1BA15A465CB8D7448D7AA9E8FE","0199d5f1-42fb-7d22-bfdf-1dd6da1195c0","0199d5ef-c7d4-7cab-a194-b2c3afbaf8e8","","null","<div style=""display: flex; justify-content: center; align-items: center;"">
                     <img src=""images/causal/causal_series_7/causal_series_7_a.png"" style=""width: 300px; height: 300px;"" />
                   </div>","null","7","1","A","",""
"","","","","","html-keyboard-response","26","226244","0.0-22.0","5BAB0A1BA15A465CB8D7448D7AA9E8FE","0199d5f1-42fb-7d22-bfdf-1dd6da1195c0","0199d5ef-c7d4-7cab-a194-b2c3afbaf8e8","","null","<div style=""display: flex; justify-content: center; align-items: center;"">
                     <img src=""images/causal/causal_series_7/causal_series_7_b.png"" style=""width: 300px; height: 300px;"" />
                   </div>","null","7","1","B","",""
"","","","","","html-keyboard-response","27","232281","0.0-23.0","5BAB0A1BA15A465CB8D7448D7AA9E8FE","0199d5f1-42fb-7d22-bfdf-1dd6da1195c0","0199d5ef-c7d4-7cab-a194-b2c3afbaf8e8","","null","<div style=""display: flex; justify-content: center; align-items: center;"">
                     <img src=""images/causal/causal_series_7/causal_series_7_c.png"" style=""width: 300px; height: 300px;"" />
                   </div>","null","7","1","C","",""
"","","","","","html-button-response","28","236101","0.0-24.0","5BAB0A1BA15A465CB8D7448D7AA9E8FE","0199d5f1-42fb-7d22-bfdf-1dd6da1195c0","0199d5ef-c7d4-7cab-a194-b2c3afbaf8e8","","3819","
        <div style=""display: flex; justify-content: center; align-items: center;"">
          <img src=""images/red_deck_2.png"" style=""width: 300px; height: 300px; margin-right: 10px;"" />
          <img src=""images/blue_deck_1.png"" style=""width: 300px; height: 300px;"" />
        </div>","1","7","1","choice","1",""
"","","","","","html-keyboard-response","29","242537","0.0-25.0-1.0-0.0","5BAB0A1BA15A465CB8D7448D7AA9E8FE","0199d5f1-42fb-7d22-bfdf-1dd6da1195c0","0199d5ef-c7d4-7cab-a194-b2c3afbaf8e8","","null","<div style=""display: flex; justify-content: center; align-items: center;"">
                     <img src=""images/semantic/semantic_series_7/semantic_series_7_d.png"" style=""width: 300px; height: 300px;"" />
                   </div>","null","7","1","D","",""
"","","","","","html-keyboard-response","30","248545","0.0-25.0-1.0-1.0","5BAB0A1BA15A465CB8D7448D7AA9E8FE","0199d5f1-42fb-7d22-bfdf-1dd6da1195c0","0199d5ef-c7d4-7cab-a194-b2c3afbaf8e8","","null","<div style=""display: flex; justify-content: center; align-items: center;"">
                     <img src=""images/semantic/semantic_series_7/semantic_series_7_e.png"" style=""width: 300px; height: 300px;"" />
                   </div>","null","7","1","E","",""
"","","","","","html-keyboard-response","31","254658","0.0-25.0-1.0-2.0","5BAB0A1BA15A465CB8D7448D7AA9E8FE","0199d5f1-42fb-7d22-bfdf-1dd6da1195c0","0199d5ef-c7d4-7cab-a194-b2c3afbaf8e8","","null","<div style=""display: flex; justify-content: center; align-items: center;"">
                     <img src=""images/semantic/semantic_series_7/semantic_series_7_f.png"" style=""width: 300px; height: 300px;"" />
                   </div>","null","7","1","F","",""
"","","","","","survey-likert","32","256348","0.0-26.0","5BAB0A1BA15A465CB8D7448D7AA9E8FE","0199d5f1-42fb-7d22-bfdf-1dd6da1195c0","0199d5ef-c7d4-7cab-a194-b2c3afbaf8e8","","1688","","{""Q0"":4}","7","1","surprise_rating","","[0]"
"","","","","","survey-likert","33","258253","0.0-27.0","5BAB0A1BA15A465CB8D7448D7AA9E8FE","0199d5f1-42fb-7d22-bfdf-1dd6da1195c0","0199d5ef-c7d4-7cab-a194-b2c3afbaf8e8","","1902","","{""Q0"":3}","7","1","enjoyment_rating","","[0]"
"","","","","","html-keyboard-response","34","264734","0.0-28.0","5BAB0A1BA15A465CB8D7448D7AA9E8FE","0199d5f1-42fb-7d22-bfdf-1dd6da1195c0","0199d5ef-c7d4-7cab-a194-b2c3afbaf8e8","","null","<div style=""display: flex; justify-content: center; align-items: center;"">
                     <img src=""images/other/blank.png"" style=""width: 300px; height: 300px;"" />
                   </div>","null","0","0","blank","",""
"","","","","","html-keyboard-response","35","270814","0.0-29.0","5BAB0A1BA15A465CB8D7448D7AA9E8FE","0199d5f1-42fb-7d22-bfdf-1dd6da1195c0","0199d5ef-c7d4-7cab-a194-b2c3afbaf8e8","","null","<div style=""display: flex; justify-content: center; align-items: center;"">
                     <img src=""images/causal/causal_series_9/causal_series_9_a.png"" style=""width: 300px; height: 300px;"" />
                   </div>","null","9","2","A","",""
"","","","","","html-keyboard-response","36","276825","0.0-30.0","5BAB0A1BA15A465CB8D7448D7AA9E8FE","0199d5f1-42fb-7d22-bfdf-1dd6da1195c0","0199d5ef-c7d4-7cab-a194-b2c3afbaf8e8","","null","<div style=""display: flex; justify-content: center; align-items: center;"">
                     <img src=""images/causal/causal_series_9/causal_series_9_b.png"" style=""width: 300px; height: 300px;"" />
                   </div>","null","9","2","B","",""
"","","","","","html-keyboard-response","37","282832","0.0-31.0","5BAB0A1BA15A465CB8D7448D7AA9E8FE","0199d5f1-42fb-7d22-bfdf-1dd6da1195c0","0199d5ef-c7d4-7cab-a194-b2c3afbaf8e8","","null","<div style=""display: flex; justify-content: center; align-items: center;"">
                     <img src=""images/causal/causal_series_9/causal_series_9_c.png"" style=""width: 300px; height: 300px;"" />
                   </div>","null","9","2","C","",""
"","","","","","html-button-response","38","284989","0.0-32.0","5BAB0A1BA15A465CB8D7448D7AA9E8FE","0199d5f1-42fb-7d22-bfdf-1dd6da1195c0","0199d5ef-c7d4-7cab-a194-b2c3afbaf8e8","","2156","
        <div style=""display: flex; justify-content: center; align-items: center;"">
          <img src=""images/red_deck_2.png"" style=""width: 300px; height: 300px; margin-right: 10px;"" />
          <img src=""images/blue_deck_1.png"" style=""width: 300px; height: 300px;"" />
        </div>","0","9","2","choice","0",""
"","","","","","html-keyboard-response","39","290991","0.0-33.0-0.0-0.0","5BAB0A1BA15A465CB8D7448D7AA9E8FE","0199d5f1-42fb-7d22-bfdf-1dd6da1195c0","0199d5ef-c7d4-7cab-a194-b2c3afbaf8e8","","null","<div style=""display: flex; justify-content: center; align-items: center;"">
                     <img src=""images/causal/causal_series_9/causal_series_9_d.png"" style=""width: 300px; height: 300px;"" />
                   </div>","null","9","2","D","",""
"","","","","","html-keyboard-response","40","296999","0.0-33.0-0.0-1.0","5BAB0A1BA15A465CB8D7448D7AA9E8FE","0199d5f1-42fb-7d22-bfdf-1dd6da1195c0","0199d5ef-c7d4-7cab-a194-b2c3afbaf8e8","","null","<div style=""display: flex; justify-content: center; align-items: center;"">
                     <img src=""images/causal/causal_series_9/causal_series_9_e.png"" style=""width: 300px; height: 300px;"" />
                   </div>","null","9","2","E","",""
"","","","","","html-keyboard-response","41","303011","0.0-33.0-0.0-2.0","5BAB0A1BA15A465CB8D7448D7AA9E8FE","0199d5f1-42fb-7d22-bfdf-1dd6da1195c0","0199d5ef-c7d4-7cab-a194-b2c3afbaf8e8","","null","<div style=""display: flex; justify-content: center; align-items: center;"">
                     <img src=""images/causal/causal_series_9/causal_series_9_f.png"" style=""width: 300px; height: 300px;"" />
                   </div>","null","9","2","F","",""
"","","","","","survey-likert","42","307461","0.0-34.0","5BAB0A1BA15A465CB8D7448D7AA9E8FE","0199d5f1-42fb-7d22-bfdf-1dd6da1195c0","0199d5ef-c7d4-7cab-a194-b2c3afbaf8e8","","4449","","{""Q0"":0}","9","2","surprise_rating","","[0]"
"","","","","","survey-likert","43","309788","0.0-35.0","5BAB0A1BA15A465CB8D7448D7AA9E8FE","0199d5f1-42fb-7d22-bfdf-1dd6da1195c0","0199d5ef-c7d4-7cab-a194-b2c3afbaf8e8","","2323","","{""Q0"":3}","9","2","enjoyment_rating","","[0]"
"","","","","","html-keyboard-response","44","315820","0.0-36.0","5BAB0A1BA15A465CB8D7448D7AA9E8FE","0199d5f1-42fb-7d22-bfdf-1dd6da1195c0","0199d5ef-c7d4-7cab-a194-b2c3afbaf8e8","","null","<div style=""display: flex; justify-content: center; align-items: center;"">
                     <img src=""images/other/blank.png"" style=""width: 300px; height: 300px;"" />
                   </div>","null","0","0","blank","",""
"","","","","","html-keyboard-response","45","321835","0.0-37.0","5BAB0A1BA15A465CB8D7448D7AA9E8FE","0199d5f1-42fb-7d22-bfdf-1dd6da1195c0","0199d5ef-c7d4-7cab-a194-b2c3afbaf8e8","","null","<div style=""display: flex; justify-content: center; align-items: center;"">
                     <img src=""images/causal/causal_series_10/causal_series_10_a.png"" style=""width: 300px; height: 300px;"" />
                   </div>","null","10","1","A","",""
"","","","","","html-keyboard-response","46","327856","0.0-38.0","5BAB0A1BA15A465CB8D7448D7AA9E8FE","0199d5f1-42fb-7d22-bfdf-1dd6da1195c0","0199d5ef-c7d4-7cab-a194-b2c3afbaf8e8","","null","<div style=""display: flex; justify-content: center; align-items: center;"">
                     <img src=""images/causal/causal_series_10/causal_series_10_b.png"" style=""width: 300px; height: 300px;"" />
                   </div>","null","10","1","B","",""
"","","","","","html-keyboard-response","47","333871","0.0-39.0","5BAB0A1BA15A465CB8D7448D7AA9E8FE","0199d5f1-42fb-7d22-bfdf-1dd6da1195c0","0199d5ef-c7d4-7cab-a194-b2c3afbaf8e8","","null","<div style=""display: flex; justify-content: center; align-items: center;"">
                     <img src=""images/causal/causal_series_10/causal_series_10_c.png"" style=""width: 300px; height: 300px;"" />
                   </div>","null","10","1","C","",""
"","","","","","html-button-response","48","334733","0.0-40.0","5BAB0A1BA15A465CB8D7448D7AA9E8FE","0199d5f1-42fb-7d22-bfdf-1dd6da1195c0","0199d5ef-c7d4-7cab-a194-b2c3afbaf8e8","","861","
        <div style=""display: flex; justify-content: center; align-items: center;"">
          <img src=""images/red_deck_2.png"" style=""width: 300px; height: 300px; margin-right: 10px;"" />
          <img src=""images/blue_deck_1.png"" style=""width: 300px; height: 300px;"" />
        </div>","1","10","1","choice","1",""
"","","","","","html-keyboard-response","49","340740","0.0-41.0-1.0-0.0","5BAB0A1BA15A465CB8D7448D7AA9E8FE","0199d5f1-42fb-7d22-bfdf-1dd6da1195c0","0199d5ef-c7d4-7cab-a194-b2c3afbaf8e8","","null","<div style=""display: flex; justify-content: center; align-items: center;"">
                     <img src=""images/semantic/semantic_series_10/semantic_series_10_d.png"" style=""width: 300px; height: 300px;"" />
                   </div>","null","10","1","D","",""
"","","","","","html-keyboard-response","50","346752","0.0-41.0-1.0-1.0","5BAB0A1BA15A465CB8D7448D7AA9E8FE","0199d5f1-42fb-7d22-bfdf-1dd6da1195c0","0199d5ef-c7d4-7cab-a194-b2c3afbaf8e8","","null","<div style=""display: flex; justify-content: center; align-items: center;"">
                     <img src=""images/semantic/semantic_series_10/semantic_series_10_e.png"" style=""width: 300px; height: 300px;"" />
                   </div>","null","10","1","E","",""
"","","","","","html-keyboard-response","51","352757","0.0-41.0-1.0-2.0","5BAB0A1BA15A465CB8D7448D7AA9E8FE","0199d5f1-42fb-7d22-bfdf-1dd6da1195c0","0199d5ef-c7d4-7cab-a194-b2c3afbaf8e8","","null","<div style=""display: flex; justify-content: center; align-items: center;"">
                     <img src=""images/semantic/semantic_series_10/semantic_series_10_f.png"" style=""width: 300px; height: 300px;"" />
                   </div>","null","10","1","F","",""
"","","","","","survey-likert","52","355862","0.0-42.0","5BAB0A1BA15A465CB8D7448D7AA9E8FE","0199d5f1-42fb-7d22-bfdf-1dd6da1195c0","0199d5ef-c7d4-7cab-a194-b2c3afbaf8e8","","3103","","{""Q0"":4}","10","1","surprise_rating","","[0]"
"","","","","","survey-likert","53","357611","0.0-43.0","5BAB0A1BA15A465CB8D7448D7AA9E8FE","0199d5f1-42fb-7d22-bfdf-1dd6da1195c0","0199d5ef-c7d4-7cab-a194-b2c3afbaf8e8","","1744","","{""Q0"":2}","10","1","enjoyment_rating","","[0]"
"","","","","","html-keyboard-response","54","363624","0.0-44.0","5BAB0A1BA15A465CB8D7448D7AA9E8FE","0199d5f1-42fb-7d22-bfdf-1dd6da1195c0","0199d5ef-c7d4-7cab-a194-b2c3afbaf8e8","","null","<div style=""display: flex; justify-content: center; align-items: center;"">
                     <img src=""images/other/blank.png"" style=""width: 300px; height: 300px;"" />
                   </div>","null","0","0","blank","",""
"","","","","","html-keyboard-response","55","369813","0.0-45.0","5BAB0A1BA15A465CB8D7448D7AA9E8FE","0199d5f1-42fb-7d22-bfdf-1dd6da1195c0","0199d5ef-c7d4-7cab-a194-b2c3afbaf8e8","","null","<div style=""display: flex; justify-content: center; align-items: center;"">
                     <img src=""images/causal/causal_series_3/causal_series_3_a.png"" style=""width: 300px; height: 300px;"" />
                   </div>","null","3","2","A","",""
"","","","","","html-keyboard-response","56","376164","0.0-46.0","5BAB0A1BA15A465CB8D7448D7AA9E8FE","0199d5f1-42fb-7d22-bfdf-1dd6da1195c0","0199d5ef-c7d4-7cab-a194-b2c3afbaf8e8","","null","<div style=""display: flex; justify-content: center; align-items: center;"">
                     <img src=""images/causal/causal_series_3/causal_series_3_b.png"" style=""width: 300px; height: 300px;"" />
                   </div>","null","3","2","B","",""
"","","","","","html-keyboard-response","57","382437","0.0-47.0","5BAB0A1BA15A465CB8D7448D7AA9E8FE","0199d5f1-42fb-7d22-bfdf-1dd6da1195c0","0199d5ef-c7d4-7cab-a194-b2c3afbaf8e8","","null","<div style=""display: flex; justify-content: center; align-items: center;"">
                     <img src=""images/causal/causal_series_3/causal_series_3_c.png"" style=""width: 300px; height: 300px;"" />
                   </div>","null","3","2","C","",""
"","","","","","html-button-response","58","383696","0.0-48.0","5BAB0A1BA15A465CB8D7448D7AA9E8FE","0199d5f1-42fb-7d22-bfdf-1dd6da1195c0","0199d5ef-c7d4-7cab-a194-b2c3afbaf8e8","","1258","
        <div style=""display: flex; justify-content: center; align-items: center;"">
          <img src=""images/red_deck_2.png"" style=""width: 300px; height: 300px; margin-right: 10px;"" />
          <img src=""images/blue_deck_1.png"" style=""width: 300px; height: 300px;"" />
        </div>","0","3","2","choice","0",""
"","","","","","html-keyboard-response","59","389698","0.0-49.0-0.0-0.0","5BAB0A1BA15A465CB8D7448D7AA9E8FE","0199d5f1-42fb-7d22-bfdf-1dd6da1195c0","0199d5ef-c7d4-7cab-a194-b2c3afbaf8e8","","null","<div style=""display: flex; justify-content: center; align-items: center;"">
                     <img src=""images/causal/causal_series_3/causal_series_3_d.png"" style=""width: 300px; height: 300px;"" />
                   </div>","null","3","2","D","",""
"","","","","","html-keyboard-response","60","395709","0.0-49.0-0.0-1.0","5BAB0A1BA15A465CB8D7448D7AA9E8FE","0199d5f1-42fb-7d22-bfdf-1dd6da1195c0","0199d5ef-c7d4-7cab-a194-b2c3afbaf8e8","","null","<div style=""display: flex; justify-content: center; align-items: center;"">
                     <img src=""images/causal/causal_series_3/causal_series_3_e.png"" style=""width: 300px; height: 300px;"" />
                   </div>","null","3","2","E","",""
"","","","","","html-keyboard-response","61","401722","0.0-49.0-0.0-2.0","5BAB0A1BA15A465CB8D7448D7AA9E8FE","0199d5f1-42fb-7d22-bfdf-1dd6da1195c0","0199d5ef-c7d4-7cab-a194-b2c3afbaf8e8","","null","<div style=""display: flex; justify-content: center; align-items: center;"">
                     <img src=""images/causal/causal_series_3/causal_series_3_f.png"" style=""width: 300px; height: 300px;"" />
                   </div>","null","3","2","F","",""
"","","","","","survey-likert","62","404147","0.0-50.0","5BAB0A1BA15A465CB8D7448D7AA9E8FE","0199d5f1-42fb-7d22-bfdf-1dd6da1195c0","0199d5ef-c7d4-7cab-a194-b2c3afbaf8e8","","2423","","{""Q0"":3}","3","2","surprise_rating","","[0]"
"","","","","","survey-likert","63","405245","0.0-51.0","5BAB0A1BA15A465CB8D7448D7AA9E8FE","0199d5f1-42fb-7d22-bfdf-1dd6da1195c0","0199d5ef-c7d4-7cab-a194-b2c3afbaf8e8","","1095","","{""Q0"":2}","3","2","enjoyment_rating","","[0]"
"","","","","","html-keyboard-response","64","411259","0.0-52.0","5BAB0A1BA15A465CB8D7448D7AA9E8FE","0199d5f1-42fb-7d22-bfdf-1dd6da1195c0","0199d5ef-c7d4-7cab-a194-b2c3afbaf8e8","","null","<div style=""display: flex; justify-content: center; align-items: center;"">
                     <img src=""images/other/blank.png"" style=""width: 300px; height: 300px;"" />
                   </div>","null","0","0","blank","",""
"","","","","","html-keyboard-response","65","417267","0.0-53.0","5BAB0A1BA15A465CB8D7448D7AA9E8FE","0199d5f1-42fb-7d22-bfdf-1dd6da1195c0","0199d5ef-c7d4-7cab-a194-b2c3afbaf8e8","","null","<div style=""display: flex; justify-content: center; align-items: center;"">
                     <img src=""images/causal/causal_series_5/causal_series_5_a.png"" style=""width: 300px; height: 300px;"" />
                   </div>","null","5","2","A","",""
"","","","","","html-keyboard-response","66","423806","0.0-54.0","5BAB0A1BA15A465CB8D7448D7AA9E8FE","0199d5f1-42fb-7d22-bfdf-1dd6da1195c0","0199d5ef-c7d4-7cab-a194-b2c3afbaf8e8","","null","<div style=""display: flex; justify-content: center; align-items: center;"">
                     <img src=""images/causal/causal_series_5/causal_series_5_b.png"" style=""width: 300px; height: 300px;"" />
                   </div>","null","5","2","B","",""
"","","","","","html-keyboard-response","67","429821","0.0-55.0","5BAB0A1BA15A465CB8D7448D7AA9E8FE","0199d5f1-42fb-7d22-bfdf-1dd6da1195c0","0199d5ef-c7d4-7cab-a194-b2c3afbaf8e8","","null","<div style=""display: flex; justify-content: center; align-items: center;"">
                     <img src=""images/causal/causal_series_5/causal_series_5_c.png"" style=""width: 300px; height: 300px;"" />
                   </div>","null","5","2","C","",""
"","","","","","html-button-response","68","432158","0.0-56.0","5BAB0A1BA15A465CB8D7448D7AA9E8FE","0199d5f1-42fb-7d22-bfdf-1dd6da1195c0","0199d5ef-c7d4-7cab-a194-b2c3afbaf8e8","","2335","
        <div style=""display: flex; justify-content: center; align-items: center;"">
          <img src=""images/red_deck_2.png"" style=""width: 300px; height: 300px; margin-right: 10px;"" />
          <img src=""images/blue_deck_1.png"" style=""width: 300px; height: 300px;"" />
        </div>","1","5","2","choice","1",""
"","","","","","html-keyboard-response","69","438175","0.0-57.0-1.0-0.0","5BAB0A1BA15A465CB8D7448D7AA9E8FE","0199d5f1-42fb-7d22-bfdf-1dd6da1195c0","0199d5ef-c7d4-7cab-a194-b2c3afbaf8e8","","null","<div style=""display: flex; justify-content: center; align-items: center;"">
                     <img src=""images/semantic/semantic_series_5/semantic_series_5_d.png"" style=""width: 300px; height: 300px;"" />
                   </div>","null","5","2","D","",""
"","","","","","html-keyboard-response","70","444176","0.0-57.0-1.0-1.0","5BAB0A1BA15A465CB8D7448D7AA9E8FE","0199d5f1-42fb-7d22-bfdf-1dd6da1195c0","0199d5ef-c7d4-7cab-a194-b2c3afbaf8e8","","null","<div style=""display: flex; justify-content: center; align-items: center;"">
                     <img src=""images/semantic/semantic_series_5/semantic_series_5_e.png"" style=""width: 300px; height: 300px;"" />
                   </div>","null","5","2","E","",""
"","","","","","html-keyboard-response","71","450185","0.0-57.0-1.0-2.0","5BAB0A1BA15A465CB8D7448D7AA9E8FE","0199d5f1-42fb-7d22-bfdf-1dd6da1195c0","0199d5ef-c7d4-7cab-a194-b2c3afbaf8e8","","null","<div style=""display: flex; justify-content: center; align-items: center;"">
                     <img src=""images/semantic/semantic_series_5/semantic_series_5_f.png"" style=""width: 300px; height: 300px;"" />
                   </div>","null","5","2","F","",""
"","","","","","survey-likert","72","452349","0.0-58.0","5BAB0A1BA15A465CB8D7448D7AA9E8FE","0199d5f1-42fb-7d22-bfdf-1dd6da1195c0","0199d5ef-c7d4-7cab-a194-b2c3afbaf8e8","","2162","","{""Q0"":4}","5","2","surprise_rating","","[0]"
"","","","","","survey-likert","73","453693","0.0-59.0","5BAB0A1BA15A465CB8D7448D7AA9E8FE","0199d5f1-42fb-7d22-bfdf-1dd6da1195c0","0199d5ef-c7d4-7cab-a194-b2c3afbaf8e8","","1340","","{""Q0"":3}","5","2","enjoyment_rating","","[0]"
"","","","","","html-keyboard-response","74","459706","0.0-60.0","5BAB0A1BA15A465CB8D7448D7AA9E8FE","0199d5f1-42fb-7d22-bfdf-1dd6da1195c0","0199d5ef-c7d4-7cab-a194-b2c3afbaf8e8","","null","<div style=""display: flex; justify-content: center; align-items: center;"">
                     <img src=""images/other/blank.png"" style=""width: 300px; height: 300px;"" />
                   </div>","null","0","0","blank","",""
"","","","","","html-keyboard-response","75","465717","0.0-61.0","5BAB0A1BA15A465CB8D7448D7AA9E8FE","0199d5f1-42fb-7d22-bfdf-1dd6da1195c0","0199d5ef-c7d4-7cab-a194-b2c3afbaf8e8","","null","<div style=""display: flex; justify-content: center; align-items: center;"">
                     <img src=""images/causal/causal_series_1/causal_series_1_a.png"" style=""width: 300px; height: 300px;"" />
                   </div>","null","1","1","A","",""
"","","","","","html-keyboard-response","76","471721","0.0-62.0","5BAB0A1BA15A465CB8D7448D7AA9E8FE","0199d5f1-42fb-7d22-bfdf-1dd6da1195c0","0199d5ef-c7d4-7cab-a194-b2c3afbaf8e8","","null","<div style=""display: flex; justify-content: center; align-items: center;"">
                     <img src=""images/causal/causal_series_1/causal_series_1_b.png"" style=""width: 300px; height: 300px;"" />
                   </div>","null","1","1","B","",""
"","","","","","html-keyboard-response","77","477775","0.0-63.0","5BAB0A1BA15A465CB8D7448D7AA9E8FE","0199d5f1-42fb-7d22-bfdf-1dd6da1195c0","0199d5ef-c7d4-7cab-a194-b2c3afbaf8e8","","null","<div style=""display: flex; justify-content: center; align-items: center;"">
                     <img src=""images/causal/causal_series_1/causal_series_1_c.png"" style=""width: 300px; height: 300px;"" />
                   </div>","null","1","1","C","",""
"","","","","","html-button-response","78","479850","0.0-64.0","5BAB0A1BA15A465CB8D7448D7AA9E8FE","0199d5f1-42fb-7d22-bfdf-1dd6da1195c0","0199d5ef-c7d4-7cab-a194-b2c3afbaf8e8","","2074","
        <div style=""display: flex; justify-content: center; align-items: center;"">
          <img src=""images/red_deck_2.png"" style=""width: 300px; height: 300px; margin-right: 10px;"" />
          <img src=""images/blue_deck_1.png"" style=""width: 300px; height: 300px;"" />
        </div>","0","1","1","choice","0",""
"","","","","","html-keyboard-response","79","486225","0.0-65.0-0.0-0.0","5BAB0A1BA15A465CB8D7448D7AA9E8FE","0199d5f1-42fb-7d22-bfdf-1dd6da1195c0","0199d5ef-c7d4-7cab-a194-b2c3afbaf8e8","","null","<div style=""display: flex; justify-content: center; align-items: center;"">
                     <img src=""images/causal/causal_series_1/causal_series_1_d.png"" style=""width: 300px; height: 300px;"" />
                   </div>","null","1","1","D","",""
"","","","","","html-keyboard-response","80","492229","0.0-65.0-0.0-1.0","5BAB0A1BA15A465CB8D7448D7AA9E8FE","0199d5f1-42fb-7d22-bfdf-1dd6da1195c0","0199d5ef-c7d4-7cab-a194-b2c3afbaf8e8","","null","<div style=""display: flex; justify-content: center; align-items: center;"">
                     <img src=""images/causal/causal_series_1/causal_series_1_e.png"" style=""width: 300px; height: 300px;"" />
                   </div>","null","1","1","E","",""
"","","","","","html-keyboard-response","81","498277","0.0-65.0-0.0-2.0","5BAB0A1BA15A465CB8D7448D7AA9E8FE","0199d5f1-42fb-7d22-bfdf-1dd6da1195c0","0199d5ef-c7d4-7cab-a194-b2c3afbaf8e8","","null","<div style=""display: flex; justify-content: center; align-items: center;"">
                     <img src=""images/causal/causal_series_1/causal_series_1_f.png"" style=""width: 300px; height: 300px;"" />
                   </div>","null","1","1","F","",""
"","","","","","survey-likert","82","505979","0.0-66.0","5BAB0A1BA15A465CB8D7448D7AA9E8FE","0199d5f1-42fb-7d22-bfdf-1dd6da1195c0","0199d5ef-c7d4-7cab-a194-b2c3afbaf8e8","","7700","","{""Q0"":3}","1","1","surprise_rating","","[0]"
"","","","","","survey-likert","83","507738","0.0-67.0","5BAB0A1BA15A465CB8D7448D7AA9E8FE","0199d5f1-42fb-7d22-bfdf-1dd6da1195c0","0199d5ef-c7d4-7cab-a194-b2c3afbaf8e8","","1758","","{""Q0"":1}","1","1","enjoyment_rating","","[0]"
"","","","","","html-keyboard-response","84","513746","0.0-68.0","5BAB0A1BA15A465CB8D7448D7AA9E8FE","0199d5f1-42fb-7d22-bfdf-1dd6da1195c0","0199d5ef-c7d4-7cab-a194-b2c3afbaf8e8","","null","<div style=""display: flex; justify-content: center; align-items: center;"">
                     <img src=""images/other/blank.png"" style=""width: 300px; height: 300px;"" />
                   </div>","null","0","0","blank","",""
"","","","","","html-keyboard-response","85","519757","0.0-69.0","5BAB0A1BA15A465CB8D7448D7AA9E8FE","0199d5f1-42fb-7d22-bfdf-1dd6da1195c0","0199d5ef-c7d4-7cab-a194-b2c3afbaf8e8","","null","<div style=""display: flex; justify-content: center; align-items: center;"">
                     <img src=""images/causal/causal_series_9/causal_series_9_a.png"" style=""width: 300px; height: 300px;"" />
                   </div>","null","9","1","A","",""
"","","","","","html-keyboard-response","86","525764","0.0-70.0","5BAB0A1BA15A465CB8D7448D7AA9E8FE","0199d5f1-42fb-7d22-bfdf-1dd6da1195c0","0199d5ef-c7d4-7cab-a194-b2c3afbaf8e8","","null","<div style=""display: flex; justify-content: center; align-items: center;"">
                     <img src=""images/causal/causal_series_9/causal_series_9_b.png"" style=""width: 300px; height: 300px;"" />
                   </div>","null","9","1","B","",""
"","","","","","html-keyboard-response","87","531767","0.0-71.0","5BAB0A1BA15A465CB8D7448D7AA9E8FE","0199d5f1-42fb-7d22-bfdf-1dd6da1195c0","0199d5ef-c7d4-7cab-a194-b2c3afbaf8e8","","null","<div style=""display: flex; justify-content: center; align-items: center;"">
                     <img src=""images/causal/causal_series_9/causal_series_9_c.png"" style=""width: 300px; height: 300px;"" />
                   </div>","null","9","1","C","",""
"","","","","","html-button-response","88","532509","0.0-72.0","5BAB0A1BA15A465CB8D7448D7AA9E8FE","0199d5f1-42fb-7d22-bfdf-1dd6da1195c0","0199d5ef-c7d4-7cab-a194-b2c3afbaf8e8","","741","
        <div style=""display: flex; justify-content: center; align-items: center;"">
          <img src=""images/red_deck_2.png"" style=""width: 300px; height: 300px; margin-right: 10px;"" />
          <img src=""images/blue_deck_1.png"" style=""width: 300px; height: 300px;"" />
        </div>","0","9","1","choice","0",""
"","","","","","html-keyboard-response","89","538519","0.0-73.0-0.0-0.0","5BAB0A1BA15A465CB8D7448D7AA9E8FE","0199d5f1-42fb-7d22-bfdf-1dd6da1195c0","0199d5ef-c7d4-7cab-a194-b2c3afbaf8e8","","null","<div style=""display: flex; justify-content: center; align-items: center;"">
                     <img src=""images/causal/causal_series_9/causal_series_9_d.png"" style=""width: 300px; height: 300px;"" />
                   </div>","null","9","1","D","",""
"","","","","","html-keyboard-response","90","544782","0.0-73.0-0.0-1.0","5BAB0A1BA15A465CB8D7448D7AA9E8FE","0199d5f1-42fb-7d22-bfdf-1dd6da1195c0","0199d5ef-c7d4-7cab-a194-b2c3afbaf8e8","","null","<div style=""display: flex; justify-content: center; align-items: center;"">
                     <img src=""images/causal/causal_series_9/causal_series_9_e.png"" style=""width: 300px; height: 300px;"" />
                   </div>","null","9","1","E","",""
"","","","","","html-keyboard-response","91","550803","0.0-73.0-0.0-2.0","5BAB0A1BA15A465CB8D7448D7AA9E8FE","0199d5f1-42fb-7d22-bfdf-1dd6da1195c0","0199d5ef-c7d4-7cab-a194-b2c3afbaf8e8","","null","<div style=""display: flex; justify-content: center; align-items: center;"">
                     <img src=""images/causal/causal_series_9/causal_series_9_f.png"" style=""width: 300px; height: 300px;"" />
                   </div>","null","9","1","F","",""
"","","","","","survey-likert","92","556308","0.0-74.0","5BAB0A1BA15A465CB8D7448D7AA9E8FE","0199d5f1-42fb-7d22-bfdf-1dd6da1195c0","0199d5ef-c7d4-7cab-a194-b2c3afbaf8e8","","5503","","{""Q0"":0}","9","1","surprise_rating","","[0]"
"","","","","","survey-likert","93","558947","0.0-75.0","5BAB0A1BA15A465CB8D7448D7AA9E8FE","0199d5f1-42fb-7d22-bfdf-1dd6da1195c0","0199d5ef-c7d4-7cab-a194-b2c3afbaf8e8","","2637","","{""Q0"":3}","9","1","enjoyment_rating","","[0]"
"","","","","","html-keyboard-response","94","564955","0.0-76.0","5BAB0A1BA15A465CB8D7448D7AA9E8FE","0199d5f1-42fb-7d22-bfdf-1dd6da1195c0","0199d5ef-c7d4-7cab-a194-b2c3afbaf8e8","","null","<div style=""display: flex; justify-content: center; align-items: center;"">
                     <img src=""images/other/blank.png"" style=""width: 300px; height: 300px;"" />
                   </div>","null","0","0","blank","",""
"","","","","","html-keyboard-response","95","570958","0.0-77.0","5BAB0A1BA15A465CB8D7448D7AA9E8FE","0199d5f1-42fb-7d22-bfdf-1dd6da1195c0","0199d5ef-c7d4-7cab-a194-b2c3afbaf8e8","","null","<div style=""display: flex; justify-content: center; align-items: center;"">
                     <img src=""images/causal/causal_series_4/causal_series_4_a.png"" style=""width: 300px; height: 300px;"" />
                   </div>","null","4","2","A","",""
"","","","","","html-keyboard-response","96","576969","0.0-78.0","5BAB0A1BA15A465CB8D7448D7AA9E8FE","0199d5f1-42fb-7d22-bfdf-1dd6da1195c0","0199d5ef-c7d4-7cab-a194-b2c3afbaf8e8","","null","<div style=""display: flex; justify-content: center; align-items: center;"">
                     <img src=""images/causal/causal_series_4/causal_series_4_b.png"" style=""width: 300px; height: 300px;"" />
                   </div>","null","4","2","B","",""
"","","","","","html-keyboard-response","97","582975","0.0-79.0","5BAB0A1BA15A465CB8D7448D7AA9E8FE","0199d5f1-42fb-7d22-bfdf-1dd6da1195c0","0199d5ef-c7d4-7cab-a194-b2c3afbaf8e8","","null","<div style=""display: flex; justify-content: center; align-items: center;"">
                     <img src=""images/causal/causal_series_4/causal_series_4_c.png"" style=""width: 300px; height: 300px;"" />
                   </div>","null","4","2","C","",""
"","","","","","html-button-response","98","587563","0.0-80.0","5BAB0A1BA15A465CB8D7448D7AA9E8FE","0199d5f1-42fb-7d22-bfdf-1dd6da1195c0","0199d5ef-c7d4-7cab-a194-b2c3afbaf8e8","","4587","
        <div style=""display: flex; justify-content: center; align-items: center;"">
          <img src=""images/red_deck_2.png"" style=""width: 300px; height: 300px; margin-right: 10px;"" />
          <img src=""images/blue_deck_1.png"" style=""width: 300px; height: 300px;"" />
        </div>","0","4","2","choice","0",""
"","","","","","html-keyboard-response","99","593571","0.0-81.0-0.0-0.0","5BAB0A1BA15A465CB8D7448D7AA9E8FE","0199d5f1-42fb-7d22-bfdf-1dd6da1195c0","0199d5ef-c7d4-7cab-a194-b2c3afbaf8e8","","null","<div style=""display: flex; justify-content: center; align-items: center;"">
                     <img src=""images/causal/causal_series_4/causal_series_4_d.png"" style=""width: 300px; height: 300px;"" />
                   </div>","null","4","2","D","",""
"","","","","","html-keyboard-response","100","599573","0.0-81.0-0.0-1.0","5BAB0A1BA15A465CB8D7448D7AA9E8FE","0199d5f1-42fb-7d22-bfdf-1dd6da1195c0","0199d5ef-c7d4-7cab-a194-b2c3afbaf8e8","","null","<div style=""display: flex; justify-content: center; align-items: center;"">
                     <img src=""images/causal/causal_series_4/causal_series_4_e.png"" style=""width: 300px; height: 300px;"" />
                   </div>","null","4","2","E","",""
"","","","","","html-keyboard-response","101","605578","0.0-81.0-0.0-2.0","5BAB0A1BA15A465CB8D7448D7AA9E8FE","0199d5f1-42fb-7d22-bfdf-1dd6da1195c0","0199d5ef-c7d4-7cab-a194-b2c3afbaf8e8","","null","<div style=""display: flex; justify-content: center; align-items: center;"">
                     <img src=""images/causal/causal_series_4/causal_series_4_f.png"" style=""width: 300px; height: 300px;"" />
                   </div>","null","4","2","F","",""
"","","","","","survey-likert","102","609987","0.0-82.0","5BAB0A1BA15A465CB8D7448D7AA9E8FE","0199d5f1-42fb-7d22-bfdf-1dd6da1195c0","0199d5ef-c7d4-7cab-a194-b2c3afbaf8e8","","4408","","{""Q0"":2}","4","2","surprise_rating","","[0]"
"","","","","","survey-likert","103","611431","0.0-83.0","5BAB0A1BA15A465CB8D7448D7AA9E8FE","0199d5f1-42fb-7d22-bfdf-1dd6da1195c0","0199d5ef-c7d4-7cab-a194-b2c3afbaf8e8","","1440","","{""Q0"":3}","4","2","enjoyment_rating","","[0]"
"","","","","","html-keyboard-response","104","617446","0.0-84.0","5BAB0A1BA15A465CB8D7448D7AA9E8FE","0199d5f1-42fb-7d22-bfdf-1dd6da1195c0","0199d5ef-c7d4-7cab-a194-b2c3afbaf8e8","","null","<div style=""display: flex; justify-content: center; align-items: center;"">
                     <img src=""images/other/blank.png"" style=""width: 300px; height: 300px;"" />
                   </div>","null","0","0","blank","",""
"","","","","","html-keyboard-response","105","623447","0.0-85.0","5BAB0A1BA15A465CB8D7448D7AA9E8FE","0199d5f1-42fb-7d22-bfdf-1dd6da1195c0","0199d5ef-c7d4-7cab-a194-b2c3afbaf8e8","","null","<div style=""display: flex; justify-content: center; align-items: center;"">
                     <img src=""images/causal/causal_series_6/causal_series_6_a.png"" style=""width: 300px; height: 300px;"" />
                   </div>","null","6","2","A","",""
"","","","","","html-keyboard-response","106","629451","0.0-86.0","5BAB0A1BA15A465CB8D7448D7AA9E8FE","0199d5f1-42fb-7d22-bfdf-1dd6da1195c0","0199d5ef-c7d4-7cab-a194-b2c3afbaf8e8","","null","<div style=""display: flex; justify-content: center; align-items: center;"">
                     <img src=""images/causal/causal_series_6/causal_series_6_b.png"" style=""width: 300px; height: 300px;"" />
                   </div>","null","6","2","B","",""
"","","","","","html-keyboard-response","107","635643","0.0-87.0","5BAB0A1BA15A465CB8D7448D7AA9E8FE","0199d5f1-42fb-7d22-bfdf-1dd6da1195c0","0199d5ef-c7d4-7cab-a194-b2c3afbaf8e8","","null","<div style=""display: flex; justify-content: center; align-items: center;"">
                     <img src=""images/causal/causal_series_6/causal_series_6_c.png"" style=""width: 300px; height: 300px;"" />
                   </div>","null","6","2","C","",""
"","","","","","html-button-response","108","637635","0.0-88.0","5BAB0A1BA15A465CB8D7448D7AA9E8FE","0199d5f1-42fb-7d22-bfdf-1dd6da1195c0","0199d5ef-c7d4-7cab-a194-b2c3afbaf8e8","","1990","
        <div style=""display: flex; justify-content: center; align-items: center;"">
          <img src=""images/red_deck_2.png"" style=""width: 300px; height: 300px; margin-right: 10px;"" />
          <img src=""images/blue_deck_1.png"" style=""width: 300px; height: 300px;"" />
        </div>","0","6","2","choice","0",""
"","","","","","html-keyboard-response","109","644042","0.0-89.0-0.0-0.0","5BAB0A1BA15A465CB8D7448D7AA9E8FE","0199d5f1-42fb-7d22-bfdf-1dd6da1195c0","0199d5ef-c7d4-7cab-a194-b2c3afbaf8e8","","null","<div style=""display: flex; justify-content: center; align-items: center;"">
                     <img src=""images/causal/causal_series_6/causal_series_6_d.png"" style=""width: 300px; height: 300px;"" />
                   </div>","null","6","2","D","",""
"","","","","","html-keyboard-response","110","650043","0.0-89.0-0.0-1.0","5BAB0A1BA15A465CB8D7448D7AA9E8FE","0199d5f1-42fb-7d22-bfdf-1dd6da1195c0","0199d5ef-c7d4-7cab-a194-b2c3afbaf8e8","","null","<div style=""display: flex; justify-content: center; align-items: center;"">
                     <img src=""images/causal/causal_series_6/causal_series_6_e.png"" style=""width: 300px; height: 300px;"" />
                   </div>","null","6","2","E","",""
"","","","","","html-keyboard-response","111","656234","0.0-89.0-0.0-2.0","5BAB0A1BA15A465CB8D7448D7AA9E8FE","0199d5f1-42fb-7d22-bfdf-1dd6da1195c0","0199d5ef-c7d4-7cab-a194-b2c3afbaf8e8","","null","<div style=""display: flex; justify-content: center; align-items: center;"">
                     <img src=""images/causal/causal_series_6/causal_series_6_f.png"" style=""width: 300px; height: 300px;"" />
                   </div>","null","6","2","F","",""
"","","","","","survey-likert","112","660260","0.0-90.0","5BAB0A1BA15A465CB8D7448D7AA9E8FE","0199d5f1-42fb-7d22-bfdf-1dd6da1195c0","0199d5ef-c7d4-7cab-a194-b2c3afbaf8e8","","4023","","{""Q0"":3}","6","2","surprise_rating","","[0]"
"","","","","","survey-likert","113","661556","0.0-91.0","5BAB0A1BA15A465CB8D7448D7AA9E8FE","0199d5f1-42fb-7d22-bfdf-1dd6da1195c0","0199d5ef-c7d4-7cab-a194-b2c3afbaf8e8","","1293","","{""Q0"":4}","6","2","enjoyment_rating","","[0]"
"","","","","","html-keyboard-response","114","667653","0.0-92.0","5BAB0A1BA15A465CB8D7448D7AA9E8FE","0199d5f1-42fb-7d22-bfdf-1dd6da1195c0","0199d5ef-c7d4-7cab-a194-b2c3afbaf8e8","","null","<div style=""display: flex; justify-content: center; align-items: center;"">
                     <img src=""images/other/blank.png"" style=""width: 300px; height: 300px;"" />
                   </div>","null","0","0","blank","",""
"","","","","","html-keyboard-response","115","673658","0.0-93.0","5BAB0A1BA15A465CB8D7448D7AA9E8FE","0199d5f1-42fb-7d22-bfdf-1dd6da1195c0","0199d5ef-c7d4-7cab-a194-b2c3afbaf8e8","","null","<div style=""display: flex; justify-content: center; align-items: center;"">
                     <img src=""images/causal/causal_series_1/causal_series_1_a.png"" style=""width: 300px; height: 300px;"" />
                   </div>","null","1","2","A","",""
"","","","","","html-keyboard-response","116","679668","0.0-94.0","5BAB0A1BA15A465CB8D7448D7AA9E8FE","0199d5f1-42fb-7d22-bfdf-1dd6da1195c0","0199d5ef-c7d4-7cab-a194-b2c3afbaf8e8","","null","<div style=""display: flex; justify-content: center; align-items: center;"">
                     <img src=""images/causal/causal_series_1/causal_series_1_b.png"" style=""width: 300px; height: 300px;"" />
                   </div>","null","1","2","B","",""
"","","","","","html-keyboard-response","117","685675","0.0-95.0","5BAB0A1BA15A465CB8D7448D7AA9E8FE","0199d5f1-42fb-7d22-bfdf-1dd6da1195c0","0199d5ef-c7d4-7cab-a194-b2c3afbaf8e8","","null","<div style=""display: flex; justify-content: center; align-items: center;"">
                     <img src=""images/causal/causal_series_1/causal_series_1_c.png"" style=""width: 300px; height: 300px;"" />
                   </div>","null","1","2","C","",""
"","","","","","html-button-response","118","687539","0.0-96.0","5BAB0A1BA15A465CB8D7448D7AA9E8FE","0199d5f1-42fb-7d22-bfdf-1dd6da1195c0","0199d5ef-c7d4-7cab-a194-b2c3afbaf8e8","","1863","
        <div style=""display: flex; justify-content: center; align-items: center;"">
          <img src=""images/red_deck_2.png"" style=""width: 300px; height: 300px; margin-right: 10px;"" />
          <img src=""images/blue_deck_1.png"" style=""width: 300px; height: 300px;"" />
        </div>","0","1","2","choice","0",""
"","","","","","html-keyboard-response","119","693542","0.0-97.0-0.0-0.0","5BAB0A1BA15A465CB8D7448D7AA9E8FE","0199d5f1-42fb-7d22-bfdf-1dd6da1195c0","0199d5ef-c7d4-7cab-a194-b2c3afbaf8e8","","null","<div style=""display: flex; justify-content: center; align-items: center;"">
                     <img src=""images/causal/causal_series_1/causal_series_1_d.png"" style=""width: 300px; height: 300px;"" />
                   </div>","null","1","2","D","",""
"","","","","","html-keyboard-response","120","699707","0.0-97.0-0.0-1.0","5BAB0A1BA15A465CB8D7448D7AA9E8FE","0199d5f1-42fb-7d22-bfdf-1dd6da1195c0","0199d5ef-c7d4-7cab-a194-b2c3afbaf8e8","","null","<div style=""display: flex; justify-content: center; align-items: center;"">
                     <img src=""images/causal/causal_series_1/causal_series_1_e.png"" style=""width: 300px; height: 300px;"" />
                   </div>","null","1","2","E","",""
"","","","","","html-keyboard-response","121","705710","0.0-97.0-0.0-2.0","5BAB0A1BA15A465CB8D7448D7AA9E8FE","0199d5f1-42fb-7d22-bfdf-1dd6da1195c0","0199d5ef-c7d4-7cab-a194-b2c3afbaf8e8","","null","<div style=""display: flex; justify-content: center; align-items: center;"">
                     <img src=""images/causal/causal_series_1/causal_series_1_f.png"" style=""width: 300px; height: 300px;"" />
                   </div>","null","1","2","F","",""
"","","","","","survey-likert","122","709939","0.0-98.0","5BAB0A1BA15A465CB8D7448D7AA9E8FE","0199d5f1-42fb-7d22-bfdf-1dd6da1195c0","0199d5ef-c7d4-7cab-a194-b2c3afbaf8e8","","4228","","{""Q0"":2}","1","2","surprise_rating","","[0]"
"","","","","","survey-likert","123","711267","0.0-99.0","5BAB0A1BA15A465CB8D7448D7AA9E8FE","0199d5f1-42fb-7d22-bfdf-1dd6da1195c0","0199d5ef-c7d4-7cab-a194-b2c3afbaf8e8","","1325","","{""Q0"":1}","1","2","enjoyment_rating","","[0]"
"","","","","","html-keyboard-response","124","717279","0.0-100.0","5BAB0A1BA15A465CB8D7448D7AA9E8FE","0199d5f1-42fb-7d22-bfdf-1dd6da1195c0","0199d5ef-c7d4-7cab-a194-b2c3afbaf8e8","","null","<div style=""display: flex; justify-content: center; align-items: center;"">
                     <img src=""images/other/blank.png"" style=""width: 300px; height: 300px;"" />
                   </div>","null","0","0","blank","",""
"","","","","","html-keyboard-response","125","723293","0.0-101.0","5BAB0A1BA15A465CB8D7448D7AA9E8FE","0199d5f1-42fb-7d22-bfdf-1dd6da1195c0","0199d5ef-c7d4-7cab-a194-b2c3afbaf8e8","","null","<div style=""display: flex; justify-content: center; align-items: center;"">
                     <img src=""images/causal/causal_series_4/causal_series_4_a.png"" style=""width: 300px; height: 300px;"" />
                   </div>","null","4","1","A","",""
"","","","","","html-keyboard-response","126","729773","0.0-102.0","5BAB0A1BA15A465CB8D7448D7AA9E8FE","0199d5f1-42fb-7d22-bfdf-1dd6da1195c0","0199d5ef-c7d4-7cab-a194-b2c3afbaf8e8","","null","<div style=""display: flex; justify-content: center; align-items: center;"">
                     <img src=""images/causal/causal_series_4/causal_series_4_b.png"" style=""width: 300px; height: 300px;"" />
                   </div>","null","4","1","B","",""
"","","","","","html-keyboard-response","127","735788","0.0-103.0","5BAB0A1BA15A465CB8D7448D7AA9E8FE","0199d5f1-42fb-7d22-bfdf-1dd6da1195c0","0199d5ef-c7d4-7cab-a194-b2c3afbaf8e8","","null","<div style=""display: flex; justify-content: center; align-items: center;"">
                     <img src=""images/causal/causal_series_4/causal_series_4_c.png"" style=""width: 300px; height: 300px;"" />
                   </div>","null","4","1","C","",""
"","","","","","html-button-response","128","737276","0.0-104.0","5BAB0A1BA15A465CB8D7448D7AA9E8FE","0199d5f1-42fb-7d22-bfdf-1dd6da1195c0","0199d5ef-c7d4-7cab-a194-b2c3afbaf8e8","","1487","
        <div style=""display: flex; justify-content: center; align-items: center;"">
          <img src=""images/red_deck_2.png"" style=""width: 300px; height: 300px; margin-right: 10px;"" />
          <img src=""images/blue_deck_1.png"" style=""width: 300px; height: 300px;"" />
        </div>","1","4","1","choice","1",""
"","","","","","html-keyboard-response","129","743292","0.0-105.0-1.0-0.0","5BAB0A1BA15A465CB8D7448D7AA9E8FE","0199d5f1-42fb-7d22-bfdf-1dd6da1195c0","0199d5ef-c7d4-7cab-a194-b2c3afbaf8e8","","null","<div style=""display: flex; justify-content: center; align-items: center;"">
                     <img src=""images/semantic/semantic_series_4/semantic_series_4_d.png"" style=""width: 300px; height: 300px;"" />
                   </div>","null","4","1","D","",""
"","","","","","html-keyboard-response","130","749298","0.0-105.0-1.0-1.0","5BAB0A1BA15A465CB8D7448D7AA9E8FE","0199d5f1-42fb-7d22-bfdf-1dd6da1195c0","0199d5ef-c7d4-7cab-a194-b2c3afbaf8e8","","null","<div style=""display: flex; justify-content: center; align-items: center;"">
                     <img src=""images/semantic/semantic_series_4/semantic_series_4_e.png"" style=""width: 300px; height: 300px;"" />
                   </div>","null","4","1","E","",""
"","","","","","html-keyboard-response","131","755310","0.0-105.0-1.0-2.0","5BAB0A1BA15A465CB8D7448D7AA9E8FE","0199d5f1-42fb-7d22-bfdf-1dd6da1195c0","0199d5ef-c7d4-7cab-a194-b2c3afbaf8e8","","null","<div style=""display: flex; justify-content: center; align-items: center;"">
                     <img src=""images/semantic/semantic_series_4/semantic_series_4_f.png"" style=""width: 300px; height: 300px;"" />
                   </div>","null","4","1","F","",""
"","","","","","survey-likert","132","758715","0.0-106.0","5BAB0A1BA15A465CB8D7448D7AA9E8FE","0199d5f1-42fb-7d22-bfdf-1dd6da1195c0","0199d5ef-c7d4-7cab-a194-b2c3afbaf8e8","","3404","","{""Q0"":3}","4","1","surprise_rating","","[0]"
"","","","","","survey-likert","133","760931","0.0-107.0","5BAB0A1BA15A465CB8D7448D7AA9E8FE","0199d5f1-42fb-7d22-bfdf-1dd6da1195c0","0199d5ef-c7d4-7cab-a194-b2c3afbaf8e8","","2213","","{""Q0"":3}","4","1","enjoyment_rating","","[0]"
"","","","","","html-keyboard-response","134","766944","0.0-108.0","5BAB0A1BA15A465CB8D7448D7AA9E8FE","0199d5f1-42fb-7d22-bfdf-1dd6da1195c0","0199d5ef-c7d4-7cab-a194-b2c3afbaf8e8","","null","<div style=""display: flex; justify-content: center; align-items: center;"">
                     <img src=""images/other/blank.png"" style=""width: 300px; height: 300px;"" />
                   </div>","null","0","0","blank","",""
"","","","","","html-keyboard-response","135","773125","0.0-109.0","5BAB0A1BA15A465CB8D7448D7AA9E8FE","0199d5f1-42fb-7d22-bfdf-1dd6da1195c0","0199d5ef-c7d4-7cab-a194-b2c3afbaf8e8","","null","<div style=""display: flex; justify-content: center; align-items: center;"">
                     <img src=""images/causal/causal_series_7/causal_series_7_a.png"" style=""width: 300px; height: 300px;"" />
                   </div>","null","7","2","A","",""
"","","","","","html-keyboard-response","136","779465","0.0-110.0","5BAB0A1BA15A465CB8D7448D7AA9E8FE","0199d5f1-42fb-7d22-bfdf-1dd6da1195c0","0199d5ef-c7d4-7cab-a194-b2c3afbaf8e8","","null","<div style=""display: flex; justify-content: center; align-items: center;"">
                     <img src=""images/causal/causal_series_7/causal_series_7_b.png"" style=""width: 300px; height: 300px;"" />
                   </div>","null","7","2","B","",""
"","","","","","html-keyboard-response","137","785476","0.0-111.0","5BAB0A1BA15A465CB8D7448D7AA9E8FE","0199d5f1-42fb-7d22-bfdf-1dd6da1195c0","0199d5ef-c7d4-7cab-a194-b2c3afbaf8e8","","null","<div style=""display: flex; justify-content: center; align-items: center;"">
                     <img src=""images/causal/causal_series_7/causal_series_7_c.png"" style=""width: 300px; height: 300px;"" />
                   </div>","null","7","2","C","",""
"","","","","","html-button-response","138","788058","0.0-112.0","5BAB0A1BA15A465CB8D7448D7AA9E8FE","0199d5f1-42fb-7d22-bfdf-1dd6da1195c0","0199d5ef-c7d4-7cab-a194-b2c3afbaf8e8","","2581","
        <div style=""display: flex; justify-content: center; align-items: center;"">
          <img src=""images/red_deck_2.png"" style=""width: 300px; height: 300px; margin-right: 10px;"" />
          <img src=""images/blue_deck_1.png"" style=""width: 300px; height: 300px;"" />
        </div>","0","7","2","choice","0",""
"","","","","","html-keyboard-response","139","794067","0.0-113.0-0.0-0.0","5BAB0A1BA15A465CB8D7448D7AA9E8FE","0199d5f1-42fb-7d22-bfdf-1dd6da1195c0","0199d5ef-c7d4-7cab-a194-b2c3afbaf8e8","","null","<div style=""display: flex; justify-content: center; align-items: center;"">
                     <img src=""images/causal/causal_series_7/causal_series_7_d.png"" style=""width: 300px; height: 300px;"" />
                   </div>","null","7","2","D","",""
"","","","","","html-keyboard-response","140","800101","0.0-113.0-0.0-1.0","5BAB0A1BA15A465CB8D7448D7AA9E8FE","0199d5f1-42fb-7d22-bfdf-1dd6da1195c0","0199d5ef-c7d4-7cab-a194-b2c3afbaf8e8","","null","<div style=""display: flex; justify-content: center; align-items: center;"">
                     <img src=""images/causal/causal_series_7/causal_series_7_e.png"" style=""width: 300px; height: 300px;"" />
                   </div>","null","7","2","E","",""
"","","","","","html-keyboard-response","141","806261","0.0-113.0-0.0-2.0","5BAB0A1BA15A465CB8D7448D7AA9E8FE","0199d5f1-42fb-7d22-bfdf-1dd6da1195c0","0199d5ef-c7d4-7cab-a194-b2c3afbaf8e8","","null","<div style=""display: flex; justify-content: center; align-items: center;"">
                     <img src=""images/causal/causal_series_7/causal_series_7_f.png"" style=""width: 300px; height: 300px;"" />
                   </div>","null","7","2","F","",""
"","","","","","survey-likert","142","807778","0.0-114.0","5BAB0A1BA15A465CB8D7448D7AA9E8FE","0199d5f1-42fb-7d22-bfdf-1dd6da1195c0","0199d5ef-c7d4-7cab-a194-b2c3afbaf8e8","","1515","","{""Q0"":3}","7","2","surprise_rating","","[0]"
"","","","","","survey-likert","143","809978","0.0-115.0","5BAB0A1BA15A465CB8D7448D7AA9E8FE","0199d5f1-42fb-7d22-bfdf-1dd6da1195c0","0199d5ef-c7d4-7cab-a194-b2c3afbaf8e8","","2197","","{""Q0"":0}","7","2","enjoyment_rating","","[0]"
"","","","","","html-keyboard-response","144","815992","0.0-116.0","5BAB0A1BA15A465CB8D7448D7AA9E8FE","0199d5f1-42fb-7d22-bfdf-1dd6da1195c0","0199d5ef-c7d4-7cab-a194-b2c3afbaf8e8","","null","<div style=""display: flex; justify-content: center; align-items: center;"">
                     <img src=""images/other/blank.png"" style=""width: 300px; height: 300px;"" />
                   </div>","null","0","0","blank","",""
"","","","","","html-keyboard-response","145","822067","0.0-117.0","5BAB0A1BA15A465CB8D7448D7AA9E8FE","0199d5f1-42fb-7d22-bfdf-1dd6da1195c0","0199d5ef-c7d4-7cab-a194-b2c3afbaf8e8","","null","<div style=""display: flex; justify-content: center; align-items: center;"">
                     <img src=""images/causal/causal_series_8/causal_series_8_a.png"" style=""width: 300px; height: 300px;"" />
                   </div>","null","8","2","A","",""
"","","","","","html-keyboard-response","146","828224","0.0-118.0","5BAB0A1BA15A465CB8D7448D7AA9E8FE","0199d5f1-42fb-7d22-bfdf-1dd6da1195c0","0199d5ef-c7d4-7cab-a194-b2c3afbaf8e8","","null","<div style=""display: flex; justify-content: center; align-items: center;"">
                     <img src=""images/causal/causal_series_8/causal_series_8_b.png"" style=""width: 300px; height: 300px;"" />
                   </div>","null","8","2","B","",""
"","","","","","html-keyboard-response","147","834241","0.0-119.0","5BAB0A1BA15A465CB8D7448D7AA9E8FE","0199d5f1-42fb-7d22-bfdf-1dd6da1195c0","0199d5ef-c7d4-7cab-a194-b2c3afbaf8e8","","null","<div style=""display: flex; justify-content: center; align-items: center;"">
                     <img src=""images/causal/causal_series_8/causal_series_8_c.png"" style=""width: 300px; height: 300px;"" />
                   </div>","null","8","2","C","",""
"","","","","","html-button-response","148","836913","0.0-120.0","5BAB0A1BA15A465CB8D7448D7AA9E8FE","0199d5f1-42fb-7d22-bfdf-1dd6da1195c0","0199d5ef-c7d4-7cab-a194-b2c3afbaf8e8","","2670","
        <div style=""display: flex; justify-content: center; align-items: center;"">
          <img src=""images/red_deck_2.png"" style=""width: 300px; height: 300px; margin-right: 10px;"" />
          <img src=""images/blue_deck_1.png"" style=""width: 300px; height: 300px;"" />
        </div>","0","8","2","choice","0",""
"","","","","","html-keyboard-response","149","843268","0.0-121.0-0.0-0.0","5BAB0A1BA15A465CB8D7448D7AA9E8FE","0199d5f1-42fb-7d22-bfdf-1dd6da1195c0","0199d5ef-c7d4-7cab-a194-b2c3afbaf8e8","","null","<div style=""display: flex; justify-content: center; align-items: center;"">
                     <img src=""images/causal/causal_series_8/causal_series_8_d.png"" style=""width: 300px; height: 300px;"" />
                   </div>","null","8","2","D","",""
"","","","","","html-keyboard-response","150","849279","0.0-121.0-0.0-1.0","5BAB0A1BA15A465CB8D7448D7AA9E8FE","0199d5f1-42fb-7d22-bfdf-1dd6da1195c0","0199d5ef-c7d4-7cab-a194-b2c3afbaf8e8","","null","<div style=""display: flex; justify-content: center; align-items: center;"">
                     <img src=""images/causal/causal_series_8/causal_series_8_e.png"" style=""width: 300px; height: 300px;"" />
                   </div>","null","8","2","E","",""
"","","","","","html-keyboard-response","151","855283","0.0-121.0-0.0-2.0","5BAB0A1BA15A465CB8D7448D7AA9E8FE","0199d5f1-42fb-7d22-bfdf-1dd6da1195c0","0199d5ef-c7d4-7cab-a194-b2c3afbaf8e8","","null","<div style=""display: flex; justify-content: center; align-items: center;"">
                     <img src=""images/causal/causal_series_8/causal_series_8_f.png"" style=""width: 300px; height: 300px;"" />
                   </div>","null","8","2","F","",""
"","","","","","survey-likert","152","859545","0.0-122.0","5BAB0A1BA15A465CB8D7448D7AA9E8FE","0199d5f1-42fb-7d22-bfdf-1dd6da1195c0","0199d5ef-c7d4-7cab-a194-b2c3afbaf8e8","","4262","","{""Q0"":3}","8","2","surprise_rating","","[0]"
"","","","","","survey-likert","153","860618","0.0-123.0","5BAB0A1BA15A465CB8D7448D7AA9E8FE","0199d5f1-42fb-7d22-bfdf-1dd6da1195c0","0199d5ef-c7d4-7cab-a194-b2c3afbaf8e8","","1071","","{""Q0"":4}","8","2","enjoyment_rating","","[0]"
"","","","","","html-keyboard-response","154","866937","0.0-124.0","5BAB0A1BA15A465CB8D7448D7AA9E8FE","0199d5f1-42fb-7d22-bfdf-1dd6da1195c0","0199d5ef-c7d4-7cab-a194-b2c3afbaf8e8","","null","<div style=""display: flex; justify-content: center; align-items: center;"">
                     <img src=""images/other/blank.png"" style=""width: 300px; height: 300px;"" />
                   </div>","null","0","0","blank","",""
"","","","","","html-keyboard-response","155","872950","0.0-125.0","5BAB0A1BA15A465CB8D7448D7AA9E8FE","0199d5f1-42fb-7d22-bfdf-1dd6da1195c0","0199d5ef-c7d4-7cab-a194-b2c3afbaf8e8","","null","<div style=""display: flex; justify-content: center; align-items: center;"">
                     <img src=""images/causal/causal_series_2/causal_series_2_a.png"" style=""width: 300px; height: 300px;"" />
                   </div>","null","2","1","A","",""
"","","","","","html-keyboard-response","156","879046","0.0-126.0","5BAB0A1BA15A465CB8D7448D7AA9E8FE","0199d5f1-42fb-7d22-bfdf-1dd6da1195c0","0199d5ef-c7d4-7cab-a194-b2c3afbaf8e8","","null","<div style=""display: flex; justify-content: center; align-items: center;"">
                     <img src=""images/causal/causal_series_2/causal_series_2_b.png"" style=""width: 300px; height: 300px;"" />
                   </div>","null","2","1","B","",""
"","","","","","html-keyboard-response","157","885063","0.0-127.0","5BAB0A1BA15A465CB8D7448D7AA9E8FE","0199d5f1-42fb-7d22-bfdf-1dd6da1195c0","0199d5ef-c7d4-7cab-a194-b2c3afbaf8e8","","null","<div style=""display: flex; justify-content: center; align-items: center;"">
                     <img src=""images/causal/causal_series_2/causal_series_2_c.png"" style=""width: 300px; height: 300px;"" />
                   </div>","null","2","1","C","",""
"","","","","","html-button-response","158","887104","0.0-128.0","5BAB0A1BA15A465CB8D7448D7AA9E8FE","0199d5f1-42fb-7d22-bfdf-1dd6da1195c0","0199d5ef-c7d4-7cab-a194-b2c3afbaf8e8","","2039","
        <div style=""display: flex; justify-content: center; align-items: center;"">
          <img src=""images/red_deck_2.png"" style=""width: 300px; height: 300px; margin-right: 10px;"" />
          <img src=""images/blue_deck_1.png"" style=""width: 300px; height: 300px;"" />
        </div>","0","2","1","choice","0",""
"","","","","","html-keyboard-response","159","893105","0.0-129.0-0.0-0.0","5BAB0A1BA15A465CB8D7448D7AA9E8FE","0199d5f1-42fb-7d22-bfdf-1dd6da1195c0","0199d5ef-c7d4-7cab-a194-b2c3afbaf8e8","","null","<div style=""display: flex; justify-content: center; align-items: center;"">
                     <img src=""images/causal/causal_series_2/causal_series_2_d.png"" style=""width: 300px; height: 300px;"" />
                   </div>","null","2","1","D","",""
"","","","","","html-keyboard-response","160","899442","0.0-129.0-0.0-1.0","5BAB0A1BA15A465CB8D7448D7AA9E8FE","0199d5f1-42fb-7d22-bfdf-1dd6da1195c0","0199d5ef-c7d4-7cab-a194-b2c3afbaf8e8","","null","<div style=""display: flex; justify-content: center; align-items: center;"">
                     <img src=""images/causal/causal_series_2/causal_series_2_e.png"" style=""width: 300px; height: 300px;"" />
                   </div>","null","2","1","E","",""
"","","","","","html-keyboard-response","161","905456","0.0-129.0-0.0-2.0","5BAB0A1BA15A465CB8D7448D7AA9E8FE","0199d5f1-42fb-7d22-bfdf-1dd6da1195c0","0199d5ef-c7d4-7cab-a194-b2c3afbaf8e8","","null","<div style=""display: flex; justify-content: center; align-items: center;"">
                     <img src=""images/causal/causal_series_2/causal_series_2_f.png"" style=""width: 300px; height: 300px;"" />
                   </div>","null","2","1","F","",""
"","","","","","survey-likert","162","909019","0.0-130.0","5BAB0A1BA15A465CB8D7448D7AA9E8FE","0199d5f1-42fb-7d22-bfdf-1dd6da1195c0","0199d5ef-c7d4-7cab-a194-b2c3afbaf8e8","","3562","","{""Q0"":1}","2","1","surprise_rating","","[0]"
"","","","","","survey-likert","163","910210","0.0-131.0","5BAB0A1BA15A465CB8D7448D7AA9E8FE","0199d5f1-42fb-7d22-bfdf-1dd6da1195c0","0199d5ef-c7d4-7cab-a194-b2c3afbaf8e8","","1188","","{""Q0"":2}","2","1","enjoyment_rating","","[0]"
"","","","","","html-keyboard-response","164","916220","0.0-132.0","5BAB0A1BA15A465CB8D7448D7AA9E8FE","0199d5f1-42fb-7d22-bfdf-1dd6da1195c0","0199d5ef-c7d4-7cab-a194-b2c3afbaf8e8","","null","<div style=""display: flex; justify-content: center; align-items: center;"">
                     <img src=""images/other/blank.png"" style=""width: 300px; height: 300px;"" />
                   </div>","null","0","0","blank","",""
"","","","","","html-keyboard-response","165","922223","0.0-133.0","5BAB0A1BA15A465CB8D7448D7AA9E8FE","0199d5f1-42fb-7d22-bfdf-1dd6da1195c0","0199d5ef-c7d4-7cab-a194-b2c3afbaf8e8","","null","<div style=""display: flex; justify-content: center; align-items: center;"">
                     <img src=""images/causal/causal_series_3/causal_series_3_a.png"" style=""width: 300px; height: 300px;"" />
                   </div>","null","3","1","A","",""
"","","","","","html-keyboard-response","166","928233","0.0-134.0","5BAB0A1BA15A465CB8D7448D7AA9E8FE","0199d5f1-42fb-7d22-bfdf-1dd6da1195c0","0199d5ef-c7d4-7cab-a194-b2c3afbaf8e8","","null","<div style=""display: flex; justify-content: center; align-items: center;"">
                     <img src=""images/causal/causal_series_3/causal_series_3_b.png"" style=""width: 300px; height: 300px;"" />
                   </div>","null","3","1","B","",""
"","","","","","html-keyboard-response","167","934239","0.0-135.0","5BAB0A1BA15A465CB8D7448D7AA9E8FE","0199d5f1-42fb-7d22-bfdf-1dd6da1195c0","0199d5ef-c7d4-7cab-a194-b2c3afbaf8e8","","null","<div style=""display: flex; justify-content: center; align-items: center;"">
                     <img src=""images/causal/causal_series_3/causal_series_3_c.png"" style=""width: 300px; height: 300px;"" />
                   </div>","null","3","1","C","",""
"","","","","","html-button-response","168","937148","0.0-136.0","5BAB0A1BA15A465CB8D7448D7AA9E8FE","0199d5f1-42fb-7d22-bfdf-1dd6da1195c0","0199d5ef-c7d4-7cab-a194-b2c3afbaf8e8","","2906","
        <div style=""display: flex; justify-content: center; align-items: center;"">
          <img src=""images/red_deck_2.png"" style=""width: 300px; height: 300px; margin-right: 10px;"" />
          <img src=""images/blue_deck_1.png"" style=""width: 300px; height: 300px;"" />
        </div>","1","3","1","choice","1",""
"","","","","","html-keyboard-response","169","943165","0.0-137.0-1.0-0.0","5BAB0A1BA15A465CB8D7448D7AA9E8FE","0199d5f1-42fb-7d22-bfdf-1dd6da1195c0","0199d5ef-c7d4-7cab-a194-b2c3afbaf8e8","","null","<div style=""display: flex; justify-content: center; align-items: center;"">
                     <img src=""images/semantic/semantic_series_3/semantic_series_3_d.png"" style=""width: 300px; height: 300px;"" />
                   </div>","null","3","1","D","",""
"","","","","","html-keyboard-response","170","949179","0.0-137.0-1.0-1.0","5BAB0A1BA15A465CB8D7448D7AA9E8FE","0199d5f1-42fb-7d22-bfdf-1dd6da1195c0","0199d5ef-c7d4-7cab-a194-b2c3afbaf8e8","","null","<div style=""display: flex; justify-content: center; align-items: center;"">
                     <img src=""images/semantic/semantic_series_3/semantic_series_3_e.png"" style=""width: 300px; height: 300px;"" />
                   </div>","null","3","1","E","",""
"","","","","","html-keyboard-response","171","955519","0.0-137.0-1.0-2.0","5BAB0A1BA15A465CB8D7448D7AA9E8FE","0199d5f1-42fb-7d22-bfdf-1dd6da1195c0","0199d5ef-c7d4-7cab-a194-b2c3afbaf8e8","","null","<div style=""display: flex; justify-content: center; align-items: center;"">
                     <img src=""images/semantic/semantic_series_3/semantic_series_3_f.png"" style=""width: 300px; height: 300px;"" />
                   </div>","null","3","1","F","",""
"","","","","","survey-likert","172","962091","0.0-138.0","5BAB0A1BA15A465CB8D7448D7AA9E8FE","0199d5f1-42fb-7d22-bfdf-1dd6da1195c0","0199d5ef-c7d4-7cab-a194-b2c3afbaf8e8","","6570","","{""Q0"":3}","3","1","surprise_rating","","[0]"
"","","","","","survey-likert","173","963809","0.0-139.0","5BAB0A1BA15A465CB8D7448D7AA9E8FE","0199d5f1-42fb-7d22-bfdf-1dd6da1195c0","0199d5ef-c7d4-7cab-a194-b2c3afbaf8e8","","1715","","{""Q0"":2}","3","1","enjoyment_rating","","[0]"
"","","","","","html-keyboard-response","174","969826","0.0-140.0","5BAB0A1BA15A465CB8D7448D7AA9E8FE","0199d5f1-42fb-7d22-bfdf-1dd6da1195c0","0199d5ef-c7d4-7cab-a194-b2c3afbaf8e8","","null","<div style=""display: flex; justify-content: center; align-items: center;"">
                     <img src=""images/other/blank.png"" style=""width: 300px; height: 300px;"" />
                   </div>","null","0","0","blank","",""
"","","","","","html-keyboard-response","175","975838","0.0-141.0","5BAB0A1BA15A465CB8D7448D7AA9E8FE","0199d5f1-42fb-7d22-bfdf-1dd6da1195c0","0199d5ef-c7d4-7cab-a194-b2c3afbaf8e8","","null","<div style=""display: flex; justify-content: center; align-items: center;"">
                     <img src=""images/causal/causal_series_8/causal_series_8_a.png"" style=""width: 300px; height: 300px;"" />
                   </div>","null","8","1","A","",""
"","","","","","html-keyboard-response","176","982039","0.0-142.0","5BAB0A1BA15A465CB8D7448D7AA9E8FE","0199d5f1-42fb-7d22-bfdf-1dd6da1195c0","0199d5ef-c7d4-7cab-a194-b2c3afbaf8e8","","null","<div style=""display: flex; justify-content: center; align-items: center;"">
                     <img src=""images/causal/causal_series_8/causal_series_8_b.png"" style=""width: 300px; height: 300px;"" />
                   </div>","null","8","1","B","",""
"","","","","","html-keyboard-response","177","988050","0.0-143.0","5BAB0A1BA15A465CB8D7448D7AA9E8FE","0199d5f1-42fb-7d22-bfdf-1dd6da1195c0","0199d5ef-c7d4-7cab-a194-b2c3afbaf8e8","","null","<div style=""display: flex; justify-content: center; align-items: center;"">
                     <img src=""images/causal/causal_series_8/causal_series_8_c.png"" style=""width: 300px; height: 300px;"" />
                   </div>","null","8","1","C","",""
"","","","","","html-button-response","178","991556","0.0-144.0","5BAB0A1BA15A465CB8D7448D7AA9E8FE","0199d5f1-42fb-7d22-bfdf-1dd6da1195c0","0199d5ef-c7d4-7cab-a194-b2c3afbaf8e8","","3505","
        <div style=""display: flex; justify-content: center; align-items: center;"">
          <img src=""images/red_deck_2.png"" style=""width: 300px; height: 300px; margin-right: 10px;"" />
          <img src=""images/blue_deck_1.png"" style=""width: 300px; height: 300px;"" />
        </div>","1","8","1","choice","1",""
"","","","","","html-keyboard-response","179","997566","0.0-145.0-1.0-0.0","5BAB0A1BA15A465CB8D7448D7AA9E8FE","0199d5f1-42fb-7d22-bfdf-1dd6da1195c0","0199d5ef-c7d4-7cab-a194-b2c3afbaf8e8","","null","<div style=""display: flex; justify-content: center; align-items: center;"">
                     <img src=""images/semantic/semantic_series_8/semantic_series_8_d.png"" style=""width: 300px; height: 300px;"" />
                   </div>","null","8","1","D","",""
"","","","","","html-keyboard-response","180","1003574","0.0-145.0-1.0-1.0","5BAB0A1BA15A465CB8D7448D7AA9E8FE","0199d5f1-42fb-7d22-bfdf-1dd6da1195c0","0199d5ef-c7d4-7cab-a194-b2c3afbaf8e8","","null","<div style=""display: flex; justify-content: center; align-items: center;"">
                     <img src=""images/semantic/semantic_series_8/semantic_series_8_e.png"" style=""width: 300px; height: 300px;"" />
                   </div>","null","8","1","E","",""
"","","","","","html-keyboard-response","181","1009585","0.0-145.0-1.0-2.0","5BAB0A1BA15A465CB8D7448D7AA9E8FE","0199d5f1-42fb-7d22-bfdf-1dd6da1195c0","0199d5ef-c7d4-7cab-a194-b2c3afbaf8e8","","null","<div style=""display: flex; justify-content: center; align-items: center;"">
                     <img src=""images/semantic/semantic_series_8/semantic_series_8_f.png"" style=""width: 300px; height: 300px;"" />
                   </div>","null","8","1","F","",""
"","","","","","survey-likert","182","1016902","0.0-146.0","5BAB0A1BA15A465CB8D7448D7AA9E8FE","0199d5f1-42fb-7d22-bfdf-1dd6da1195c0","0199d5ef-c7d4-7cab-a194-b2c3afbaf8e8","","7316","","{""Q0"":2}","8","1","surprise_rating","","[0]"
"","","","","","survey-likert","183","1018411","0.0-147.0","5BAB0A1BA15A465CB8D7448D7AA9E8FE","0199d5f1-42fb-7d22-bfdf-1dd6da1195c0","0199d5ef-c7d4-7cab-a194-b2c3afbaf8e8","","1507","","{""Q0"":4}","8","1","enjoyment_rating","","[0]"
"","","","","","html-keyboard-response","184","1024429","0.0-148.0","5BAB0A1BA15A465CB8D7448D7AA9E8FE","0199d5f1-42fb-7d22-bfdf-1dd6da1195c0","0199d5ef-c7d4-7cab-a194-b2c3afbaf8e8","","null","<div style=""display: flex; justify-content: center; align-items: center;"">
                     <img src=""images/other/blank.png"" style=""width: 300px; height: 300px;"" />
                   </div>","null","0","0","blank","",""
"","","","","","html-keyboard-response","185","1030435","0.0-149.0","5BAB0A1BA15A465CB8D7448D7AA9E8FE","0199d5f1-42fb-7d22-bfdf-1dd6da1195c0","0199d5ef-c7d4-7cab-a194-b2c3afbaf8e8","","null","<div style=""display: flex; justify-content: center; align-items: center;"">
                     <img src=""images/causal/causal_series_10/causal_series_10_a.png"" style=""width: 300px; height: 300px;"" />
                   </div>","null","10","2","A","",""
"","","","","","html-keyboard-response","186","1036457","0.0-150.0","5BAB0A1BA15A465CB8D7448D7AA9E8FE","0199d5f1-42fb-7d22-bfdf-1dd6da1195c0","0199d5ef-c7d4-7cab-a194-b2c3afbaf8e8","","null","<div style=""display: flex; justify-content: center; align-items: center;"">
                     <img src=""images/causal/causal_series_10/causal_series_10_b.png"" style=""width: 300px; height: 300px;"" />
                   </div>","null","10","2","B","",""
"","","","","","html-keyboard-response","187","1042465","0.0-151.0","5BAB0A1BA15A465CB8D7448D7AA9E8FE","0199d5f1-42fb-7d22-bfdf-1dd6da1195c0","0199d5ef-c7d4-7cab-a194-b2c3afbaf8e8","","null","<div style=""display: flex; justify-content: center; align-items: center;"">
                     <img src=""images/causal/causal_series_10/causal_series_10_c.png"" style=""width: 300px; height: 300px;"" />
                   </div>","null","10","2","C","",""
"","","","","","html-button-response","188","1044691","0.0-152.0","5BAB0A1BA15A465CB8D7448D7AA9E8FE","0199d5f1-42fb-7d22-bfdf-1dd6da1195c0","0199d5ef-c7d4-7cab-a194-b2c3afbaf8e8","","2225","
        <div style=""display: flex; justify-content: center; align-items: center;"">
          <img src=""images/red_deck_2.png"" style=""width: 300px; height: 300px; margin-right: 10px;"" />
          <img src=""images/blue_deck_1.png"" style=""width: 300px; height: 300px;"" />
        </div>","0","10","2","choice","0",""
"","","","","","html-keyboard-response","189","1050703","0.0-153.0-0.0-0.0","5BAB0A1BA15A465CB8D7448D7AA9E8FE","0199d5f1-42fb-7d22-bfdf-1dd6da1195c0","0199d5ef-c7d4-7cab-a194-b2c3afbaf8e8","","null","<div style=""display: flex; justify-content: center; align-items: center;"">
                     <img src=""images/causal/causal_series_10/causal_series_10_d.png"" style=""width: 300px; height: 300px;"" />
                   </div>","null","10","2","D","",""
"","","","","","html-keyboard-response","190","1056708","0.0-153.0-0.0-1.0","5BAB0A1BA15A465CB8D7448D7AA9E8FE","0199d5f1-42fb-7d22-bfdf-1dd6da1195c0","0199d5ef-c7d4-7cab-a194-b2c3afbaf8e8","","null","<div style=""display: flex; justify-content: center; align-items: center;"">
                     <img src=""images/causal/causal_series_10/causal_series_10_e.png"" style=""width: 300px; height: 300px;"" />
                   </div>","null","10","2","E","",""
"","","","","","html-keyboard-response","191","1062893","0.0-153.0-0.0-2.0","5BAB0A1BA15A465CB8D7448D7AA9E8FE","0199d5f1-42fb-7d22-bfdf-1dd6da1195c0","0199d5ef-c7d4-7cab-a194-b2c3afbaf8e8","","null","<div style=""display: flex; justify-content: center; align-items: center;"">
                     <img src=""images/causal/causal_series_10/causal_series_10_f.png"" style=""width: 300px; height: 300px;"" />
                   </div>","null","10","2","F","",""
"","","","","","survey-likert","192","1067432","0.0-154.0","5BAB0A1BA15A465CB8D7448D7AA9E8FE","0199d5f1-42fb-7d22-bfdf-1dd6da1195c0","0199d5ef-c7d4-7cab-a194-b2c3afbaf8e8","","4539","","{""Q0"":2}","10","2","surprise_rating","","[0]"
"","","","","","survey-likert","193","1068363","0.0-155.0","5BAB0A1BA15A465CB8D7448D7AA9E8FE","0199d5f1-42fb-7d22-bfdf-1dd6da1195c0","0199d5ef-c7d4-7cab-a194-b2c3afbaf8e8","","928","","{""Q0"":3}","10","2","enjoyment_rating","","[0]"
"","","","","","html-keyboard-response","194","1074378","0.0-156.0","5BAB0A1BA15A465CB8D7448D7AA9E8FE","0199d5f1-42fb-7d22-bfdf-1dd6da1195c0","0199d5ef-c7d4-7cab-a194-b2c3afbaf8e8","","null","<div style=""display: flex; justify-content: center; align-items: center;"">
                     <img src=""images/other/blank.png"" style=""width: 300px; height: 300px;"" />
                   </div>","null","0","0","blank","",""
"","","","","","html-keyboard-response","195","1080380","0.0-157.0","5BAB0A1BA15A465CB8D7448D7AA9E8FE","0199d5f1-42fb-7d22-bfdf-1dd6da1195c0","0199d5ef-c7d4-7cab-a194-b2c3afbaf8e8","","null","<div style=""display: flex; justify-content: center; align-items: center;"">
                     <img src=""images/causal/causal_series_5/causal_series_5_a.png"" style=""width: 300px; height: 300px;"" />
                   </div>","null","5","1","A","",""
"","","","","","html-keyboard-response","196","1086458","0.0-158.0","5BAB0A1BA15A465CB8D7448D7AA9E8FE","0199d5f1-42fb-7d22-bfdf-1dd6da1195c0","0199d5ef-c7d4-7cab-a194-b2c3afbaf8e8","","null","<div style=""display: flex; justify-content: center; align-items: center;"">
                     <img src=""images/causal/causal_series_5/causal_series_5_b.png"" style=""width: 300px; height: 300px;"" />
                   </div>","null","5","1","B","",""
"","","","","","html-keyboard-response","197","1092463","0.0-159.0","5BAB0A1BA15A465CB8D7448D7AA9E8FE","0199d5f1-42fb-7d22-bfdf-1dd6da1195c0","0199d5ef-c7d4-7cab-a194-b2c3afbaf8e8","","null","<div style=""display: flex; justify-content: center; align-items: center;"">
                     <img src=""images/causal/causal_series_5/causal_series_5_c.png"" style=""width: 300px; height: 300px;"" />
                   </div>","null","5","1","C","",""
"","","","","","html-button-response","198","1093978","0.0-160.0","5BAB0A1BA15A465CB8D7448D7AA9E8FE","0199d5f1-42fb-7d22-bfdf-1dd6da1195c0","0199d5ef-c7d4-7cab-a194-b2c3afbaf8e8","","1514","
        <div style=""display: flex; justify-content: center; align-items: center;"">
          <img src=""images/red_deck_2.png"" style=""width: 300px; height: 300px; margin-right: 10px;"" />
          <img src=""images/blue_deck_1.png"" style=""width: 300px; height: 300px;"" />
        </div>","0","5","1","choice","0",""
"","","","","","html-keyboard-response","199","1099990","0.0-161.0-0.0-0.0","5BAB0A1BA15A465CB8D7448D7AA9E8FE","0199d5f1-42fb-7d22-bfdf-1dd6da1195c0","0199d5ef-c7d4-7cab-a194-b2c3afbaf8e8","","null","<div style=""display: flex; justify-content: center; align-items: center;"">
                     <img src=""images/causal/causal_series_5/causal_series_5_d.png"" style=""width: 300px; height: 300px;"" />
                   </div>","null","5","1","D","",""
"","","","","","html-keyboard-response","200","1105993","0.0-161.0-0.0-1.0","5BAB0A1BA15A465CB8D7448D7AA9E8FE","0199d5f1-42fb-7d22-bfdf-1dd6da1195c0","0199d5ef-c7d4-7cab-a194-b2c3afbaf8e8","","null","<div style=""display: flex; justify-content: center; align-items: center;"">
                     <img src=""images/causal/causal_series_5/causal_series_5_e.png"" style=""width: 300px; height: 300px;"" />
                   </div>","null","5","1","E","",""
"","","","","","html-keyboard-response","201","1112005","0.0-161.0-0.0-2.0","5BAB0A1BA15A465CB8D7448D7AA9E8FE","0199d5f1-42fb-7d22-bfdf-1dd6da1195c0","0199d5ef-c7d4-7cab-a194-b2c3afbaf8e8","","null","<div style=""display: flex; justify-content: center; align-items: center;"">
                     <img src=""images/causal/causal_series_5/causal_series_5_f.png"" style=""width: 300px; height: 300px;"" />
                   </div>","null","5","1","F","",""
"","","","","","survey-likert","202","1115342","0.0-162.0","5BAB0A1BA15A465CB8D7448D7AA9E8FE","0199d5f1-42fb-7d22-bfdf-1dd6da1195c0","0199d5ef-c7d4-7cab-a194-b2c3afbaf8e8","","3338","","{""Q0"":2}","5","1","surprise_rating","","[0]"
"","","","","","survey-likert","203","1116203","0.0-163.0","5BAB0A1BA15A465CB8D7448D7AA9E8FE","0199d5f1-42fb-7d22-bfdf-1dd6da1195c0","0199d5ef-c7d4-7cab-a194-b2c3afbaf8e8","","859","","{""Q0"":1}","5","1","enjoyment_rating","","[0]"
"","","","","","html-keyboard-response","204","1122853","0.0-164.0","5BAB0A1BA15A465CB8D7448D7AA9E8FE","0199d5f1-42fb-7d22-bfdf-1dd6da1195c0","0199d5ef-c7d4-7cab-a194-b2c3afbaf8e8","","null","<div style=""display: flex; justify-content: center; align-items: center;"">
                     <img src=""images/other/blank.png"" style=""width: 300px; height: 300px;"" />
                   </div>","null","0","0","blank","",""
"","","","","","survey-text","205","1133817","0.0-165.0","5BAB0A1BA15A465CB8D7448D7AA9E8FE","0199d5f1-42fb-7d22-bfdf-1dd6da1195c0","0199d5ef-c7d4-7cab-a194-b2c3afbaf8e8","","10960","","{""Q0"":""One deck of cards is red and the other is blue.""}","","","","",""
"","","","","","html-button-response","206","1141510","0.0-166.0","5BAB0A1BA15A465CB8D7448D7AA9E8FE","0199d5f1-42fb-7d22-bfdf-1dd6da1195c0","0199d5ef-c7d4-7cab-a194-b2c3afbaf8e8","","7691","Which color deck do the following sentences continue the story from?","1","","","","",""
"","","","","","html-button-response","207","1143194","0.0-167.0","5BAB0A1BA15A465CB8D7448D7AA9E8FE","0199d5f1-42fb-7d22-bfdf-1dd6da1195c0","0199d5ef-c7d4-7cab-a194-b2c3afbaf8e8","","1682","Which color deck do the following sentences NOT follow the story from?","0","","","","",""
"","","","","","html-button-response","208","1147691","0.0-168.0","5BAB0A1BA15A465CB8D7448D7AA9E8FE","0199d5f1-42fb-7d22-bfdf-1dd6da1195c0","0199d5ef-c7d4-7cab-a194-b2c3afbaf8e8","","4496","Which type of deck did you prefer overall?","0","","","","",""
"","","","","","survey-text","209","1151001","0.0-169.0","5BAB0A1BA15A465CB8D7448D7AA9E8FE","0199d5f1-42fb-7d22-bfdf-1dd6da1195c0","0199d5ef-c7d4-7cab-a194-b2c3afbaf8e8","","3306","","{""Q0"":""Male"",""Q1"":""24""}","","","","",""
"","","","","","instructions","210","1154323","0.0-170.0","5BAB0A1BA15A465CB8D7448D7AA9E8FE","0199d5f1-42fb-7d22-bfdf-1dd6da1195c0","0199d5ef-c7d4-7cab-a194-b2c3afbaf8e8","[{""page_index"":0,""viewing_time"":3320}]","3320","","","","","","",""
