"success","timeout","failed_images","failed_audio","failed_video","trial_type","trial_index","time_elapsed","internal_node_id","subject_id","study_id","session_id","view_history","rt","stimulus","response","choice"
"true","false","[]","[]","[]","preload","0","2791","0.0-0.0","C55562B9C9CC46768E9D61FBE7E6D3C6","bc3b10a5-6d71-45fc-8069-a9f27f54fd00","1272127f-799a-421a-a013-ec2b24556620","","","","",""
"","","","","","instructions","1","5631","0.0-1.0","C55562B9C9CC46768E9D61FBE7E6D3C6","bc3b10a5-6d71-45fc-8069-a9f27f54fd00","1272127f-799a-421a-a013-ec2b24556620","[{""page_index"":0,""viewing_time"":2839}]","2839","","",""
"","","","","","instructions","2","8370","0.0-2.0","C55562B9C9CC46768E9D61FBE7E6D3C6","bc3b10a5-6d71-45fc-8069-a9f27f54fd00","1272127f-799a-421a-a013-ec2b24556620","[{""page_index"":0,""viewing_time"":2739}]","2739","","",""
"true","","","","","fullscreen","3","10813","0.0-3.0","C55562B9C9CC46768E9D61FBE7E6D3C6","bc3b10a5-6d71-45fc-8069-a9f27f54fd00","1272127f-799a-421a-a013-ec2b24556620","","1438","","",""
"","","","","","instructions","4","17155","0.0-4.0","C55562B9C9CC46768E9D61FBE7E6D3C6","bc3b10a5-6d71-45fc-8069-a9f27f54fd00","1272127f-799a-421a-a013-ec2b24556620","[{""page_index"":0,""viewing_time"":6341}]","6341","","",""
"","","","","","html-keyboard-response","5","20166","0.0-5.0","C55562B9C9CC46768E9D61FBE7E6D3C6","bc3b10a5-6d71-45fc-8069-a9f27f54fd00","1272127f-799a-421a-a013-ec2b24556620","","null","<div style=""display: flex; justify-content: center; align-items: center;"">
                <img src=""images/causal/causal_series_7/causal_series_7_a.jpg"" style=""width: 300px; height: 300px;"" />
              </div>","null",""
"","","","","","html-keyboard-response","6","23168","0.0-6.0","C55562B9C9CC46768E9D61FBE7E6D3C6","bc3b10a5-6d71-45fc-8069-a9f27f54fd00","1272127f-799a-421a-a013-ec2b24556620","","null","<div style=""display: flex; justify-content: center; align-items: center;"">
                <img src=""images/causal/causal_series_7/causal_series_7_b.jpg"" style=""width: 300px; height: 300px;"" />
              </div>","null",""
"","","","","","html-keyboard-response","7","26183","0.0-7.0","C55562B9C9CC46768E9D61FBE7E6D3C6","bc3b10a5-6d71-45fc-8069-a9f27f54fd00","1272127f-799a-421a-a013-ec2b24556620","","null","<div style=""display: flex; justify-content: center; align-items: center;"">
                <img src=""images/causal/causal_series_7/causal_series_7_c.jpg"" style=""width: 300px; height: 300px;"" />
              </div>","null",""
"","","","","","html-button-response","8","29053","0.0-8.0","C55562B9C9CC46768E9D61FBE7E6D3C6","bc3b10a5-6d71-45fc-8069-a9f27f54fd00","1272127f-799a-421a-a013-ec2b24556620","","2869","
    <div style=""display: flex; justify-content: center; align-items: center;"">
      <img src=""images/red_deck_2.png"" style=""width: 300px; height: 300px; margin-right: 10px;"" />
      <img src=""images/blue_deck_1.png"" style=""width: 300px; height: 300px;"" />
    </div>","0","0"
"","","","","","html-keyboard-response","9","32068","0.0-9.0-0.0-0.0","C55562B9C9CC46768E9D61FBE7E6D3C6","bc3b10a5-6d71-45fc-8069-a9f27f54fd00","1272127f-799a-421a-a013-ec2b24556620","","null","<div style=""display: flex; justify-content: center; align-items: center;"">
                <img src=""images/causal/causal_series_7/causal_series_7_d.jpg"" style=""width: 300px; height: 300px;"" />
              </div>","null",""
"","","","","","html-keyboard-response","10","35077","0.0-10.0","C55562B9C9CC46768E9D61FBE7E6D3C6","bc3b10a5-6d71-45fc-8069-a9f27f54fd00","1272127f-799a-421a-a013-ec2b24556620","","null","<div style=""display: flex; justify-content: center; align-items: center;"">
                <img src=""images/other/blank.jpg"" style=""width: 300px; height: 300px;"" />
              </div>","null",""
"","","","","","html-keyboard-response","11","38088","0.0-11.0","C55562B9C9CC46768E9D61FBE7E6D3C6","bc3b10a5-6d71-45fc-8069-a9f27f54fd00","1272127f-799a-421a-a013-ec2b24556620","","null","<div style=""display: flex; justify-content: center; align-items: center;"">
                <img src=""images/causal/causal_series_17/causal_series_17_a.jpg"" style=""width: 300px; height: 300px;"" />
              </div>","null",""
"","","","","","html-keyboard-response","12","41093","0.0-12.0","C55562B9C9CC46768E9D61FBE7E6D3C6","bc3b10a5-6d71-45fc-8069-a9f27f54fd00","1272127f-799a-421a-a013-ec2b24556620","","null","<div style=""display: flex; justify-content: center; align-items: center;"">
                <img src=""images/causal/causal_series_17/causal_series_17_b.jpg"" style=""width: 300px; height: 300px;"" />
              </div>","null",""
"","","","","","html-keyboard-response","13","44108","0.0-13.0","C55562B9C9CC46768E9D61FBE7E6D3C6","bc3b10a5-6d71-45fc-8069-a9f27f54fd00","1272127f-799a-421a-a013-ec2b24556620","","null","<div style=""display: flex; justify-content: center; align-items: center;"">
                <img src=""images/causal/causal_series_17/causal_series_17_c.jpg"" style=""width: 300px; height: 300px;"" />
              </div>","null",""
"","","","","","html-button-response","14","47427","0.0-14.0","C55562B9C9CC46768E9D61FBE7E6D3C6","bc3b10a5-6d71-45fc-8069-a9f27f54fd00","1272127f-799a-421a-a013-ec2b24556620","","3318","
    <div style=""display: flex; justify-content: center; align-items: center;"">
      <img src=""images/red_deck_2.png"" style=""width: 300px; height: 300px; margin-right: 10px;"" />
      <img src=""images/blue_deck_1.png"" style=""width: 300px; height: 300px;"" />
    </div>","1","1"
"","","","","","html-keyboard-response","15","50441","0.0-15.0-1.0-0.0","C55562B9C9CC46768E9D61FBE7E6D3C6","bc3b10a5-6d71-45fc-8069-a9f27f54fd00","1272127f-799a-421a-a013-ec2b24556620","","null","<div style=""display: flex; justify-content: center; align-items: center;"">
                <img src=""images/semantic/semantic_series_16/semantic_series_16_d.jpg"" style=""width: 300px; height: 300px;"" />
              </div>","null",""
"","","","","","html-keyboard-response","16","53445","0.0-16.0","C55562B9C9CC46768E9D61FBE7E6D3C6","bc3b10a5-6d71-45fc-8069-a9f27f54fd00","1272127f-799a-421a-a013-ec2b24556620","","null","<div style=""display: flex; justify-content: center; align-items: center;"">
                <img src=""images/other/blank.jpg"" style=""width: 300px; height: 300px;"" />
              </div>","null",""
"","","","","","html-keyboard-response","17","56461","0.0-17.0","C55562B9C9CC46768E9D61FBE7E6D3C6","bc3b10a5-6d71-45fc-8069-a9f27f54fd00","1272127f-799a-421a-a013-ec2b24556620","","null","<div style=""display: flex; justify-content: center; align-items: center;"">
                <img src=""images/causal/causal_series_4/causal_series_4_a.jpg"" style=""width: 300px; height: 300px;"" />
              </div>","null",""
"","","","","","html-keyboard-response","18","59471","0.0-18.0","C55562B9C9CC46768E9D61FBE7E6D3C6","bc3b10a5-6d71-45fc-8069-a9f27f54fd00","1272127f-799a-421a-a013-ec2b24556620","","null","<div style=""display: flex; justify-content: center; align-items: center;"">
                <img src=""images/causal/causal_series_4/causal_series_4_b.jpg"" style=""width: 300px; height: 300px;"" />
              </div>","null",""
"","","","","","html-keyboard-response","19","62483","0.0-19.0","C55562B9C9CC46768E9D61FBE7E6D3C6","bc3b10a5-6d71-45fc-8069-a9f27f54fd00","1272127f-799a-421a-a013-ec2b24556620","","null","<div style=""display: flex; justify-content: center; align-items: center;"">
                <img src=""images/causal/causal_series_4/causal_series_4_c.jpg"" style=""width: 300px; height: 300px;"" />
              </div>","null",""
"","","","","","html-button-response","20","65532","0.0-20.0","C55562B9C9CC46768E9D61FBE7E6D3C6","bc3b10a5-6d71-45fc-8069-a9f27f54fd00","1272127f-799a-421a-a013-ec2b24556620","","3048","
    <div style=""display: flex; justify-content: center; align-items: center;"">
      <img src=""images/red_deck_2.png"" style=""width: 300px; height: 300px; margin-right: 10px;"" />
      <img src=""images/blue_deck_1.png"" style=""width: 300px; height: 300px;"" />
    </div>","0","0"
"","","","","","html-keyboard-response","21","68535","0.0-21.0-0.0-0.0","C55562B9C9CC46768E9D61FBE7E6D3C6","bc3b10a5-6d71-45fc-8069-a9f27f54fd00","1272127f-799a-421a-a013-ec2b24556620","","null","<div style=""display: flex; justify-content: center; align-items: center;"">
                <img src=""images/causal/causal_series_4/causal_series_4_d.jpg"" style=""width: 300px; height: 300px;"" />
              </div>","null",""
"","","","","","html-keyboard-response","22","71551","0.0-22.0","C55562B9C9CC46768E9D61FBE7E6D3C6","bc3b10a5-6d71-45fc-8069-a9f27f54fd00","1272127f-799a-421a-a013-ec2b24556620","","null","<div style=""display: flex; justify-content: center; align-items: center;"">
                <img src=""images/other/blank.jpg"" style=""width: 300px; height: 300px;"" />
              </div>","null",""
"","","","","","html-keyboard-response","23","74557","0.0-23.0","C55562B9C9CC46768E9D61FBE7E6D3C6","bc3b10a5-6d71-45fc-8069-a9f27f54fd00","1272127f-799a-421a-a013-ec2b24556620","","null","<div style=""display: flex; justify-content: center; align-items: center;"">
                <img src=""images/causal/causal_series_2/causal_series_2_a.jpg"" style=""width: 300px; height: 300px;"" />
              </div>","null",""
"","","","","","html-keyboard-response","24","77558","0.0-24.0","C55562B9C9CC46768E9D61FBE7E6D3C6","bc3b10a5-6d71-45fc-8069-a9f27f54fd00","1272127f-799a-421a-a013-ec2b24556620","","null","<div style=""display: flex; justify-content: center; align-items: center;"">
                <img src=""images/causal/causal_series_2/causal_series_2_b.jpg"" style=""width: 300px; height: 300px;"" />
              </div>","null",""
"","","","","","html-keyboard-response","25","80560","0.0-25.0","C55562B9C9CC46768E9D61FBE7E6D3C6","bc3b10a5-6d71-45fc-8069-a9f27f54fd00","1272127f-799a-421a-a013-ec2b24556620","","null","<div style=""display: flex; justify-content: center; align-items: center;"">
                <img src=""images/causal/causal_series_2/causal_series_2_c.jpg"" style=""width: 300px; height: 300px;"" />
              </div>","null",""
"","","","","","html-button-response","26","83045","0.0-26.0","C55562B9C9CC46768E9D61FBE7E6D3C6","bc3b10a5-6d71-45fc-8069-a9f27f54fd00","1272127f-799a-421a-a013-ec2b24556620","","2484","
    <div style=""display: flex; justify-content: center; align-items: center;"">
      <img src=""images/red_deck_2.png"" style=""width: 300px; height: 300px; margin-right: 10px;"" />
      <img src=""images/blue_deck_1.png"" style=""width: 300px; height: 300px;"" />
    </div>","1","1"
"","","","","","html-keyboard-response","27","86058","0.0-27.0-1.0-0.0","C55562B9C9CC46768E9D61FBE7E6D3C6","bc3b10a5-6d71-45fc-8069-a9f27f54fd00","1272127f-799a-421a-a013-ec2b24556620","","null","<div style=""display: flex; justify-content: center; align-items: center;"">
                <img src=""images/semantic/semantic_series_1/semantic_series_1_d.jpg"" style=""width: 300px; height: 300px;"" />
              </div>","null",""
"","","","","","html-keyboard-response","28","89068","0.0-28.0","C55562B9C9CC46768E9D61FBE7E6D3C6","bc3b10a5-6d71-45fc-8069-a9f27f54fd00","1272127f-799a-421a-a013-ec2b24556620","","null","<div style=""display: flex; justify-content: center; align-items: center;"">
                <img src=""images/other/blank.jpg"" style=""width: 300px; height: 300px;"" />
              </div>","null",""
"","","","","","html-keyboard-response","29","92082","0.0-29.0","C55562B9C9CC46768E9D61FBE7E6D3C6","bc3b10a5-6d71-45fc-8069-a9f27f54fd00","1272127f-799a-421a-a013-ec2b24556620","","null","<div style=""display: flex; justify-content: center; align-items: center;"">
                <img src=""images/causal/causal_series_8/causal_series_8_a.jpg"" style=""width: 300px; height: 300px;"" />
              </div>","null",""
"","","","","","html-keyboard-response","30","95093","0.0-30.0","C55562B9C9CC46768E9D61FBE7E6D3C6","bc3b10a5-6d71-45fc-8069-a9f27f54fd00","1272127f-799a-421a-a013-ec2b24556620","","null","<div style=""display: flex; justify-content: center; align-items: center;"">
                <img src=""images/causal/causal_series_8/causal_series_8_b.jpg"" style=""width: 300px; height: 300px;"" />
              </div>","null",""
"","","","","","html-keyboard-response","31","98103","0.0-31.0","C55562B9C9CC46768E9D61FBE7E6D3C6","bc3b10a5-6d71-45fc-8069-a9f27f54fd00","1272127f-799a-421a-a013-ec2b24556620","","null","<div style=""display: flex; justify-content: center; align-items: center;"">
                <img src=""images/causal/causal_series_8/causal_series_8_c.jpg"" style=""width: 300px; height: 300px;"" />
              </div>","null",""
"","","","","","html-button-response","32","101427","0.0-32.0","C55562B9C9CC46768E9D61FBE7E6D3C6","bc3b10a5-6d71-45fc-8069-a9f27f54fd00","1272127f-799a-421a-a013-ec2b24556620","","3323","
    <div style=""display: flex; justify-content: center; align-items: center;"">
      <img src=""images/red_deck_2.png"" style=""width: 300px; height: 300px; margin-right: 10px;"" />
      <img src=""images/blue_deck_1.png"" style=""width: 300px; height: 300px;"" />
    </div>","1","1"
"","","","","","html-keyboard-response","33","104442","0.0-33.0-1.0-0.0","C55562B9C9CC46768E9D61FBE7E6D3C6","bc3b10a5-6d71-45fc-8069-a9f27f54fd00","1272127f-799a-421a-a013-ec2b24556620","","null","<div style=""display: flex; justify-content: center; align-items: center;"">
                <img src=""images/semantic/semantic_series_7/semantic_series_7_d.jpg"" style=""width: 300px; height: 300px;"" />
              </div>","null",""
"","","","","","html-keyboard-response","34","107454","0.0-34.0","C55562B9C9CC46768E9D61FBE7E6D3C6","bc3b10a5-6d71-45fc-8069-a9f27f54fd00","1272127f-799a-421a-a013-ec2b24556620","","null","<div style=""display: flex; justify-content: center; align-items: center;"">
                <img src=""images/other/blank.jpg"" style=""width: 300px; height: 300px;"" />
              </div>","null",""
"","","","","","html-keyboard-response","35","110464","0.0-35.0","C55562B9C9CC46768E9D61FBE7E6D3C6","bc3b10a5-6d71-45fc-8069-a9f27f54fd00","1272127f-799a-421a-a013-ec2b24556620","","null","<div style=""display: flex; justify-content: center; align-items: center;"">
                <img src=""images/causal/causal_series_3/causal_series_3_a.jpg"" style=""width: 300px; height: 300px;"" />
              </div>","null",""
"","","","","","html-keyboard-response","36","113479","0.0-36.0","C55562B9C9CC46768E9D61FBE7E6D3C6","bc3b10a5-6d71-45fc-8069-a9f27f54fd00","1272127f-799a-421a-a013-ec2b24556620","","null","<div style=""display: flex; justify-content: center; align-items: center;"">
                <img src=""images/causal/causal_series_3/causal_series_3_b.jpg"" style=""width: 300px; height: 300px;"" />
              </div>","null",""
"","","","","","html-keyboard-response","37","116489","0.0-37.0","C55562B9C9CC46768E9D61FBE7E6D3C6","bc3b10a5-6d71-45fc-8069-a9f27f54fd00","1272127f-799a-421a-a013-ec2b24556620","","null","<div style=""display: flex; justify-content: center; align-items: center;"">
                <img src=""images/causal/causal_series_3/causal_series_3_c.jpg"" style=""width: 300px; height: 300px;"" />
              </div>","null",""
"","","","","","html-button-response","38","120532","0.0-38.0","C55562B9C9CC46768E9D61FBE7E6D3C6","bc3b10a5-6d71-45fc-8069-a9f27f54fd00","1272127f-799a-421a-a013-ec2b24556620","","4043","
    <div style=""display: flex; justify-content: center; align-items: center;"">
      <img src=""images/red_deck_2.png"" style=""width: 300px; height: 300px; margin-right: 10px;"" />
      <img src=""images/blue_deck_1.png"" style=""width: 300px; height: 300px;"" />
    </div>","1","1"
"","","","","","html-keyboard-response","39","123548","0.0-39.0-1.0-0.0","C55562B9C9CC46768E9D61FBE7E6D3C6","bc3b10a5-6d71-45fc-8069-a9f27f54fd00","1272127f-799a-421a-a013-ec2b24556620","","null","<div style=""display: flex; justify-content: center; align-items: center;"">
                <img src=""images/semantic/semantic_series_2/semantic_series_2_d.jpg"" style=""width: 300px; height: 300px;"" />
              </div>","null",""
"","","","","","html-keyboard-response","40","126550","0.0-40.0","C55562B9C9CC46768E9D61FBE7E6D3C6","bc3b10a5-6d71-45fc-8069-a9f27f54fd00","1272127f-799a-421a-a013-ec2b24556620","","null","<div style=""display: flex; justify-content: center; align-items: center;"">
                <img src=""images/other/blank.jpg"" style=""width: 300px; height: 300px;"" />
              </div>","null",""
"","","","","","html-keyboard-response","41","129564","0.0-41.0","C55562B9C9CC46768E9D61FBE7E6D3C6","bc3b10a5-6d71-45fc-8069-a9f27f54fd00","1272127f-799a-421a-a013-ec2b24556620","","null","<div style=""display: flex; justify-content: center; align-items: center;"">
                <img src=""images/causal/causal_series_14/causal_series_14_a.jpg"" style=""width: 300px; height: 300px;"" />
              </div>","null",""
"","","","","","html-keyboard-response","42","132580","0.0-42.0","C55562B9C9CC46768E9D61FBE7E6D3C6","bc3b10a5-6d71-45fc-8069-a9f27f54fd00","1272127f-799a-421a-a013-ec2b24556620","","null","<div style=""display: flex; justify-content: center; align-items: center;"">
                <img src=""images/causal/causal_series_14/causal_series_14_b.jpg"" style=""width: 300px; height: 300px;"" />
              </div>","null",""
"","","","","","html-keyboard-response","43","135586","0.0-43.0","C55562B9C9CC46768E9D61FBE7E6D3C6","bc3b10a5-6d71-45fc-8069-a9f27f54fd00","1272127f-799a-421a-a013-ec2b24556620","","null","<div style=""display: flex; justify-content: center; align-items: center;"">
                <img src=""images/causal/causal_series_14/causal_series_14_c.jpg"" style=""width: 300px; height: 300px;"" />
              </div>","null",""
"","","","","","html-button-response","44","139380","0.0-44.0","C55562B9C9CC46768E9D61FBE7E6D3C6","bc3b10a5-6d71-45fc-8069-a9f27f54fd00","1272127f-799a-421a-a013-ec2b24556620","","3794","
    <div style=""display: flex; justify-content: center; align-items: center;"">
      <img src=""images/red_deck_2.png"" style=""width: 300px; height: 300px; margin-right: 10px;"" />
      <img src=""images/blue_deck_1.png"" style=""width: 300px; height: 300px;"" />
    </div>","0","0"
"","","","","","html-keyboard-response","45","142382","0.0-45.0-0.0-0.0","C55562B9C9CC46768E9D61FBE7E6D3C6","bc3b10a5-6d71-45fc-8069-a9f27f54fd00","1272127f-799a-421a-a013-ec2b24556620","","null","<div style=""display: flex; justify-content: center; align-items: center;"">
                <img src=""images/causal/causal_series_14/causal_series_14_d.jpg"" style=""width: 300px; height: 300px;"" />
              </div>","null",""
"","","","","","html-keyboard-response","46","145389","0.0-46.0","C55562B9C9CC46768E9D61FBE7E6D3C6","bc3b10a5-6d71-45fc-8069-a9f27f54fd00","1272127f-799a-421a-a013-ec2b24556620","","null","<div style=""display: flex; justify-content: center; align-items: center;"">
                <img src=""images/other/blank.jpg"" style=""width: 300px; height: 300px;"" />
              </div>","null",""
"","","","","","html-keyboard-response","47","148403","0.0-47.0","C55562B9C9CC46768E9D61FBE7E6D3C6","bc3b10a5-6d71-45fc-8069-a9f27f54fd00","1272127f-799a-421a-a013-ec2b24556620","","null","<div style=""display: flex; justify-content: center; align-items: center;"">
                <img src=""images/causal/causal_series_6/causal_series_6_a.jpg"" style=""width: 300px; height: 300px;"" />
              </div>","null",""
"","","","","","html-keyboard-response","48","151405","0.0-48.0","C55562B9C9CC46768E9D61FBE7E6D3C6","bc3b10a5-6d71-45fc-8069-a9f27f54fd00","1272127f-799a-421a-a013-ec2b24556620","","null","<div style=""display: flex; justify-content: center; align-items: center;"">
                <img src=""images/causal/causal_series_6/causal_series_6_b.jpg"" style=""width: 300px; height: 300px;"" />
              </div>","null",""
"","","","","","html-keyboard-response","49","154414","0.0-49.0","C55562B9C9CC46768E9D61FBE7E6D3C6","bc3b10a5-6d71-45fc-8069-a9f27f54fd00","1272127f-799a-421a-a013-ec2b24556620","","null","<div style=""display: flex; justify-content: center; align-items: center;"">
                <img src=""images/causal/causal_series_6/causal_series_6_c.jpg"" style=""width: 300px; height: 300px;"" />
              </div>","null",""
"","","","","","html-button-response","50","157989","0.0-50.0","C55562B9C9CC46768E9D61FBE7E6D3C6","bc3b10a5-6d71-45fc-8069-a9f27f54fd00","1272127f-799a-421a-a013-ec2b24556620","","3575","
    <div style=""display: flex; justify-content: center; align-items: center;"">
      <img src=""images/red_deck_2.png"" style=""width: 300px; height: 300px; margin-right: 10px;"" />
      <img src=""images/blue_deck_1.png"" style=""width: 300px; height: 300px;"" />
    </div>","1","1"
"","","","","","html-keyboard-response","51","160993","0.0-51.0-1.0-0.0","C55562B9C9CC46768E9D61FBE7E6D3C6","bc3b10a5-6d71-45fc-8069-a9f27f54fd00","1272127f-799a-421a-a013-ec2b24556620","","null","<div style=""display: flex; justify-content: center; align-items: center;"">
                <img src=""images/semantic/semantic_series_5/semantic_series_5_d.jpg"" style=""width: 300px; height: 300px;"" />
              </div>","null",""
"","","","","","html-keyboard-response","52","164005","0.0-52.0","C55562B9C9CC46768E9D61FBE7E6D3C6","bc3b10a5-6d71-45fc-8069-a9f27f54fd00","1272127f-799a-421a-a013-ec2b24556620","","null","<div style=""display: flex; justify-content: center; align-items: center;"">
                <img src=""images/other/blank.jpg"" style=""width: 300px; height: 300px;"" />
              </div>","null",""
"","","","","","html-keyboard-response","53","167010","0.0-53.0","C55562B9C9CC46768E9D61FBE7E6D3C6","bc3b10a5-6d71-45fc-8069-a9f27f54fd00","1272127f-799a-421a-a013-ec2b24556620","","null","<div style=""display: flex; justify-content: center; align-items: center;"">
                <img src=""images/causal/causal_series_5/causal_series_5_a.jpg"" style=""width: 300px; height: 300px;"" />
              </div>","null",""
"","","","","","html-keyboard-response","54","170018","0.0-54.0","C55562B9C9CC46768E9D61FBE7E6D3C6","bc3b10a5-6d71-45fc-8069-a9f27f54fd00","1272127f-799a-421a-a013-ec2b24556620","","null","<div style=""display: flex; justify-content: center; align-items: center;"">
                <img src=""images/causal/causal_series_5/causal_series_5_b.jpg"" style=""width: 300px; height: 300px;"" />
              </div>","null",""
"","","","","","html-keyboard-response","55","173026","0.0-55.0","C55562B9C9CC46768E9D61FBE7E6D3C6","bc3b10a5-6d71-45fc-8069-a9f27f54fd00","1272127f-799a-421a-a013-ec2b24556620","","null","<div style=""display: flex; justify-content: center; align-items: center;"">
                <img src=""images/causal/causal_series_5/causal_series_5_c.jpg"" style=""width: 300px; height: 300px;"" />
              </div>","null",""
"","","","","","html-button-response","56","176844","0.0-56.0","C55562B9C9CC46768E9D61FBE7E6D3C6","bc3b10a5-6d71-45fc-8069-a9f27f54fd00","1272127f-799a-421a-a013-ec2b24556620","","3818","
    <div style=""display: flex; justify-content: center; align-items: center;"">
      <img src=""images/red_deck_2.png"" style=""width: 300px; height: 300px; margin-right: 10px;"" />
      <img src=""images/blue_deck_1.png"" style=""width: 300px; height: 300px;"" />
    </div>","1","1"
"","","","","","html-keyboard-response","57","179855","0.0-57.0-1.0-0.0","C55562B9C9CC46768E9D61FBE7E6D3C6","bc3b10a5-6d71-45fc-8069-a9f27f54fd00","1272127f-799a-421a-a013-ec2b24556620","","null","<div style=""display: flex; justify-content: center; align-items: center;"">
                <img src=""images/semantic/semantic_series_4/semantic_series_4_d.jpg"" style=""width: 300px; height: 300px;"" />
              </div>","null",""
"","","","","","html-keyboard-response","58","182867","0.0-58.0","C55562B9C9CC46768E9D61FBE7E6D3C6","bc3b10a5-6d71-45fc-8069-a9f27f54fd00","1272127f-799a-421a-a013-ec2b24556620","","null","<div style=""display: flex; justify-content: center; align-items: center;"">
                <img src=""images/other/blank.jpg"" style=""width: 300px; height: 300px;"" />
              </div>","null",""
"","","","","","html-keyboard-response","59","185875","0.0-59.0","C55562B9C9CC46768E9D61FBE7E6D3C6","bc3b10a5-6d71-45fc-8069-a9f27f54fd00","1272127f-799a-421a-a013-ec2b24556620","","null","<div style=""display: flex; justify-content: center; align-items: center;"">
                <img src=""images/causal/causal_series_15/causal_series_15_a.jpg"" style=""width: 300px; height: 300px;"" />
              </div>","null",""
"","","","","","html-keyboard-response","60","188891","0.0-60.0","C55562B9C9CC46768E9D61FBE7E6D3C6","bc3b10a5-6d71-45fc-8069-a9f27f54fd00","1272127f-799a-421a-a013-ec2b24556620","","null","<div style=""display: flex; justify-content: center; align-items: center;"">
                <img src=""images/causal/causal_series_15/causal_series_15_b.jpg"" style=""width: 300px; height: 300px;"" />
              </div>","null",""
"","","","","","html-keyboard-response","61","191901","0.0-61.0","C55562B9C9CC46768E9D61FBE7E6D3C6","bc3b10a5-6d71-45fc-8069-a9f27f54fd00","1272127f-799a-421a-a013-ec2b24556620","","null","<div style=""display: flex; justify-content: center; align-items: center;"">
                <img src=""images/causal/causal_series_15/causal_series_15_c.jpg"" style=""width: 300px; height: 300px;"" />
              </div>","null",""
"","","","","","html-button-response","62","195431","0.0-62.0","C55562B9C9CC46768E9D61FBE7E6D3C6","bc3b10a5-6d71-45fc-8069-a9f27f54fd00","1272127f-799a-421a-a013-ec2b24556620","","3530","
    <div style=""display: flex; justify-content: center; align-items: center;"">
      <img src=""images/red_deck_2.png"" style=""width: 300px; height: 300px; margin-right: 10px;"" />
      <img src=""images/blue_deck_1.png"" style=""width: 300px; height: 300px;"" />
    </div>","0","0"
"","","","","","html-keyboard-response","63","198432","0.0-63.0-0.0-0.0","C55562B9C9CC46768E9D61FBE7E6D3C6","bc3b10a5-6d71-45fc-8069-a9f27f54fd00","1272127f-799a-421a-a013-ec2b24556620","","null","<div style=""display: flex; justify-content: center; align-items: center;"">
                <img src=""images/causal/causal_series_15/causal_series_15_d.jpg"" style=""width: 300px; height: 300px;"" />
              </div>","null",""
"","","","","","html-keyboard-response","64","201438","0.0-64.0","C55562B9C9CC46768E9D61FBE7E6D3C6","bc3b10a5-6d71-45fc-8069-a9f27f54fd00","1272127f-799a-421a-a013-ec2b24556620","","null","<div style=""display: flex; justify-content: center; align-items: center;"">
                <img src=""images/other/blank.jpg"" style=""width: 300px; height: 300px;"" />
              </div>","null",""
"","","","","","html-keyboard-response","65","204441","0.0-65.0","C55562B9C9CC46768E9D61FBE7E6D3C6","bc3b10a5-6d71-45fc-8069-a9f27f54fd00","1272127f-799a-421a-a013-ec2b24556620","","null","<div style=""display: flex; justify-content: center; align-items: center;"">
                <img src=""images/causal/causal_series_1/causal_series_1_a.jpg"" style=""width: 300px; height: 300px;"" />
              </div>","null",""
"","","","","","html-keyboard-response","66","207454","0.0-66.0","C55562B9C9CC46768E9D61FBE7E6D3C6","bc3b10a5-6d71-45fc-8069-a9f27f54fd00","1272127f-799a-421a-a013-ec2b24556620","","null","<div style=""display: flex; justify-content: center; align-items: center;"">
                <img src=""images/causal/causal_series_1/causal_series_1_b.jpg"" style=""width: 300px; height: 300px;"" />
              </div>","null",""
"","","","","","html-keyboard-response","67","210461","0.0-67.0","C55562B9C9CC46768E9D61FBE7E6D3C6","bc3b10a5-6d71-45fc-8069-a9f27f54fd00","1272127f-799a-421a-a013-ec2b24556620","","null","<div style=""display: flex; justify-content: center; align-items: center;"">
                <img src=""images/causal/causal_series_1/causal_series_1_c.jpg"" style=""width: 300px; height: 300px;"" />
              </div>","null",""
"","","","","","html-button-response","68","213711","0.0-68.0","C55562B9C9CC46768E9D61FBE7E6D3C6","bc3b10a5-6d71-45fc-8069-a9f27f54fd00","1272127f-799a-421a-a013-ec2b24556620","","3250","
    <div style=""display: flex; justify-content: center; align-items: center;"">
      <img src=""images/red_deck_2.png"" style=""width: 300px; height: 300px; margin-right: 10px;"" />
      <img src=""images/blue_deck_1.png"" style=""width: 300px; height: 300px;"" />
    </div>","1","1"
"","","","","","html-keyboard-response","69","216723","0.0-69.0-1.0-0.0","C55562B9C9CC46768E9D61FBE7E6D3C6","bc3b10a5-6d71-45fc-8069-a9f27f54fd00","1272127f-799a-421a-a013-ec2b24556620","","null","<div style=""display: flex; justify-content: center; align-items: center;"">
                <img src=""images/semantic/semantic_series_18/semantic_series_18_d.jpg"" style=""width: 300px; height: 300px;"" />
              </div>","null",""
"","","","","","html-keyboard-response","70","219732","0.0-70.0","C55562B9C9CC46768E9D61FBE7E6D3C6","bc3b10a5-6d71-45fc-8069-a9f27f54fd00","1272127f-799a-421a-a013-ec2b24556620","","null","<div style=""display: flex; justify-content: center; align-items: center;"">
                <img src=""images/other/blank.jpg"" style=""width: 300px; height: 300px;"" />
              </div>","null",""
"","","","","","html-keyboard-response","71","222735","0.0-71.0","C55562B9C9CC46768E9D61FBE7E6D3C6","bc3b10a5-6d71-45fc-8069-a9f27f54fd00","1272127f-799a-421a-a013-ec2b24556620","","null","<div style=""display: flex; justify-content: center; align-items: center;"">
                <img src=""images/causal/causal_series_18/causal_series_18_a.jpg"" style=""width: 300px; height: 300px;"" />
              </div>","null",""
"","","","","","html-keyboard-response","72","225740","0.0-72.0","C55562B9C9CC46768E9D61FBE7E6D3C6","bc3b10a5-6d71-45fc-8069-a9f27f54fd00","1272127f-799a-421a-a013-ec2b24556620","","null","<div style=""display: flex; justify-content: center; align-items: center;"">
                <img src=""images/causal/causal_series_18/causal_series_18_b.jpg"" style=""width: 300px; height: 300px;"" />
              </div>","null",""
"","","","","","html-keyboard-response","73","228741","0.0-73.0","C55562B9C9CC46768E9D61FBE7E6D3C6","bc3b10a5-6d71-45fc-8069-a9f27f54fd00","1272127f-799a-421a-a013-ec2b24556620","","null","<div style=""display: flex; justify-content: center; align-items: center;"">
                <img src=""images/causal/causal_series_18/causal_series_18_c.jpg"" style=""width: 300px; height: 300px;"" />
              </div>","null",""
"","","","","","html-button-response","74","231802","0.0-74.0","C55562B9C9CC46768E9D61FBE7E6D3C6","bc3b10a5-6d71-45fc-8069-a9f27f54fd00","1272127f-799a-421a-a013-ec2b24556620","","3060","
    <div style=""display: flex; justify-content: center; align-items: center;"">
      <img src=""images/red_deck_2.png"" style=""width: 300px; height: 300px; margin-right: 10px;"" />
      <img src=""images/blue_deck_1.png"" style=""width: 300px; height: 300px;"" />
    </div>","0","0"
"","","","","","html-keyboard-response","75","234812","0.0-75.0-0.0-0.0","C55562B9C9CC46768E9D61FBE7E6D3C6","bc3b10a5-6d71-45fc-8069-a9f27f54fd00","1272127f-799a-421a-a013-ec2b24556620","","null","<div style=""display: flex; justify-content: center; align-items: center;"">
                <img src=""images/causal/causal_series_18/causal_series_18_d.jpg"" style=""width: 300px; height: 300px;"" />
              </div>","null",""
"","","","","","html-keyboard-response","76","237826","0.0-76.0","C55562B9C9CC46768E9D61FBE7E6D3C6","bc3b10a5-6d71-45fc-8069-a9f27f54fd00","1272127f-799a-421a-a013-ec2b24556620","","null","<div style=""display: flex; justify-content: center; align-items: center;"">
                <img src=""images/other/blank.jpg"" style=""width: 300px; height: 300px;"" />
              </div>","null",""
"","","","","","html-keyboard-response","77","240827","0.0-77.0","C55562B9C9CC46768E9D61FBE7E6D3C6","bc3b10a5-6d71-45fc-8069-a9f27f54fd00","1272127f-799a-421a-a013-ec2b24556620","","null","<div style=""display: flex; justify-content: center; align-items: center;"">
                <img src=""images/causal/causal_series_11/causal_series_11_a.jpg"" style=""width: 300px; height: 300px;"" />
              </div>","null",""
"","","","","","html-keyboard-response","78","243831","0.0-78.0","C55562B9C9CC46768E9D61FBE7E6D3C6","bc3b10a5-6d71-45fc-8069-a9f27f54fd00","1272127f-799a-421a-a013-ec2b24556620","","null","<div style=""display: flex; justify-content: center; align-items: center;"">
                <img src=""images/causal/causal_series_11/causal_series_11_b.jpg"" style=""width: 300px; height: 300px;"" />
              </div>","null",""
"","","","","","html-keyboard-response","79","246840","0.0-79.0","C55562B9C9CC46768E9D61FBE7E6D3C6","bc3b10a5-6d71-45fc-8069-a9f27f54fd00","1272127f-799a-421a-a013-ec2b24556620","","null","<div style=""display: flex; justify-content: center; align-items: center;"">
                <img src=""images/causal/causal_series_11/causal_series_11_c.jpg"" style=""width: 300px; height: 300px;"" />
              </div>","null",""
"","","","","","html-button-response","80","250588","0.0-80.0","C55562B9C9CC46768E9D61FBE7E6D3C6","bc3b10a5-6d71-45fc-8069-a9f27f54fd00","1272127f-799a-421a-a013-ec2b24556620","","3748","
    <div style=""display: flex; justify-content: center; align-items: center;"">
      <img src=""images/red_deck_2.png"" style=""width: 300px; height: 300px; margin-right: 10px;"" />
      <img src=""images/blue_deck_1.png"" style=""width: 300px; height: 300px;"" />
    </div>","0","0"
"","","","","","html-keyboard-response","81","253590","0.0-81.0-0.0-0.0","C55562B9C9CC46768E9D61FBE7E6D3C6","bc3b10a5-6d71-45fc-8069-a9f27f54fd00","1272127f-799a-421a-a013-ec2b24556620","","null","<div style=""display: flex; justify-content: center; align-items: center;"">
                <img src=""images/causal/causal_series_11/causal_series_11_d.jpg"" style=""width: 300px; height: 300px;"" />
              </div>","null",""
"","","","","","html-keyboard-response","82","256600","0.0-82.0","C55562B9C9CC46768E9D61FBE7E6D3C6","bc3b10a5-6d71-45fc-8069-a9f27f54fd00","1272127f-799a-421a-a013-ec2b24556620","","null","<div style=""display: flex; justify-content: center; align-items: center;"">
                <img src=""images/other/blank.jpg"" style=""width: 300px; height: 300px;"" />
              </div>","null",""
"","","","","","html-keyboard-response","83","259611","0.0-83.0","C55562B9C9CC46768E9D61FBE7E6D3C6","bc3b10a5-6d71-45fc-8069-a9f27f54fd00","1272127f-799a-421a-a013-ec2b24556620","","null","<div style=""display: flex; justify-content: center; align-items: center;"">
                <img src=""images/causal/causal_series_13/causal_series_13_a.jpg"" style=""width: 300px; height: 300px;"" />
              </div>","null",""
"","","","","","html-keyboard-response","84","262624","0.0-84.0","C55562B9C9CC46768E9D61FBE7E6D3C6","bc3b10a5-6d71-45fc-8069-a9f27f54fd00","1272127f-799a-421a-a013-ec2b24556620","","null","<div style=""display: flex; justify-content: center; align-items: center;"">
                <img src=""images/causal/causal_series_13/causal_series_13_b.jpg"" style=""width: 300px; height: 300px;"" />
              </div>","null",""
"","","","","","html-keyboard-response","85","265633","0.0-85.0","C55562B9C9CC46768E9D61FBE7E6D3C6","bc3b10a5-6d71-45fc-8069-a9f27f54fd00","1272127f-799a-421a-a013-ec2b24556620","","null","<div style=""display: flex; justify-content: center; align-items: center;"">
                <img src=""images/causal/causal_series_13/causal_series_13_c.jpg"" style=""width: 300px; height: 300px;"" />
              </div>","null",""
"","","","","","html-button-response","86","269147","0.0-86.0","C55562B9C9CC46768E9D61FBE7E6D3C6","bc3b10a5-6d71-45fc-8069-a9f27f54fd00","1272127f-799a-421a-a013-ec2b24556620","","3513","
    <div style=""display: flex; justify-content: center; align-items: center;"">
      <img src=""images/red_deck_2.png"" style=""width: 300px; height: 300px; margin-right: 10px;"" />
      <img src=""images/blue_deck_1.png"" style=""width: 300px; height: 300px;"" />
    </div>","0","0"
"","","","","","html-keyboard-response","87","272153","0.0-87.0-0.0-0.0","C55562B9C9CC46768E9D61FBE7E6D3C6","bc3b10a5-6d71-45fc-8069-a9f27f54fd00","1272127f-799a-421a-a013-ec2b24556620","","null","<div style=""display: flex; justify-content: center; align-items: center;"">
                <img src=""images/causal/causal_series_13/causal_series_13_d.jpg"" style=""width: 300px; height: 300px;"" />
              </div>","null",""
"","","","","","html-keyboard-response","88","275160","0.0-88.0","C55562B9C9CC46768E9D61FBE7E6D3C6","bc3b10a5-6d71-45fc-8069-a9f27f54fd00","1272127f-799a-421a-a013-ec2b24556620","","null","<div style=""display: flex; justify-content: center; align-items: center;"">
                <img src=""images/other/blank.jpg"" style=""width: 300px; height: 300px;"" />
              </div>","null",""
"","","","","","html-keyboard-response","89","278172","0.0-89.0","C55562B9C9CC46768E9D61FBE7E6D3C6","bc3b10a5-6d71-45fc-8069-a9f27f54fd00","1272127f-799a-421a-a013-ec2b24556620","","null","<div style=""display: flex; justify-content: center; align-items: center;"">
                <img src=""images/causal/causal_series_9/causal_series_9_a.jpg"" style=""width: 300px; height: 300px;"" />
              </div>","null",""
"","","","","","html-keyboard-response","90","281179","0.0-90.0","C55562B9C9CC46768E9D61FBE7E6D3C6","bc3b10a5-6d71-45fc-8069-a9f27f54fd00","1272127f-799a-421a-a013-ec2b24556620","","null","<div style=""display: flex; justify-content: center; align-items: center;"">
                <img src=""images/causal/causal_series_9/causal_series_9_b.jpg"" style=""width: 300px; height: 300px;"" />
              </div>","null",""
"","","","","","html-keyboard-response","91","284189","0.0-91.0","C55562B9C9CC46768E9D61FBE7E6D3C6","bc3b10a5-6d71-45fc-8069-a9f27f54fd00","1272127f-799a-421a-a013-ec2b24556620","","null","<div style=""display: flex; justify-content: center; align-items: center;"">
                <img src=""images/causal/causal_series_9/causal_series_9_c.jpg"" style=""width: 300px; height: 300px;"" />
              </div>","null",""
"","","","","","html-button-response","92","286445","0.0-92.0","C55562B9C9CC46768E9D61FBE7E6D3C6","bc3b10a5-6d71-45fc-8069-a9f27f54fd00","1272127f-799a-421a-a013-ec2b24556620","","2256","
    <div style=""display: flex; justify-content: center; align-items: center;"">
      <img src=""images/red_deck_2.png"" style=""width: 300px; height: 300px; margin-right: 10px;"" />
      <img src=""images/blue_deck_1.png"" style=""width: 300px; height: 300px;"" />
    </div>","1","1"
"","","","","","html-keyboard-response","93","289462","0.0-93.0-1.0-0.0","C55562B9C9CC46768E9D61FBE7E6D3C6","bc3b10a5-6d71-45fc-8069-a9f27f54fd00","1272127f-799a-421a-a013-ec2b24556620","","null","<div style=""display: flex; justify-content: center; align-items: center;"">
                <img src=""images/semantic/semantic_series_8/semantic_series_8_d.jpg"" style=""width: 300px; height: 300px;"" />
              </div>","null",""
"","","","","","html-keyboard-response","94","292477","0.0-94.0","C55562B9C9CC46768E9D61FBE7E6D3C6","bc3b10a5-6d71-45fc-8069-a9f27f54fd00","1272127f-799a-421a-a013-ec2b24556620","","null","<div style=""display: flex; justify-content: center; align-items: center;"">
                <img src=""images/other/blank.jpg"" style=""width: 300px; height: 300px;"" />
              </div>","null",""
"","","","","","html-keyboard-response","95","295485","0.0-95.0","C55562B9C9CC46768E9D61FBE7E6D3C6","bc3b10a5-6d71-45fc-8069-a9f27f54fd00","1272127f-799a-421a-a013-ec2b24556620","","null","<div style=""display: flex; justify-content: center; align-items: center;"">
                <img src=""images/causal/causal_series_10/causal_series_10_a.jpg"" style=""width: 300px; height: 300px;"" />
              </div>","null",""
"","","","","","html-keyboard-response","96","298500","0.0-96.0","C55562B9C9CC46768E9D61FBE7E6D3C6","bc3b10a5-6d71-45fc-8069-a9f27f54fd00","1272127f-799a-421a-a013-ec2b24556620","","null","<div style=""display: flex; justify-content: center; align-items: center;"">
                <img src=""images/causal/causal_series_10/causal_series_10_b.jpg"" style=""width: 300px; height: 300px;"" />
              </div>","null",""
"","","","","","html-keyboard-response","97","301501","0.0-97.0","C55562B9C9CC46768E9D61FBE7E6D3C6","bc3b10a5-6d71-45fc-8069-a9f27f54fd00","1272127f-799a-421a-a013-ec2b24556620","","null","<div style=""display: flex; justify-content: center; align-items: center;"">
                <img src=""images/causal/causal_series_10/causal_series_10_c.jpg"" style=""width: 300px; height: 300px;"" />
              </div>","null",""
"","","","","","html-button-response","98","305245","0.0-98.0","C55562B9C9CC46768E9D61FBE7E6D3C6","bc3b10a5-6d71-45fc-8069-a9f27f54fd00","1272127f-799a-421a-a013-ec2b24556620","","3744","
    <div style=""display: flex; justify-content: center; align-items: center;"">
      <img src=""images/red_deck_2.png"" style=""width: 300px; height: 300px; margin-right: 10px;"" />
      <img src=""images/blue_deck_1.png"" style=""width: 300px; height: 300px;"" />
    </div>","0","0"
"","","","","","html-keyboard-response","99","308258","0.0-99.0-0.0-0.0","C55562B9C9CC46768E9D61FBE7E6D3C6","bc3b10a5-6d71-45fc-8069-a9f27f54fd00","1272127f-799a-421a-a013-ec2b24556620","","null","<div style=""display: flex; justify-content: center; align-items: center;"">
                <img src=""images/causal/causal_series_10/causal_series_10_d.jpg"" style=""width: 300px; height: 300px;"" />
              </div>","null",""
"","","","","","html-keyboard-response","100","311266","0.0-100.0","C55562B9C9CC46768E9D61FBE7E6D3C6","bc3b10a5-6d71-45fc-8069-a9f27f54fd00","1272127f-799a-421a-a013-ec2b24556620","","null","<div style=""display: flex; justify-content: center; align-items: center;"">
                <img src=""images/other/blank.jpg"" style=""width: 300px; height: 300px;"" />
              </div>","null",""
"","","","","","html-keyboard-response","101","314279","0.0-101.0","C55562B9C9CC46768E9D61FBE7E6D3C6","bc3b10a5-6d71-45fc-8069-a9f27f54fd00","1272127f-799a-421a-a013-ec2b24556620","","null","<div style=""display: flex; justify-content: center; align-items: center;"">
                <img src=""images/causal/causal_series_16/causal_series_16_a.jpg"" style=""width: 300px; height: 300px;"" />
              </div>","null",""
"","","","","","html-keyboard-response","102","317284","0.0-102.0","C55562B9C9CC46768E9D61FBE7E6D3C6","bc3b10a5-6d71-45fc-8069-a9f27f54fd00","1272127f-799a-421a-a013-ec2b24556620","","null","<div style=""display: flex; justify-content: center; align-items: center;"">
                <img src=""images/causal/causal_series_16/causal_series_16_b.jpg"" style=""width: 300px; height: 300px;"" />
              </div>","null",""
"","","","","","html-keyboard-response","103","320296","0.0-103.0","C55562B9C9CC46768E9D61FBE7E6D3C6","bc3b10a5-6d71-45fc-8069-a9f27f54fd00","1272127f-799a-421a-a013-ec2b24556620","","null","<div style=""display: flex; justify-content: center; align-items: center;"">
                <img src=""images/causal/causal_series_16/causal_series_16_c.jpg"" style=""width: 300px; height: 300px;"" />
              </div>","null",""
"","","","","","html-button-response","104","323373","0.0-104.0","C55562B9C9CC46768E9D61FBE7E6D3C6","bc3b10a5-6d71-45fc-8069-a9f27f54fd00","1272127f-799a-421a-a013-ec2b24556620","","3077","
    <div style=""display: flex; justify-content: center; align-items: center;"">
      <img src=""images/red_deck_2.png"" style=""width: 300px; height: 300px; margin-right: 10px;"" />
      <img src=""images/blue_deck_1.png"" style=""width: 300px; height: 300px;"" />
    </div>","1","1"
"","","","","","html-keyboard-response","105","326387","0.0-105.0-1.0-0.0","C55562B9C9CC46768E9D61FBE7E6D3C6","bc3b10a5-6d71-45fc-8069-a9f27f54fd00","1272127f-799a-421a-a013-ec2b24556620","","null","<div style=""display: flex; justify-content: center; align-items: center;"">
                <img src=""images/semantic/semantic_series_15/semantic_series_15_d.jpg"" style=""width: 300px; height: 300px;"" />
              </div>","null",""
"","","","","","html-keyboard-response","106","329399","0.0-106.0","C55562B9C9CC46768E9D61FBE7E6D3C6","bc3b10a5-6d71-45fc-8069-a9f27f54fd00","1272127f-799a-421a-a013-ec2b24556620","","null","<div style=""display: flex; justify-content: center; align-items: center;"">
                <img src=""images/other/blank.jpg"" style=""width: 300px; height: 300px;"" />
              </div>","null",""
"","","","","","html-keyboard-response","107","332404","0.0-107.0","C55562B9C9CC46768E9D61FBE7E6D3C6","bc3b10a5-6d71-45fc-8069-a9f27f54fd00","1272127f-799a-421a-a013-ec2b24556620","","null","<div style=""display: flex; justify-content: center; align-items: center;"">
                <img src=""images/causal/causal_series_12/causal_series_12_a.jpg"" style=""width: 300px; height: 300px;"" />
              </div>","null",""
"","","","","","html-keyboard-response","108","335418","0.0-108.0","C55562B9C9CC46768E9D61FBE7E6D3C6","bc3b10a5-6d71-45fc-8069-a9f27f54fd00","1272127f-799a-421a-a013-ec2b24556620","","null","<div style=""display: flex; justify-content: center; align-items: center;"">
                <img src=""images/causal/causal_series_12/causal_series_12_b.jpg"" style=""width: 300px; height: 300px;"" />
              </div>","null",""
"","","","","","html-keyboard-response","109","338421","0.0-109.0","C55562B9C9CC46768E9D61FBE7E6D3C6","bc3b10a5-6d71-45fc-8069-a9f27f54fd00","1272127f-799a-421a-a013-ec2b24556620","","null","<div style=""display: flex; justify-content: center; align-items: center;"">
                <img src=""images/causal/causal_series_12/causal_series_12_c.jpg"" style=""width: 300px; height: 300px;"" />
              </div>","null",""
"","","","","","html-button-response","110","342058","0.0-110.0","C55562B9C9CC46768E9D61FBE7E6D3C6","bc3b10a5-6d71-45fc-8069-a9f27f54fd00","1272127f-799a-421a-a013-ec2b24556620","","3637","
    <div style=""display: flex; justify-content: center; align-items: center;"">
      <img src=""images/red_deck_2.png"" style=""width: 300px; height: 300px; margin-right: 10px;"" />
      <img src=""images/blue_deck_1.png"" style=""width: 300px; height: 300px;"" />
    </div>","0","0"
"","","","","","html-keyboard-response","111","345061","0.0-111.0-0.0-0.0","C55562B9C9CC46768E9D61FBE7E6D3C6","bc3b10a5-6d71-45fc-8069-a9f27f54fd00","1272127f-799a-421a-a013-ec2b24556620","","null","<div style=""display: flex; justify-content: center; align-items: center;"">
                <img src=""images/causal/causal_series_12/causal_series_12_d.jpg"" style=""width: 300px; height: 300px;"" />
              </div>","null",""
"","","","","","html-keyboard-response","112","348073","0.0-112.0","C55562B9C9CC46768E9D61FBE7E6D3C6","bc3b10a5-6d71-45fc-8069-a9f27f54fd00","1272127f-799a-421a-a013-ec2b24556620","","null","<div style=""display: flex; justify-content: center; align-items: center;"">
                <img src=""images/other/blank.jpg"" style=""width: 300px; height: 300px;"" />
              </div>","null",""
"","","","","","survey-text","113","365910","0.0-113.0","C55562B9C9CC46768E9D61FBE7E6D3C6","bc3b10a5-6d71-45fc-8069-a9f27f54fd00","1272127f-799a-421a-a013-ec2b24556620","","17830","","{""Q0"":""One has a red back and the other has a blue back""}",""
"","","","","","survey-text","114","394391","0.0-114.0","C55562B9C9CC46768E9D61FBE7E6D3C6","bc3b10a5-6d71-45fc-8069-a9f27f54fd00","1272127f-799a-421a-a013-ec2b24556620","","28480","","{""Q0"":""The realistic images that looked like AI were slightly more interesting.""}",""
"","","","","","html-button-response","115","406321","0.0-115.0","C55562B9C9CC46768E9D61FBE7E6D3C6","bc3b10a5-6d71-45fc-8069-a9f27f54fd00","1272127f-799a-421a-a013-ec2b24556620","","11930","Which color deck does the fourth image continue the story from the series?","1",""
"","","","","","html-button-response","116","410203","0.0-116.0","C55562B9C9CC46768E9D61FBE7E6D3C6","bc3b10a5-6d71-45fc-8069-a9f27f54fd00","1272127f-799a-421a-a013-ec2b24556620","","3882","Which color deck does the fourth image not follow the story from the series?","0",""
"","","","","","survey-text","117","414826","0.0-117.0","C55562B9C9CC46768E9D61FBE7E6D3C6","bc3b10a5-6d71-45fc-8069-a9f27f54fd00","1272127f-799a-421a-a013-ec2b24556620","","4622","","{""Q0"":""female"",""Q1"":""25""}",""
"","","","","","instructions","118","418320","0.0-118.0","C55562B9C9CC46768E9D61FBE7E6D3C6","bc3b10a5-6d71-45fc-8069-a9f27f54fd00","1272127f-799a-421a-a013-ec2b24556620","[{""page_index"":0,""viewing_time"":3493}]","3494","","",""
