"success","timeout","failed_images","failed_audio","failed_video","trial_type","trial_index","time_elapsed","internal_node_id","subject_id","study_id","session_id","view_history","rt","stimulus","response","series","repetition","phase","choice","question_order"
"true","false","[]","[]","[]","preload","0","571","0.0-0.0","37FE1C04F3714328AC1C7EDFDCA72B3A","0199d692-fa7d-76e1-b434-fe1759f07874","0199d675-8795-765b-adc2-c813de8cd3d1","","","","","","","","",""
"","","","","","instructions","1","9995","0.0-1.0","37FE1C04F3714328AC1C7EDFDCA72B3A","0199d692-fa7d-76e1-b434-fe1759f07874","0199d675-8795-765b-adc2-c813de8cd3d1","[{""page_index"":0,""viewing_time"":9422}]","9422","","","","","","",""
"","","","","","instructions","2","184939","0.0-2.0","37FE1C04F3714328AC1C7EDFDCA72B3A","0199d692-fa7d-76e1-b434-fe1759f07874","0199d675-8795-765b-adc2-c813de8cd3d1","[{""page_index"":0,""viewing_time"":174945}]","174945","","","","","","",""
"true","","","","","fullscreen","3","187492","0.0-3.0","37FE1C04F3714328AC1C7EDFDCA72B3A","0199d692-fa7d-76e1-b434-fe1759f07874","0199d675-8795-765b-adc2-c813de8cd3d1","","1537","","","","","","",""
"","","","","","instructions","4","191982","0.0-4.0","37FE1C04F3714328AC1C7EDFDCA72B3A","0199d692-fa7d-76e1-b434-fe1759f07874","0199d675-8795-765b-adc2-c813de8cd3d1","[{""page_index"":0,""viewing_time"":4488}]","4488","","","","","","",""
"","","","","","html-keyboard-response","5","197990","0.0-5.0","37FE1C04F3714328AC1C7EDFDCA72B3A","0199d692-fa7d-76e1-b434-fe1759f07874","0199d675-8795-765b-adc2-c813de8cd3d1","","null","<div style=""display: flex; justify-content: center; align-items: center;"">
                     <img src=""images/causal/causal_series_2/causal_series_2_a.png"" style=""width: 300px; height: 300px;"" />
                   </div>","null","2","2","A","",""
"","","","","","html-button-response","6","204386","0.0-6.0","37FE1C04F3714328AC1C7EDFDCA72B3A","0199d692-fa7d-76e1-b434-fe1759f07874","0199d675-8795-765b-adc2-c813de8cd3d1","","6395","
        <div style=""display: flex; justify-content: center; align-items: center;"">
          <img src=""images/red_deck_2.png"" style=""width: 300px; height: 300px; margin-right: 10px;"" />
          <img src=""images/blue_deck_1.png"" style=""width: 300px; height: 300px;"" />
        </div>","0","2","2","choice","0",""
"","","","","","html-keyboard-response","7","210399","0.0-7.0-0.0-0.0","37FE1C04F3714328AC1C7EDFDCA72B3A","0199d692-fa7d-76e1-b434-fe1759f07874","0199d675-8795-765b-adc2-c813de8cd3d1","","null","<div style=""display: flex; justify-content: center; align-items: center;"">
                     <img src=""images/causal/causal_series_2/causal_series_2_b.png"" style=""width: 300px; height: 300px;"" />
                   </div>","null","2","2","B","",""
"","","","","","html-keyboard-response","8","216416","0.0-7.0-0.0-1.0","37FE1C04F3714328AC1C7EDFDCA72B3A","0199d692-fa7d-76e1-b434-fe1759f07874","0199d675-8795-765b-adc2-c813de8cd3d1","","null","<div style=""display: flex; justify-content: center; align-items: center;"">
                     <img src=""images/causal/causal_series_2/causal_series_2_c.png"" style=""width: 300px; height: 300px;"" />
                   </div>","null","2","2","C","",""
"","","","","","html-keyboard-response","9","222421","0.0-7.0-0.0-2.0","37FE1C04F3714328AC1C7EDFDCA72B3A","0199d692-fa7d-76e1-b434-fe1759f07874","0199d675-8795-765b-adc2-c813de8cd3d1","","null","<div style=""display: flex; justify-content: center; align-items: center;"">
                     <img src=""images/causal/causal_series_2/causal_series_2_d.png"" style=""width: 300px; height: 300px;"" />
                   </div>","null","2","2","D","",""
"","","","","","survey-likert","10","231966","0.0-8.0","37FE1C04F3714328AC1C7EDFDCA72B3A","0199d692-fa7d-76e1-b434-fe1759f07874","0199d675-8795-765b-adc2-c813de8cd3d1","","9543","","{""Q0"":2}","2","2","surprise_rating","","[0]"
"","","","","","survey-likert","11","235589","0.0-9.0","37FE1C04F3714328AC1C7EDFDCA72B3A","0199d692-fa7d-76e1-b434-fe1759f07874","0199d675-8795-765b-adc2-c813de8cd3d1","","3621","","{""Q0"":2}","2","2","enjoyment_rating","","[0]"
"","","","","","html-keyboard-response","12","241598","0.0-10.0","37FE1C04F3714328AC1C7EDFDCA72B3A","0199d692-fa7d-76e1-b434-fe1759f07874","0199d675-8795-765b-adc2-c813de8cd3d1","","null","<div style=""display: flex; justify-content: center; align-items: center;"">
                     <img src=""images/other/blank.png"" style=""width: 300px; height: 300px;"" />
                   </div>","null","0","0","blank","",""
"","","","","","html-keyboard-response","13","247615","0.0-11.0","37FE1C04F3714328AC1C7EDFDCA72B3A","0199d692-fa7d-76e1-b434-fe1759f07874","0199d675-8795-765b-adc2-c813de8cd3d1","","null","<div style=""display: flex; justify-content: center; align-items: center;"">
                     <img src=""images/causal/causal_series_10/causal_series_10_a.png"" style=""width: 300px; height: 300px;"" />
                   </div>","null","10","2","A","",""
"","","","","","html-button-response","14","249971","0.0-12.0","37FE1C04F3714328AC1C7EDFDCA72B3A","0199d692-fa7d-76e1-b434-fe1759f07874","0199d675-8795-765b-adc2-c813de8cd3d1","","2353","
        <div style=""display: flex; justify-content: center; align-items: center;"">
          <img src=""images/red_deck_2.png"" style=""width: 300px; height: 300px; margin-right: 10px;"" />
          <img src=""images/blue_deck_1.png"" style=""width: 300px; height: 300px;"" />
        </div>","1","10","2","choice","1",""
"","","","","","html-keyboard-response","15","255979","0.0-13.0-1.0-0.0","37FE1C04F3714328AC1C7EDFDCA72B3A","0199d692-fa7d-76e1-b434-fe1759f07874","0199d675-8795-765b-adc2-c813de8cd3d1","","null","<div style=""display: flex; justify-content: center; align-items: center;"">
                     <img src=""images/semantic/semantic_series_10/semantic_series_10_b.png"" style=""width: 300px; height: 300px;"" />
                   </div>","null","10","2","B","",""
"","","","","","html-keyboard-response","16","261982","0.0-13.0-1.0-1.0","37FE1C04F3714328AC1C7EDFDCA72B3A","0199d692-fa7d-76e1-b434-fe1759f07874","0199d675-8795-765b-adc2-c813de8cd3d1","","null","<div style=""display: flex; justify-content: center; align-items: center;"">
                     <img src=""images/semantic/semantic_series_10/semantic_series_10_c.png"" style=""width: 300px; height: 300px;"" />
                   </div>","null","10","2","C","",""
"","","","","","html-keyboard-response","17","267998","0.0-13.0-1.0-2.0","37FE1C04F3714328AC1C7EDFDCA72B3A","0199d692-fa7d-76e1-b434-fe1759f07874","0199d675-8795-765b-adc2-c813de8cd3d1","","null","<div style=""display: flex; justify-content: center; align-items: center;"">
                     <img src=""images/semantic/semantic_series_10/semantic_series_10_d.png"" style=""width: 300px; height: 300px;"" />
                   </div>","null","10","2","D","",""
"","","","","","survey-likert","18","274652","0.0-14.0","37FE1C04F3714328AC1C7EDFDCA72B3A","0199d692-fa7d-76e1-b434-fe1759f07874","0199d675-8795-765b-adc2-c813de8cd3d1","","6653","","{""Q0"":1}","10","2","surprise_rating","","[0]"
"","","","","","survey-likert","19","276966","0.0-15.0","37FE1C04F3714328AC1C7EDFDCA72B3A","0199d692-fa7d-76e1-b434-fe1759f07874","0199d675-8795-765b-adc2-c813de8cd3d1","","2313","","{""Q0"":1}","10","2","enjoyment_rating","","[0]"
"","","","","","html-keyboard-response","20","282977","0.0-16.0","37FE1C04F3714328AC1C7EDFDCA72B3A","0199d692-fa7d-76e1-b434-fe1759f07874","0199d675-8795-765b-adc2-c813de8cd3d1","","null","<div style=""display: flex; justify-content: center; align-items: center;"">
                     <img src=""images/other/blank.png"" style=""width: 300px; height: 300px;"" />
                   </div>","null","0","0","blank","",""
"","","","","","html-keyboard-response","21","288980","0.0-17.0","37FE1C04F3714328AC1C7EDFDCA72B3A","0199d692-fa7d-76e1-b434-fe1759f07874","0199d675-8795-765b-adc2-c813de8cd3d1","","null","<div style=""display: flex; justify-content: center; align-items: center;"">
                     <img src=""images/causal/causal_series_3/causal_series_3_a.png"" style=""width: 300px; height: 300px;"" />
                   </div>","null","3","2","A","",""
"","","","","","html-button-response","22","290947","0.0-18.0","37FE1C04F3714328AC1C7EDFDCA72B3A","0199d692-fa7d-76e1-b434-fe1759f07874","0199d675-8795-765b-adc2-c813de8cd3d1","","1964","
        <div style=""display: flex; justify-content: center; align-items: center;"">
          <img src=""images/red_deck_2.png"" style=""width: 300px; height: 300px; margin-right: 10px;"" />
          <img src=""images/blue_deck_1.png"" style=""width: 300px; height: 300px;"" />
        </div>","0","3","2","choice","0",""
"","","","","","html-keyboard-response","23","296958","0.0-19.0-0.0-0.0","37FE1C04F3714328AC1C7EDFDCA72B3A","0199d692-fa7d-76e1-b434-fe1759f07874","0199d675-8795-765b-adc2-c813de8cd3d1","","null","<div style=""display: flex; justify-content: center; align-items: center;"">
                     <img src=""images/causal/causal_series_3/causal_series_3_b.png"" style=""width: 300px; height: 300px;"" />
                   </div>","null","3","2","B","",""
"","","","","","html-keyboard-response","24","302966","0.0-19.0-0.0-1.0","37FE1C04F3714328AC1C7EDFDCA72B3A","0199d692-fa7d-76e1-b434-fe1759f07874","0199d675-8795-765b-adc2-c813de8cd3d1","","null","<div style=""display: flex; justify-content: center; align-items: center;"">
                     <img src=""images/causal/causal_series_3/causal_series_3_c.png"" style=""width: 300px; height: 300px;"" />
                   </div>","null","3","2","C","",""
"","","","","","html-keyboard-response","25","308972","0.0-19.0-0.0-2.0","37FE1C04F3714328AC1C7EDFDCA72B3A","0199d692-fa7d-76e1-b434-fe1759f07874","0199d675-8795-765b-adc2-c813de8cd3d1","","null","<div style=""display: flex; justify-content: center; align-items: center;"">
                     <img src=""images/causal/causal_series_3/causal_series_3_d.png"" style=""width: 300px; height: 300px;"" />
                   </div>","null","3","2","D","",""
"","","","","","survey-likert","26","321469","0.0-20.0","37FE1C04F3714328AC1C7EDFDCA72B3A","0199d692-fa7d-76e1-b434-fe1759f07874","0199d675-8795-765b-adc2-c813de8cd3d1","","12494","","{""Q0"":2}","3","2","surprise_rating","","[0]"
"","","","","","survey-likert","27","325582","0.0-21.0","37FE1C04F3714328AC1C7EDFDCA72B3A","0199d692-fa7d-76e1-b434-fe1759f07874","0199d675-8795-765b-adc2-c813de8cd3d1","","4110","","{""Q0"":2}","3","2","enjoyment_rating","","[0]"
"","","","","","html-keyboard-response","28","331598","0.0-22.0","37FE1C04F3714328AC1C7EDFDCA72B3A","0199d692-fa7d-76e1-b434-fe1759f07874","0199d675-8795-765b-adc2-c813de8cd3d1","","null","<div style=""display: flex; justify-content: center; align-items: center;"">
                     <img src=""images/other/blank.png"" style=""width: 300px; height: 300px;"" />
                   </div>","null","0","0","blank","",""
"","","","","","html-keyboard-response","29","337608","0.0-23.0","37FE1C04F3714328AC1C7EDFDCA72B3A","0199d692-fa7d-76e1-b434-fe1759f07874","0199d675-8795-765b-adc2-c813de8cd3d1","","null","<div style=""display: flex; justify-content: center; align-items: center;"">
                     <img src=""images/causal/causal_series_1/causal_series_1_a.png"" style=""width: 300px; height: 300px;"" />
                   </div>","null","1","1","A","",""
"","","","","","html-button-response","30","339715","0.0-24.0","37FE1C04F3714328AC1C7EDFDCA72B3A","0199d692-fa7d-76e1-b434-fe1759f07874","0199d675-8795-765b-adc2-c813de8cd3d1","","2104","
        <div style=""display: flex; justify-content: center; align-items: center;"">
          <img src=""images/red_deck_2.png"" style=""width: 300px; height: 300px; margin-right: 10px;"" />
          <img src=""images/blue_deck_1.png"" style=""width: 300px; height: 300px;"" />
        </div>","0","1","1","choice","0",""
"","","","","","html-keyboard-response","31","345732","0.0-25.0-0.0-0.0","37FE1C04F3714328AC1C7EDFDCA72B3A","0199d692-fa7d-76e1-b434-fe1759f07874","0199d675-8795-765b-adc2-c813de8cd3d1","","null","<div style=""display: flex; justify-content: center; align-items: center;"">
                     <img src=""images/causal/causal_series_1/causal_series_1_b.png"" style=""width: 300px; height: 300px;"" />
                   </div>","null","1","1","B","",""
"","","","","","html-keyboard-response","32","351736","0.0-25.0-0.0-1.0","37FE1C04F3714328AC1C7EDFDCA72B3A","0199d692-fa7d-76e1-b434-fe1759f07874","0199d675-8795-765b-adc2-c813de8cd3d1","","null","<div style=""display: flex; justify-content: center; align-items: center;"">
                     <img src=""images/causal/causal_series_1/causal_series_1_c.png"" style=""width: 300px; height: 300px;"" />
                   </div>","null","1","1","C","",""
"","","","","","html-keyboard-response","33","357753","0.0-25.0-0.0-2.0","37FE1C04F3714328AC1C7EDFDCA72B3A","0199d692-fa7d-76e1-b434-fe1759f07874","0199d675-8795-765b-adc2-c813de8cd3d1","","null","<div style=""display: flex; justify-content: center; align-items: center;"">
                     <img src=""images/causal/causal_series_1/causal_series_1_d.png"" style=""width: 300px; height: 300px;"" />
                   </div>","null","1","1","D","",""
"","","","","","survey-likert","34","367968","0.0-26.0","37FE1C04F3714328AC1C7EDFDCA72B3A","0199d692-fa7d-76e1-b434-fe1759f07874","0199d675-8795-765b-adc2-c813de8cd3d1","","10213","","{""Q0"":2}","1","1","surprise_rating","","[0]"
"","","","","","survey-likert","35","371163","0.0-27.0","37FE1C04F3714328AC1C7EDFDCA72B3A","0199d692-fa7d-76e1-b434-fe1759f07874","0199d675-8795-765b-adc2-c813de8cd3d1","","3192","","{""Q0"":3}","1","1","enjoyment_rating","","[0]"
"","","","","","html-keyboard-response","36","377179","0.0-28.0","37FE1C04F3714328AC1C7EDFDCA72B3A","0199d692-fa7d-76e1-b434-fe1759f07874","0199d675-8795-765b-adc2-c813de8cd3d1","","null","<div style=""display: flex; justify-content: center; align-items: center;"">
                     <img src=""images/other/blank.png"" style=""width: 300px; height: 300px;"" />
                   </div>","null","0","0","blank","",""
"","","","","","html-keyboard-response","37","383186","0.0-29.0","37FE1C04F3714328AC1C7EDFDCA72B3A","0199d692-fa7d-76e1-b434-fe1759f07874","0199d675-8795-765b-adc2-c813de8cd3d1","","null","<div style=""display: flex; justify-content: center; align-items: center;"">
                     <img src=""images/causal/causal_series_2/causal_series_2_a.png"" style=""width: 300px; height: 300px;"" />
                   </div>","null","2","1","A","",""
"","","","","","html-button-response","38","385267","0.0-30.0","37FE1C04F3714328AC1C7EDFDCA72B3A","0199d692-fa7d-76e1-b434-fe1759f07874","0199d675-8795-765b-adc2-c813de8cd3d1","","2079","
        <div style=""display: flex; justify-content: center; align-items: center;"">
          <img src=""images/red_deck_2.png"" style=""width: 300px; height: 300px; margin-right: 10px;"" />
          <img src=""images/blue_deck_1.png"" style=""width: 300px; height: 300px;"" />
        </div>","1","2","1","choice","1",""
"","","","","","html-keyboard-response","39","391270","0.0-31.0-1.0-0.0","37FE1C04F3714328AC1C7EDFDCA72B3A","0199d692-fa7d-76e1-b434-fe1759f07874","0199d675-8795-765b-adc2-c813de8cd3d1","","null","<div style=""display: flex; justify-content: center; align-items: center;"">
                     <img src=""images/semantic/semantic_series_2/semantic_series_2_b.png"" style=""width: 300px; height: 300px;"" />
                   </div>","null","2","1","B","",""
"","","","","","html-keyboard-response","40","397281","0.0-31.0-1.0-1.0","37FE1C04F3714328AC1C7EDFDCA72B3A","0199d692-fa7d-76e1-b434-fe1759f07874","0199d675-8795-765b-adc2-c813de8cd3d1","","null","<div style=""display: flex; justify-content: center; align-items: center;"">
                     <img src=""images/semantic/semantic_series_2/semantic_series_2_c.png"" style=""width: 300px; height: 300px;"" />
                   </div>","null","2","1","C","",""
"","","","","","html-keyboard-response","41","403292","0.0-31.0-1.0-2.0","37FE1C04F3714328AC1C7EDFDCA72B3A","0199d692-fa7d-76e1-b434-fe1759f07874","0199d675-8795-765b-adc2-c813de8cd3d1","","null","<div style=""display: flex; justify-content: center; align-items: center;"">
                     <img src=""images/semantic/semantic_series_2/semantic_series_2_d.png"" style=""width: 300px; height: 300px;"" />
                   </div>","null","2","1","D","",""
"","","","","","survey-likert","42","406754","0.0-32.0","37FE1C04F3714328AC1C7EDFDCA72B3A","0199d692-fa7d-76e1-b434-fe1759f07874","0199d675-8795-765b-adc2-c813de8cd3d1","","3459","","{""Q0"":1}","2","1","surprise_rating","","[0]"
"","","","","","survey-likert","43","410276","0.0-33.0","37FE1C04F3714328AC1C7EDFDCA72B3A","0199d692-fa7d-76e1-b434-fe1759f07874","0199d675-8795-765b-adc2-c813de8cd3d1","","3519","","{""Q0"":1}","2","1","enjoyment_rating","","[0]"
"","","","","","html-keyboard-response","44","416283","0.0-34.0","37FE1C04F3714328AC1C7EDFDCA72B3A","0199d692-fa7d-76e1-b434-fe1759f07874","0199d675-8795-765b-adc2-c813de8cd3d1","","null","<div style=""display: flex; justify-content: center; align-items: center;"">
                     <img src=""images/other/blank.png"" style=""width: 300px; height: 300px;"" />
                   </div>","null","0","0","blank","",""
"","","","","","html-keyboard-response","45","422287","0.0-35.0","37FE1C04F3714328AC1C7EDFDCA72B3A","0199d692-fa7d-76e1-b434-fe1759f07874","0199d675-8795-765b-adc2-c813de8cd3d1","","null","<div style=""display: flex; justify-content: center; align-items: center;"">
                     <img src=""images/causal/causal_series_5/causal_series_5_a.png"" style=""width: 300px; height: 300px;"" />
                   </div>","null","5","1","A","",""
"","","","","","html-button-response","46","423949","0.0-36.0","37FE1C04F3714328AC1C7EDFDCA72B3A","0199d692-fa7d-76e1-b434-fe1759f07874","0199d675-8795-765b-adc2-c813de8cd3d1","","1659","
        <div style=""display: flex; justify-content: center; align-items: center;"">
          <img src=""images/red_deck_2.png"" style=""width: 300px; height: 300px; margin-right: 10px;"" />
          <img src=""images/blue_deck_1.png"" style=""width: 300px; height: 300px;"" />
        </div>","0","5","1","choice","0",""
"","","","","","html-keyboard-response","47","429962","0.0-37.0-0.0-0.0","37FE1C04F3714328AC1C7EDFDCA72B3A","0199d692-fa7d-76e1-b434-fe1759f07874","0199d675-8795-765b-adc2-c813de8cd3d1","","null","<div style=""display: flex; justify-content: center; align-items: center;"">
                     <img src=""images/causal/causal_series_5/causal_series_5_b.png"" style=""width: 300px; height: 300px;"" />
                   </div>","null","5","1","B","",""
"","","","","","html-keyboard-response","48","435977","0.0-37.0-0.0-1.0","37FE1C04F3714328AC1C7EDFDCA72B3A","0199d692-fa7d-76e1-b434-fe1759f07874","0199d675-8795-765b-adc2-c813de8cd3d1","","null","<div style=""display: flex; justify-content: center; align-items: center;"">
                     <img src=""images/causal/causal_series_5/causal_series_5_c.png"" style=""width: 300px; height: 300px;"" />
                   </div>","null","5","1","C","",""
"","","","","","html-keyboard-response","49","441983","0.0-37.0-0.0-2.0","37FE1C04F3714328AC1C7EDFDCA72B3A","0199d692-fa7d-76e1-b434-fe1759f07874","0199d675-8795-765b-adc2-c813de8cd3d1","","null","<div style=""display: flex; justify-content: center; align-items: center;"">
                     <img src=""images/causal/causal_series_5/causal_series_5_d.png"" style=""width: 300px; height: 300px;"" />
                   </div>","null","5","1","D","",""
"","","","","","survey-likert","50","446734","0.0-38.0","37FE1C04F3714328AC1C7EDFDCA72B3A","0199d692-fa7d-76e1-b434-fe1759f07874","0199d675-8795-765b-adc2-c813de8cd3d1","","4750","","{""Q0"":2}","5","1","surprise_rating","","[0]"
"","","","","","survey-likert","51","449904","0.0-39.0","37FE1C04F3714328AC1C7EDFDCA72B3A","0199d692-fa7d-76e1-b434-fe1759f07874","0199d675-8795-765b-adc2-c813de8cd3d1","","3168","","{""Q0"":2}","5","1","enjoyment_rating","","[0]"
"","","","","","html-keyboard-response","52","455920","0.0-40.0","37FE1C04F3714328AC1C7EDFDCA72B3A","0199d692-fa7d-76e1-b434-fe1759f07874","0199d675-8795-765b-adc2-c813de8cd3d1","","null","<div style=""display: flex; justify-content: center; align-items: center;"">
                     <img src=""images/other/blank.png"" style=""width: 300px; height: 300px;"" />
                   </div>","null","0","0","blank","",""
"","","","","","html-keyboard-response","53","461935","0.0-41.0","37FE1C04F3714328AC1C7EDFDCA72B3A","0199d692-fa7d-76e1-b434-fe1759f07874","0199d675-8795-765b-adc2-c813de8cd3d1","","null","<div style=""display: flex; justify-content: center; align-items: center;"">
                     <img src=""images/causal/causal_series_9/causal_series_9_a.png"" style=""width: 300px; height: 300px;"" />
                   </div>","null","9","1","A","",""
"","","","","","html-button-response","54","463931","0.0-42.0","37FE1C04F3714328AC1C7EDFDCA72B3A","0199d692-fa7d-76e1-b434-fe1759f07874","0199d675-8795-765b-adc2-c813de8cd3d1","","1994","
        <div style=""display: flex; justify-content: center; align-items: center;"">
          <img src=""images/red_deck_2.png"" style=""width: 300px; height: 300px; margin-right: 10px;"" />
          <img src=""images/blue_deck_1.png"" style=""width: 300px; height: 300px;"" />
        </div>","0","9","1","choice","0",""
"","","","","","html-keyboard-response","55","469940","0.0-43.0-0.0-0.0","37FE1C04F3714328AC1C7EDFDCA72B3A","0199d692-fa7d-76e1-b434-fe1759f07874","0199d675-8795-765b-adc2-c813de8cd3d1","","null","<div style=""display: flex; justify-content: center; align-items: center;"">
                     <img src=""images/causal/causal_series_9/causal_series_9_b.png"" style=""width: 300px; height: 300px;"" />
                   </div>","null","9","1","B","",""
"","","","","","html-keyboard-response","56","475952","0.0-43.0-0.0-1.0","37FE1C04F3714328AC1C7EDFDCA72B3A","0199d692-fa7d-76e1-b434-fe1759f07874","0199d675-8795-765b-adc2-c813de8cd3d1","","null","<div style=""display: flex; justify-content: center; align-items: center;"">
                     <img src=""images/causal/causal_series_9/causal_series_9_c.png"" style=""width: 300px; height: 300px;"" />
                   </div>","null","9","1","C","",""
"","","","","","html-keyboard-response","57","481957","0.0-43.0-0.0-2.0","37FE1C04F3714328AC1C7EDFDCA72B3A","0199d692-fa7d-76e1-b434-fe1759f07874","0199d675-8795-765b-adc2-c813de8cd3d1","","null","<div style=""display: flex; justify-content: center; align-items: center;"">
                     <img src=""images/causal/causal_series_9/causal_series_9_d.png"" style=""width: 300px; height: 300px;"" />
                   </div>","null","9","1","D","",""
"","","","","","survey-likert","58","486790","0.0-44.0","37FE1C04F3714328AC1C7EDFDCA72B3A","0199d692-fa7d-76e1-b434-fe1759f07874","0199d675-8795-765b-adc2-c813de8cd3d1","","4832","","{""Q0"":3}","9","1","surprise_rating","","[0]"
"","","","","","survey-likert","59","489817","0.0-45.0","37FE1C04F3714328AC1C7EDFDCA72B3A","0199d692-fa7d-76e1-b434-fe1759f07874","0199d675-8795-765b-adc2-c813de8cd3d1","","3025","","{""Q0"":3}","9","1","enjoyment_rating","","[0]"
"","","","","","html-keyboard-response","60","495830","0.0-46.0","37FE1C04F3714328AC1C7EDFDCA72B3A","0199d692-fa7d-76e1-b434-fe1759f07874","0199d675-8795-765b-adc2-c813de8cd3d1","","null","<div style=""display: flex; justify-content: center; align-items: center;"">
                     <img src=""images/other/blank.png"" style=""width: 300px; height: 300px;"" />
                   </div>","null","0","0","blank","",""
"","","","","","html-keyboard-response","61","501834","0.0-47.0","37FE1C04F3714328AC1C7EDFDCA72B3A","0199d692-fa7d-76e1-b434-fe1759f07874","0199d675-8795-765b-adc2-c813de8cd3d1","","null","<div style=""display: flex; justify-content: center; align-items: center;"">
                     <img src=""images/causal/causal_series_4/causal_series_4_a.png"" style=""width: 300px; height: 300px;"" />
                   </div>","null","4","2","A","",""
"","","","","","html-button-response","62","503840","0.0-48.0","37FE1C04F3714328AC1C7EDFDCA72B3A","0199d692-fa7d-76e1-b434-fe1759f07874","0199d675-8795-765b-adc2-c813de8cd3d1","","2004","
        <div style=""display: flex; justify-content: center; align-items: center;"">
          <img src=""images/red_deck_2.png"" style=""width: 300px; height: 300px; margin-right: 10px;"" />
          <img src=""images/blue_deck_1.png"" style=""width: 300px; height: 300px;"" />
        </div>","0","4","2","choice","0",""
"","","","","","html-keyboard-response","63","509857","0.0-49.0-0.0-0.0","37FE1C04F3714328AC1C7EDFDCA72B3A","0199d692-fa7d-76e1-b434-fe1759f07874","0199d675-8795-765b-adc2-c813de8cd3d1","","null","<div style=""display: flex; justify-content: center; align-items: center;"">
                     <img src=""images/causal/causal_series_4/causal_series_4_b.png"" style=""width: 300px; height: 300px;"" />
                   </div>","null","4","2","B","",""
"","","","","","html-keyboard-response","64","515859","0.0-49.0-0.0-1.0","37FE1C04F3714328AC1C7EDFDCA72B3A","0199d692-fa7d-76e1-b434-fe1759f07874","0199d675-8795-765b-adc2-c813de8cd3d1","","null","<div style=""display: flex; justify-content: center; align-items: center;"">
                     <img src=""images/causal/causal_series_4/causal_series_4_c.png"" style=""width: 300px; height: 300px;"" />
                   </div>","null","4","2","C","",""
"","","","","","html-keyboard-response","65","521862","0.0-49.0-0.0-2.0","37FE1C04F3714328AC1C7EDFDCA72B3A","0199d692-fa7d-76e1-b434-fe1759f07874","0199d675-8795-765b-adc2-c813de8cd3d1","","null","<div style=""display: flex; justify-content: center; align-items: center;"">
                     <img src=""images/causal/causal_series_4/causal_series_4_d.png"" style=""width: 300px; height: 300px;"" />
                   </div>","null","4","2","D","",""
"","","","","","survey-likert","66","524530","0.0-50.0","37FE1C04F3714328AC1C7EDFDCA72B3A","0199d692-fa7d-76e1-b434-fe1759f07874","0199d675-8795-765b-adc2-c813de8cd3d1","","2665","","{""Q0"":4}","4","2","surprise_rating","","[0]"
"","","","","","survey-likert","67","527729","0.0-51.0","37FE1C04F3714328AC1C7EDFDCA72B3A","0199d692-fa7d-76e1-b434-fe1759f07874","0199d675-8795-765b-adc2-c813de8cd3d1","","3196","","{""Q0"":4}","4","2","enjoyment_rating","","[0]"
"","","","","","html-keyboard-response","68","533736","0.0-52.0","37FE1C04F3714328AC1C7EDFDCA72B3A","0199d692-fa7d-76e1-b434-fe1759f07874","0199d675-8795-765b-adc2-c813de8cd3d1","","null","<div style=""display: flex; justify-content: center; align-items: center;"">
                     <img src=""images/other/blank.png"" style=""width: 300px; height: 300px;"" />
                   </div>","null","0","0","blank","",""
"","","","","","html-keyboard-response","69","539750","0.0-53.0","37FE1C04F3714328AC1C7EDFDCA72B3A","0199d692-fa7d-76e1-b434-fe1759f07874","0199d675-8795-765b-adc2-c813de8cd3d1","","null","<div style=""display: flex; justify-content: center; align-items: center;"">
                     <img src=""images/causal/causal_series_5/causal_series_5_a.png"" style=""width: 300px; height: 300px;"" />
                   </div>","null","5","2","A","",""
"","","","","","html-button-response","70","543386","0.0-54.0","37FE1C04F3714328AC1C7EDFDCA72B3A","0199d692-fa7d-76e1-b434-fe1759f07874","0199d675-8795-765b-adc2-c813de8cd3d1","","3633","
        <div style=""display: flex; justify-content: center; align-items: center;"">
          <img src=""images/red_deck_2.png"" style=""width: 300px; height: 300px; margin-right: 10px;"" />
          <img src=""images/blue_deck_1.png"" style=""width: 300px; height: 300px;"" />
        </div>","1","5","2","choice","1",""
"","","","","","html-keyboard-response","71","549402","0.0-55.0-1.0-0.0","37FE1C04F3714328AC1C7EDFDCA72B3A","0199d692-fa7d-76e1-b434-fe1759f07874","0199d675-8795-765b-adc2-c813de8cd3d1","","null","<div style=""display: flex; justify-content: center; align-items: center;"">
                     <img src=""images/semantic/semantic_series_5/semantic_series_5_b.png"" style=""width: 300px; height: 300px;"" />
                   </div>","null","5","2","B","",""
"","","","","","html-keyboard-response","72","555404","0.0-55.0-1.0-1.0","37FE1C04F3714328AC1C7EDFDCA72B3A","0199d692-fa7d-76e1-b434-fe1759f07874","0199d675-8795-765b-adc2-c813de8cd3d1","","null","<div style=""display: flex; justify-content: center; align-items: center;"">
                     <img src=""images/semantic/semantic_series_5/semantic_series_5_c.png"" style=""width: 300px; height: 300px;"" />
                   </div>","null","5","2","C","",""
"","","","","","html-keyboard-response","73","561418","0.0-55.0-1.0-2.0","37FE1C04F3714328AC1C7EDFDCA72B3A","0199d692-fa7d-76e1-b434-fe1759f07874","0199d675-8795-765b-adc2-c813de8cd3d1","","null","<div style=""display: flex; justify-content: center; align-items: center;"">
                     <img src=""images/semantic/semantic_series_5/semantic_series_5_d.png"" style=""width: 300px; height: 300px;"" />
                   </div>","null","5","2","D","",""
"","","","","","survey-likert","74","569592","0.0-56.0","37FE1C04F3714328AC1C7EDFDCA72B3A","0199d692-fa7d-76e1-b434-fe1759f07874","0199d675-8795-765b-adc2-c813de8cd3d1","","8172","","{""Q0"":1}","5","2","surprise_rating","","[0]"
"","","","","","survey-likert","75","573731","0.0-57.0","37FE1C04F3714328AC1C7EDFDCA72B3A","0199d692-fa7d-76e1-b434-fe1759f07874","0199d675-8795-765b-adc2-c813de8cd3d1","","4135","","{""Q0"":2}","5","2","enjoyment_rating","","[0]"
"","","","","","html-keyboard-response","76","579746","0.0-58.0","37FE1C04F3714328AC1C7EDFDCA72B3A","0199d692-fa7d-76e1-b434-fe1759f07874","0199d675-8795-765b-adc2-c813de8cd3d1","","null","<div style=""display: flex; justify-content: center; align-items: center;"">
                     <img src=""images/other/blank.png"" style=""width: 300px; height: 300px;"" />
                   </div>","null","0","0","blank","",""
"","","","","","html-keyboard-response","77","585751","0.0-59.0","37FE1C04F3714328AC1C7EDFDCA72B3A","0199d692-fa7d-76e1-b434-fe1759f07874","0199d675-8795-765b-adc2-c813de8cd3d1","","null","<div style=""display: flex; justify-content: center; align-items: center;"">
                     <img src=""images/causal/causal_series_3/causal_series_3_a.png"" style=""width: 300px; height: 300px;"" />
                   </div>","null","3","1","A","",""
"","","","","","html-button-response","78","587211","0.0-60.0","37FE1C04F3714328AC1C7EDFDCA72B3A","0199d692-fa7d-76e1-b434-fe1759f07874","0199d675-8795-765b-adc2-c813de8cd3d1","","1457","
        <div style=""display: flex; justify-content: center; align-items: center;"">
          <img src=""images/red_deck_2.png"" style=""width: 300px; height: 300px; margin-right: 10px;"" />
          <img src=""images/blue_deck_1.png"" style=""width: 300px; height: 300px;"" />
        </div>","1","3","1","choice","1",""
"","","","","","html-keyboard-response","79","593225","0.0-61.0-1.0-0.0","37FE1C04F3714328AC1C7EDFDCA72B3A","0199d692-fa7d-76e1-b434-fe1759f07874","0199d675-8795-765b-adc2-c813de8cd3d1","","null","<div style=""display: flex; justify-content: center; align-items: center;"">
                     <img src=""images/semantic/semantic_series_3/semantic_series_3_b.png"" style=""width: 300px; height: 300px;"" />
                   </div>","null","3","1","B","",""
"","","","","","html-keyboard-response","80","599231","0.0-61.0-1.0-1.0","37FE1C04F3714328AC1C7EDFDCA72B3A","0199d692-fa7d-76e1-b434-fe1759f07874","0199d675-8795-765b-adc2-c813de8cd3d1","","null","<div style=""display: flex; justify-content: center; align-items: center;"">
                     <img src=""images/semantic/semantic_series_3/semantic_series_3_c.png"" style=""width: 300px; height: 300px;"" />
                   </div>","null","3","1","C","",""
"","","","","","html-keyboard-response","81","605246","0.0-61.0-1.0-2.0","37FE1C04F3714328AC1C7EDFDCA72B3A","0199d692-fa7d-76e1-b434-fe1759f07874","0199d675-8795-765b-adc2-c813de8cd3d1","","null","<div style=""display: flex; justify-content: center; align-items: center;"">
                     <img src=""images/semantic/semantic_series_3/semantic_series_3_d.png"" style=""width: 300px; height: 300px;"" />
                   </div>","null","3","1","D","",""
"","","","","","survey-likert","82","609184","0.0-62.0","37FE1C04F3714328AC1C7EDFDCA72B3A","0199d692-fa7d-76e1-b434-fe1759f07874","0199d675-8795-765b-adc2-c813de8cd3d1","","3935","","{""Q0"":3}","3","1","surprise_rating","","[0]"
"","","","","","survey-likert","83","611866","0.0-63.0","37FE1C04F3714328AC1C7EDFDCA72B3A","0199d692-fa7d-76e1-b434-fe1759f07874","0199d675-8795-765b-adc2-c813de8cd3d1","","2679","","{""Q0"":3}","3","1","enjoyment_rating","","[0]"
"","","","","","html-keyboard-response","84","617872","0.0-64.0","37FE1C04F3714328AC1C7EDFDCA72B3A","0199d692-fa7d-76e1-b434-fe1759f07874","0199d675-8795-765b-adc2-c813de8cd3d1","","null","<div style=""display: flex; justify-content: center; align-items: center;"">
                     <img src=""images/other/blank.png"" style=""width: 300px; height: 300px;"" />
                   </div>","null","0","0","blank","",""
"","","","","","html-keyboard-response","85","623880","0.0-65.0","37FE1C04F3714328AC1C7EDFDCA72B3A","0199d692-fa7d-76e1-b434-fe1759f07874","0199d675-8795-765b-adc2-c813de8cd3d1","","null","<div style=""display: flex; justify-content: center; align-items: center;"">
                     <img src=""images/causal/causal_series_8/causal_series_8_a.png"" style=""width: 300px; height: 300px;"" />
                   </div>","null","8","2","A","",""
"","","","","","html-button-response","86","626170","0.0-66.0","37FE1C04F3714328AC1C7EDFDCA72B3A","0199d692-fa7d-76e1-b434-fe1759f07874","0199d675-8795-765b-adc2-c813de8cd3d1","","2288","
        <div style=""display: flex; justify-content: center; align-items: center;"">
          <img src=""images/red_deck_2.png"" style=""width: 300px; height: 300px; margin-right: 10px;"" />
          <img src=""images/blue_deck_1.png"" style=""width: 300px; height: 300px;"" />
        </div>","0","8","2","choice","0",""
"","","","","","html-keyboard-response","87","632177","0.0-67.0-0.0-0.0","37FE1C04F3714328AC1C7EDFDCA72B3A","0199d692-fa7d-76e1-b434-fe1759f07874","0199d675-8795-765b-adc2-c813de8cd3d1","","null","<div style=""display: flex; justify-content: center; align-items: center;"">
                     <img src=""images/causal/causal_series_8/causal_series_8_b.png"" style=""width: 300px; height: 300px;"" />
                   </div>","null","8","2","B","",""
"","","","","","html-keyboard-response","88","638186","0.0-67.0-0.0-1.0","37FE1C04F3714328AC1C7EDFDCA72B3A","0199d692-fa7d-76e1-b434-fe1759f07874","0199d675-8795-765b-adc2-c813de8cd3d1","","null","<div style=""display: flex; justify-content: center; align-items: center;"">
                     <img src=""images/causal/causal_series_8/causal_series_8_c.png"" style=""width: 300px; height: 300px;"" />
                   </div>","null","8","2","C","",""
"","","","","","html-keyboard-response","89","644194","0.0-67.0-0.0-2.0","37FE1C04F3714328AC1C7EDFDCA72B3A","0199d692-fa7d-76e1-b434-fe1759f07874","0199d675-8795-765b-adc2-c813de8cd3d1","","null","<div style=""display: flex; justify-content: center; align-items: center;"">
                     <img src=""images/causal/causal_series_8/causal_series_8_d.png"" style=""width: 300px; height: 300px;"" />
                   </div>","null","8","2","D","",""
"","","","","","survey-likert","90","648053","0.0-68.0","37FE1C04F3714328AC1C7EDFDCA72B3A","0199d692-fa7d-76e1-b434-fe1759f07874","0199d675-8795-765b-adc2-c813de8cd3d1","","3857","","{""Q0"":2}","8","2","surprise_rating","","[0]"
"","","","","","survey-likert","91","650312","0.0-69.0","37FE1C04F3714328AC1C7EDFDCA72B3A","0199d692-fa7d-76e1-b434-fe1759f07874","0199d675-8795-765b-adc2-c813de8cd3d1","","2256","","{""Q0"":2}","8","2","enjoyment_rating","","[0]"
"","","","","","html-keyboard-response","92","656323","0.0-70.0","37FE1C04F3714328AC1C7EDFDCA72B3A","0199d692-fa7d-76e1-b434-fe1759f07874","0199d675-8795-765b-adc2-c813de8cd3d1","","null","<div style=""display: flex; justify-content: center; align-items: center;"">
                     <img src=""images/other/blank.png"" style=""width: 300px; height: 300px;"" />
                   </div>","null","0","0","blank","",""
"","","","","","html-keyboard-response","93","662330","0.0-71.0","37FE1C04F3714328AC1C7EDFDCA72B3A","0199d692-fa7d-76e1-b434-fe1759f07874","0199d675-8795-765b-adc2-c813de8cd3d1","","null","<div style=""display: flex; justify-content: center; align-items: center;"">
                     <img src=""images/causal/causal_series_6/causal_series_6_a.png"" style=""width: 300px; height: 300px;"" />
                   </div>","null","6","2","A","",""
"","","","","","html-button-response","94","664079","0.0-72.0","37FE1C04F3714328AC1C7EDFDCA72B3A","0199d692-fa7d-76e1-b434-fe1759f07874","0199d675-8795-765b-adc2-c813de8cd3d1","","1745","
        <div style=""display: flex; justify-content: center; align-items: center;"">
          <img src=""images/red_deck_2.png"" style=""width: 300px; height: 300px; margin-right: 10px;"" />
          <img src=""images/blue_deck_1.png"" style=""width: 300px; height: 300px;"" />
        </div>","1","6","2","choice","1",""
"","","","","","html-keyboard-response","95","670089","0.0-73.0-1.0-0.0","37FE1C04F3714328AC1C7EDFDCA72B3A","0199d692-fa7d-76e1-b434-fe1759f07874","0199d675-8795-765b-adc2-c813de8cd3d1","","null","<div style=""display: flex; justify-content: center; align-items: center;"">
                     <img src=""images/semantic/semantic_series_6/semantic_series_6_b.png"" style=""width: 300px; height: 300px;"" />
                   </div>","null","6","2","B","",""
"","","","","","html-keyboard-response","96","676095","0.0-73.0-1.0-1.0","37FE1C04F3714328AC1C7EDFDCA72B3A","0199d692-fa7d-76e1-b434-fe1759f07874","0199d675-8795-765b-adc2-c813de8cd3d1","","null","<div style=""display: flex; justify-content: center; align-items: center;"">
                     <img src=""images/semantic/semantic_series_6/semantic_series_6_c.png"" style=""width: 300px; height: 300px;"" />
                   </div>","null","6","2","C","",""
"","","","","","html-keyboard-response","97","682105","0.0-73.0-1.0-2.0","37FE1C04F3714328AC1C7EDFDCA72B3A","0199d692-fa7d-76e1-b434-fe1759f07874","0199d675-8795-765b-adc2-c813de8cd3d1","","null","<div style=""display: flex; justify-content: center; align-items: center;"">
                     <img src=""images/semantic/semantic_series_6/semantic_series_6_d.png"" style=""width: 300px; height: 300px;"" />
                   </div>","null","6","2","D","",""
"","","","","","survey-likert","98","685581","0.0-74.0","37FE1C04F3714328AC1C7EDFDCA72B3A","0199d692-fa7d-76e1-b434-fe1759f07874","0199d675-8795-765b-adc2-c813de8cd3d1","","3473","","{""Q0"":1}","6","2","surprise_rating","","[0]"
"","","","","","survey-likert","99","690020","0.0-75.0","37FE1C04F3714328AC1C7EDFDCA72B3A","0199d692-fa7d-76e1-b434-fe1759f07874","0199d675-8795-765b-adc2-c813de8cd3d1","","4436","","{""Q0"":1}","6","2","enjoyment_rating","","[0]"
"","","","","","html-keyboard-response","100","696024","0.0-76.0","37FE1C04F3714328AC1C7EDFDCA72B3A","0199d692-fa7d-76e1-b434-fe1759f07874","0199d675-8795-765b-adc2-c813de8cd3d1","","null","<div style=""display: flex; justify-content: center; align-items: center;"">
                     <img src=""images/other/blank.png"" style=""width: 300px; height: 300px;"" />
                   </div>","null","0","0","blank","",""
"","","","","","html-keyboard-response","101","702042","0.0-77.0","37FE1C04F3714328AC1C7EDFDCA72B3A","0199d692-fa7d-76e1-b434-fe1759f07874","0199d675-8795-765b-adc2-c813de8cd3d1","","null","<div style=""display: flex; justify-content: center; align-items: center;"">
                     <img src=""images/causal/causal_series_4/causal_series_4_a.png"" style=""width: 300px; height: 300px;"" />
                   </div>","null","4","1","A","",""
"","","","","","html-button-response","102","712494","0.0-78.0","37FE1C04F3714328AC1C7EDFDCA72B3A","0199d692-fa7d-76e1-b434-fe1759f07874","0199d675-8795-765b-adc2-c813de8cd3d1","","10450","
        <div style=""display: flex; justify-content: center; align-items: center;"">
          <img src=""images/red_deck_2.png"" style=""width: 300px; height: 300px; margin-right: 10px;"" />
          <img src=""images/blue_deck_1.png"" style=""width: 300px; height: 300px;"" />
        </div>","1","4","1","choice","1",""
"","","","","","html-keyboard-response","103","718508","0.0-79.0-1.0-0.0","37FE1C04F3714328AC1C7EDFDCA72B3A","0199d692-fa7d-76e1-b434-fe1759f07874","0199d675-8795-765b-adc2-c813de8cd3d1","","null","<div style=""display: flex; justify-content: center; align-items: center;"">
                     <img src=""images/semantic/semantic_series_4/semantic_series_4_b.png"" style=""width: 300px; height: 300px;"" />
                   </div>","null","4","1","B","",""
"","","","","","html-keyboard-response","104","724510","0.0-79.0-1.0-1.0","37FE1C04F3714328AC1C7EDFDCA72B3A","0199d692-fa7d-76e1-b434-fe1759f07874","0199d675-8795-765b-adc2-c813de8cd3d1","","null","<div style=""display: flex; justify-content: center; align-items: center;"">
                     <img src=""images/semantic/semantic_series_4/semantic_series_4_c.png"" style=""width: 300px; height: 300px;"" />
                   </div>","null","4","1","C","",""
"","","","","","html-keyboard-response","105","730524","0.0-79.0-1.0-2.0","37FE1C04F3714328AC1C7EDFDCA72B3A","0199d692-fa7d-76e1-b434-fe1759f07874","0199d675-8795-765b-adc2-c813de8cd3d1","","null","<div style=""display: flex; justify-content: center; align-items: center;"">
                     <img src=""images/semantic/semantic_series_4/semantic_series_4_d.png"" style=""width: 300px; height: 300px;"" />
                   </div>","null","4","1","D","",""
"","","","","","survey-likert","106","735243","0.0-80.0","37FE1C04F3714328AC1C7EDFDCA72B3A","0199d692-fa7d-76e1-b434-fe1759f07874","0199d675-8795-765b-adc2-c813de8cd3d1","","4717","","{""Q0"":1}","4","1","surprise_rating","","[0]"
"","","","","","survey-likert","107","739688","0.0-81.0","37FE1C04F3714328AC1C7EDFDCA72B3A","0199d692-fa7d-76e1-b434-fe1759f07874","0199d675-8795-765b-adc2-c813de8cd3d1","","4442","","{""Q0"":1}","4","1","enjoyment_rating","","[0]"
"","","","","","html-keyboard-response","108","745706","0.0-82.0","37FE1C04F3714328AC1C7EDFDCA72B3A","0199d692-fa7d-76e1-b434-fe1759f07874","0199d675-8795-765b-adc2-c813de8cd3d1","","null","<div style=""display: flex; justify-content: center; align-items: center;"">
                     <img src=""images/other/blank.png"" style=""width: 300px; height: 300px;"" />
                   </div>","null","0","0","blank","",""
"","","","","","html-keyboard-response","109","751714","0.0-83.0","37FE1C04F3714328AC1C7EDFDCA72B3A","0199d692-fa7d-76e1-b434-fe1759f07874","0199d675-8795-765b-adc2-c813de8cd3d1","","null","<div style=""display: flex; justify-content: center; align-items: center;"">
                     <img src=""images/causal/causal_series_8/causal_series_8_a.png"" style=""width: 300px; height: 300px;"" />
                   </div>","null","8","1","A","",""
"","","","","","html-button-response","110","753955","0.0-84.0","37FE1C04F3714328AC1C7EDFDCA72B3A","0199d692-fa7d-76e1-b434-fe1759f07874","0199d675-8795-765b-adc2-c813de8cd3d1","","2240","
        <div style=""display: flex; justify-content: center; align-items: center;"">
          <img src=""images/red_deck_2.png"" style=""width: 300px; height: 300px; margin-right: 10px;"" />
          <img src=""images/blue_deck_1.png"" style=""width: 300px; height: 300px;"" />
        </div>","1","8","1","choice","1",""
"","","","","","html-keyboard-response","111","759959","0.0-85.0-1.0-0.0","37FE1C04F3714328AC1C7EDFDCA72B3A","0199d692-fa7d-76e1-b434-fe1759f07874","0199d675-8795-765b-adc2-c813de8cd3d1","","null","<div style=""display: flex; justify-content: center; align-items: center;"">
                     <img src=""images/semantic/semantic_series_8/semantic_series_8_b.png"" style=""width: 300px; height: 300px;"" />
                   </div>","null","8","1","B","",""
"","","","","","html-keyboard-response","112","765961","0.0-85.0-1.0-1.0","37FE1C04F3714328AC1C7EDFDCA72B3A","0199d692-fa7d-76e1-b434-fe1759f07874","0199d675-8795-765b-adc2-c813de8cd3d1","","null","<div style=""display: flex; justify-content: center; align-items: center;"">
                     <img src=""images/semantic/semantic_series_8/semantic_series_8_c.png"" style=""width: 300px; height: 300px;"" />
                   </div>","null","8","1","C","",""
"","","","","","html-keyboard-response","113","771977","0.0-85.0-1.0-2.0","37FE1C04F3714328AC1C7EDFDCA72B3A","0199d692-fa7d-76e1-b434-fe1759f07874","0199d675-8795-765b-adc2-c813de8cd3d1","","null","<div style=""display: flex; justify-content: center; align-items: center;"">
                     <img src=""images/semantic/semantic_series_8/semantic_series_8_d.png"" style=""width: 300px; height: 300px;"" />
                   </div>","null","8","1","D","",""
"","","","","","survey-likert","114","778156","0.0-86.0","37FE1C04F3714328AC1C7EDFDCA72B3A","0199d692-fa7d-76e1-b434-fe1759f07874","0199d675-8795-765b-adc2-c813de8cd3d1","","6177","","{""Q0"":3}","8","1","surprise_rating","","[0]"
"","","","","","survey-likert","115","781523","0.0-87.0","37FE1C04F3714328AC1C7EDFDCA72B3A","0199d692-fa7d-76e1-b434-fe1759f07874","0199d675-8795-765b-adc2-c813de8cd3d1","","3364","","{""Q0"":3}","8","1","enjoyment_rating","","[0]"
"","","","","","html-keyboard-response","116","787529","0.0-88.0","37FE1C04F3714328AC1C7EDFDCA72B3A","0199d692-fa7d-76e1-b434-fe1759f07874","0199d675-8795-765b-adc2-c813de8cd3d1","","null","<div style=""display: flex; justify-content: center; align-items: center;"">
                     <img src=""images/other/blank.png"" style=""width: 300px; height: 300px;"" />
                   </div>","null","0","0","blank","",""
"","","","","","html-keyboard-response","117","793537","0.0-89.0","37FE1C04F3714328AC1C7EDFDCA72B3A","0199d692-fa7d-76e1-b434-fe1759f07874","0199d675-8795-765b-adc2-c813de8cd3d1","","null","<div style=""display: flex; justify-content: center; align-items: center;"">
                     <img src=""images/causal/causal_series_10/causal_series_10_a.png"" style=""width: 300px; height: 300px;"" />
                   </div>","null","10","1","A","",""
"","","","","","html-button-response","118","795528","0.0-90.0","37FE1C04F3714328AC1C7EDFDCA72B3A","0199d692-fa7d-76e1-b434-fe1759f07874","0199d675-8795-765b-adc2-c813de8cd3d1","","1988","
        <div style=""display: flex; justify-content: center; align-items: center;"">
          <img src=""images/red_deck_2.png"" style=""width: 300px; height: 300px; margin-right: 10px;"" />
          <img src=""images/blue_deck_1.png"" style=""width: 300px; height: 300px;"" />
        </div>","0","10","1","choice","0",""
"","","","","","html-keyboard-response","119","801535","0.0-91.0-0.0-0.0","37FE1C04F3714328AC1C7EDFDCA72B3A","0199d692-fa7d-76e1-b434-fe1759f07874","0199d675-8795-765b-adc2-c813de8cd3d1","","null","<div style=""display: flex; justify-content: center; align-items: center;"">
                     <img src=""images/causal/causal_series_10/causal_series_10_b.png"" style=""width: 300px; height: 300px;"" />
                   </div>","null","10","1","B","",""
"","","","","","html-keyboard-response","120","807541","0.0-91.0-0.0-1.0","37FE1C04F3714328AC1C7EDFDCA72B3A","0199d692-fa7d-76e1-b434-fe1759f07874","0199d675-8795-765b-adc2-c813de8cd3d1","","null","<div style=""display: flex; justify-content: center; align-items: center;"">
                     <img src=""images/causal/causal_series_10/causal_series_10_c.png"" style=""width: 300px; height: 300px;"" />
                   </div>","null","10","1","C","",""
"","","","","","html-keyboard-response","121","813548","0.0-91.0-0.0-2.0","37FE1C04F3714328AC1C7EDFDCA72B3A","0199d692-fa7d-76e1-b434-fe1759f07874","0199d675-8795-765b-adc2-c813de8cd3d1","","null","<div style=""display: flex; justify-content: center; align-items: center;"">
                     <img src=""images/causal/causal_series_10/causal_series_10_d.png"" style=""width: 300px; height: 300px;"" />
                   </div>","null","10","1","D","",""
"","","","","","survey-likert","122","817676","0.0-92.0","37FE1C04F3714328AC1C7EDFDCA72B3A","0199d692-fa7d-76e1-b434-fe1759f07874","0199d675-8795-765b-adc2-c813de8cd3d1","","4126","","{""Q0"":4}","10","1","surprise_rating","","[0]"
"","","","","","survey-likert","123","820859","0.0-93.0","37FE1C04F3714328AC1C7EDFDCA72B3A","0199d692-fa7d-76e1-b434-fe1759f07874","0199d675-8795-765b-adc2-c813de8cd3d1","","3179","","{""Q0"":4}","10","1","enjoyment_rating","","[0]"
"","","","","","html-keyboard-response","124","826875","0.0-94.0","37FE1C04F3714328AC1C7EDFDCA72B3A","0199d692-fa7d-76e1-b434-fe1759f07874","0199d675-8795-765b-adc2-c813de8cd3d1","","null","<div style=""display: flex; justify-content: center; align-items: center;"">
                     <img src=""images/other/blank.png"" style=""width: 300px; height: 300px;"" />
                   </div>","null","0","0","blank","",""
"","","","","","html-keyboard-response","125","832891","0.0-95.0","37FE1C04F3714328AC1C7EDFDCA72B3A","0199d692-fa7d-76e1-b434-fe1759f07874","0199d675-8795-765b-adc2-c813de8cd3d1","","null","<div style=""display: flex; justify-content: center; align-items: center;"">
                     <img src=""images/causal/causal_series_6/causal_series_6_a.png"" style=""width: 300px; height: 300px;"" />
                   </div>","null","6","1","A","",""
"","","","","","html-button-response","126","835795","0.0-96.0","37FE1C04F3714328AC1C7EDFDCA72B3A","0199d692-fa7d-76e1-b434-fe1759f07874","0199d675-8795-765b-adc2-c813de8cd3d1","","2902","
        <div style=""display: flex; justify-content: center; align-items: center;"">
          <img src=""images/red_deck_2.png"" style=""width: 300px; height: 300px; margin-right: 10px;"" />
          <img src=""images/blue_deck_1.png"" style=""width: 300px; height: 300px;"" />
        </div>","0","6","1","choice","0",""
"","","","","","html-keyboard-response","127","841803","0.0-97.0-0.0-0.0","37FE1C04F3714328AC1C7EDFDCA72B3A","0199d692-fa7d-76e1-b434-fe1759f07874","0199d675-8795-765b-adc2-c813de8cd3d1","","null","<div style=""display: flex; justify-content: center; align-items: center;"">
                     <img src=""images/causal/causal_series_6/causal_series_6_b.png"" style=""width: 300px; height: 300px;"" />
                   </div>","null","6","1","B","",""
"","","","","","html-keyboard-response","128","847807","0.0-97.0-0.0-1.0","37FE1C04F3714328AC1C7EDFDCA72B3A","0199d692-fa7d-76e1-b434-fe1759f07874","0199d675-8795-765b-adc2-c813de8cd3d1","","null","<div style=""display: flex; justify-content: center; align-items: center;"">
                     <img src=""images/causal/causal_series_6/causal_series_6_c.png"" style=""width: 300px; height: 300px;"" />
                   </div>","null","6","1","C","",""
"","","","","","html-keyboard-response","129","853821","0.0-97.0-0.0-2.0","37FE1C04F3714328AC1C7EDFDCA72B3A","0199d692-fa7d-76e1-b434-fe1759f07874","0199d675-8795-765b-adc2-c813de8cd3d1","","null","<div style=""display: flex; justify-content: center; align-items: center;"">
                     <img src=""images/causal/causal_series_6/causal_series_6_d.png"" style=""width: 300px; height: 300px;"" />
                   </div>","null","6","1","D","",""
"","","","","","survey-likert","130","858075","0.0-98.0","37FE1C04F3714328AC1C7EDFDCA72B3A","0199d692-fa7d-76e1-b434-fe1759f07874","0199d675-8795-765b-adc2-c813de8cd3d1","","4252","","{""Q0"":2}","6","1","surprise_rating","","[0]"
"","","","","","survey-likert","131","859925","0.0-99.0","37FE1C04F3714328AC1C7EDFDCA72B3A","0199d692-fa7d-76e1-b434-fe1759f07874","0199d675-8795-765b-adc2-c813de8cd3d1","","1847","","{""Q0"":2}","6","1","enjoyment_rating","","[0]"
"","","","","","html-keyboard-response","132","865934","0.0-100.0","37FE1C04F3714328AC1C7EDFDCA72B3A","0199d692-fa7d-76e1-b434-fe1759f07874","0199d675-8795-765b-adc2-c813de8cd3d1","","null","<div style=""display: flex; justify-content: center; align-items: center;"">
                     <img src=""images/other/blank.png"" style=""width: 300px; height: 300px;"" />
                   </div>","null","0","0","blank","",""
"","","","","","html-keyboard-response","133","871948","0.0-101.0","37FE1C04F3714328AC1C7EDFDCA72B3A","0199d692-fa7d-76e1-b434-fe1759f07874","0199d675-8795-765b-adc2-c813de8cd3d1","","null","<div style=""display: flex; justify-content: center; align-items: center;"">
                     <img src=""images/causal/causal_series_1/causal_series_1_a.png"" style=""width: 300px; height: 300px;"" />
                   </div>","null","1","2","A","",""
"","","","","","html-button-response","134","873158","0.0-102.0","37FE1C04F3714328AC1C7EDFDCA72B3A","0199d692-fa7d-76e1-b434-fe1759f07874","0199d675-8795-765b-adc2-c813de8cd3d1","","1208","
        <div style=""display: flex; justify-content: center; align-items: center;"">
          <img src=""images/red_deck_2.png"" style=""width: 300px; height: 300px; margin-right: 10px;"" />
          <img src=""images/blue_deck_1.png"" style=""width: 300px; height: 300px;"" />
        </div>","0","1","2","choice","0",""
"","","","","","html-keyboard-response","135","879171","0.0-103.0-0.0-0.0","37FE1C04F3714328AC1C7EDFDCA72B3A","0199d692-fa7d-76e1-b434-fe1759f07874","0199d675-8795-765b-adc2-c813de8cd3d1","","null","<div style=""display: flex; justify-content: center; align-items: center;"">
                     <img src=""images/causal/causal_series_1/causal_series_1_b.png"" style=""width: 300px; height: 300px;"" />
                   </div>","null","1","2","B","",""
"","","","","","html-keyboard-response","136","885176","0.0-103.0-0.0-1.0","37FE1C04F3714328AC1C7EDFDCA72B3A","0199d692-fa7d-76e1-b434-fe1759f07874","0199d675-8795-765b-adc2-c813de8cd3d1","","null","<div style=""display: flex; justify-content: center; align-items: center;"">
                     <img src=""images/causal/causal_series_1/causal_series_1_c.png"" style=""width: 300px; height: 300px;"" />
                   </div>","null","1","2","C","",""
"","","","","","html-keyboard-response","137","891190","0.0-103.0-0.0-2.0","37FE1C04F3714328AC1C7EDFDCA72B3A","0199d692-fa7d-76e1-b434-fe1759f07874","0199d675-8795-765b-adc2-c813de8cd3d1","","null","<div style=""display: flex; justify-content: center; align-items: center;"">
                     <img src=""images/causal/causal_series_1/causal_series_1_d.png"" style=""width: 300px; height: 300px;"" />
                   </div>","null","1","2","D","",""
"","","","","","survey-likert","138","897888","0.0-104.0","37FE1C04F3714328AC1C7EDFDCA72B3A","0199d692-fa7d-76e1-b434-fe1759f07874","0199d675-8795-765b-adc2-c813de8cd3d1","","6694","","{""Q0"":2}","1","2","surprise_rating","","[0]"
"","","","","","survey-likert","139","899836","0.0-105.0","37FE1C04F3714328AC1C7EDFDCA72B3A","0199d692-fa7d-76e1-b434-fe1759f07874","0199d675-8795-765b-adc2-c813de8cd3d1","","1946","","{""Q0"":2}","1","2","enjoyment_rating","","[0]"
"","","","","","html-keyboard-response","140","905846","0.0-106.0","37FE1C04F3714328AC1C7EDFDCA72B3A","0199d692-fa7d-76e1-b434-fe1759f07874","0199d675-8795-765b-adc2-c813de8cd3d1","","null","<div style=""display: flex; justify-content: center; align-items: center;"">
                     <img src=""images/other/blank.png"" style=""width: 300px; height: 300px;"" />
                   </div>","null","0","0","blank","",""
"","","","","","html-keyboard-response","141","911863","0.0-107.0","37FE1C04F3714328AC1C7EDFDCA72B3A","0199d692-fa7d-76e1-b434-fe1759f07874","0199d675-8795-765b-adc2-c813de8cd3d1","","null","<div style=""display: flex; justify-content: center; align-items: center;"">
                     <img src=""images/causal/causal_series_7/causal_series_7_a.png"" style=""width: 300px; height: 300px;"" />
                   </div>","null","7","1","A","",""
"","","","","","html-button-response","142","913592","0.0-108.0","37FE1C04F3714328AC1C7EDFDCA72B3A","0199d692-fa7d-76e1-b434-fe1759f07874","0199d675-8795-765b-adc2-c813de8cd3d1","","1726","
        <div style=""display: flex; justify-content: center; align-items: center;"">
          <img src=""images/red_deck_2.png"" style=""width: 300px; height: 300px; margin-right: 10px;"" />
          <img src=""images/blue_deck_1.png"" style=""width: 300px; height: 300px;"" />
        </div>","1","7","1","choice","1",""
"","","","","","html-keyboard-response","143","919599","0.0-109.0-1.0-0.0","37FE1C04F3714328AC1C7EDFDCA72B3A","0199d692-fa7d-76e1-b434-fe1759f07874","0199d675-8795-765b-adc2-c813de8cd3d1","","null","<div style=""display: flex; justify-content: center; align-items: center;"">
                     <img src=""images/semantic/semantic_series_7/semantic_series_7_b.png"" style=""width: 300px; height: 300px;"" />
                   </div>","null","7","1","B","",""
"","","","","","html-keyboard-response","144","925616","0.0-109.0-1.0-1.0","37FE1C04F3714328AC1C7EDFDCA72B3A","0199d692-fa7d-76e1-b434-fe1759f07874","0199d675-8795-765b-adc2-c813de8cd3d1","","null","<div style=""display: flex; justify-content: center; align-items: center;"">
                     <img src=""images/semantic/semantic_series_7/semantic_series_7_c.png"" style=""width: 300px; height: 300px;"" />
                   </div>","null","7","1","C","",""
"","","","","","html-keyboard-response","145","931626","0.0-109.0-1.0-2.0","37FE1C04F3714328AC1C7EDFDCA72B3A","0199d692-fa7d-76e1-b434-fe1759f07874","0199d675-8795-765b-adc2-c813de8cd3d1","","null","<div style=""display: flex; justify-content: center; align-items: center;"">
                     <img src=""images/semantic/semantic_series_7/semantic_series_7_d.png"" style=""width: 300px; height: 300px;"" />
                   </div>","null","7","1","D","",""
"","","","","","survey-likert","146","940189","0.0-110.0","37FE1C04F3714328AC1C7EDFDCA72B3A","0199d692-fa7d-76e1-b434-fe1759f07874","0199d675-8795-765b-adc2-c813de8cd3d1","","8561","","{""Q0"":2}","7","1","surprise_rating","","[0]"
"","","","","","survey-likert","147","942737","0.0-111.0","37FE1C04F3714328AC1C7EDFDCA72B3A","0199d692-fa7d-76e1-b434-fe1759f07874","0199d675-8795-765b-adc2-c813de8cd3d1","","2545","","{""Q0"":2}","7","1","enjoyment_rating","","[0]"
"","","","","","html-keyboard-response","148","948753","0.0-112.0","37FE1C04F3714328AC1C7EDFDCA72B3A","0199d692-fa7d-76e1-b434-fe1759f07874","0199d675-8795-765b-adc2-c813de8cd3d1","","null","<div style=""display: flex; justify-content: center; align-items: center;"">
                     <img src=""images/other/blank.png"" style=""width: 300px; height: 300px;"" />
                   </div>","null","0","0","blank","",""
"","","","","","html-keyboard-response","149","954765","0.0-113.0","37FE1C04F3714328AC1C7EDFDCA72B3A","0199d692-fa7d-76e1-b434-fe1759f07874","0199d675-8795-765b-adc2-c813de8cd3d1","","null","<div style=""display: flex; justify-content: center; align-items: center;"">
                     <img src=""images/causal/causal_series_9/causal_series_9_a.png"" style=""width: 300px; height: 300px;"" />
                   </div>","null","9","2","A","",""
"","","","","","html-button-response","150","956284","0.0-114.0","37FE1C04F3714328AC1C7EDFDCA72B3A","0199d692-fa7d-76e1-b434-fe1759f07874","0199d675-8795-765b-adc2-c813de8cd3d1","","1517","
        <div style=""display: flex; justify-content: center; align-items: center;"">
          <img src=""images/red_deck_2.png"" style=""width: 300px; height: 300px; margin-right: 10px;"" />
          <img src=""images/blue_deck_1.png"" style=""width: 300px; height: 300px;"" />
        </div>","0","9","2","choice","0",""
"","","","","","html-keyboard-response","151","962301","0.0-115.0-0.0-0.0","37FE1C04F3714328AC1C7EDFDCA72B3A","0199d692-fa7d-76e1-b434-fe1759f07874","0199d675-8795-765b-adc2-c813de8cd3d1","","null","<div style=""display: flex; justify-content: center; align-items: center;"">
                     <img src=""images/causal/causal_series_9/causal_series_9_b.png"" style=""width: 300px; height: 300px;"" />
                   </div>","null","9","2","B","",""
"","","","","","html-keyboard-response","152","968306","0.0-115.0-0.0-1.0","37FE1C04F3714328AC1C7EDFDCA72B3A","0199d692-fa7d-76e1-b434-fe1759f07874","0199d675-8795-765b-adc2-c813de8cd3d1","","null","<div style=""display: flex; justify-content: center; align-items: center;"">
                     <img src=""images/causal/causal_series_9/causal_series_9_c.png"" style=""width: 300px; height: 300px;"" />
                   </div>","null","9","2","C","",""
"","","","","","html-keyboard-response","153","974322","0.0-115.0-0.0-2.0","37FE1C04F3714328AC1C7EDFDCA72B3A","0199d692-fa7d-76e1-b434-fe1759f07874","0199d675-8795-765b-adc2-c813de8cd3d1","","null","<div style=""display: flex; justify-content: center; align-items: center;"">
                     <img src=""images/causal/causal_series_9/causal_series_9_d.png"" style=""width: 300px; height: 300px;"" />
                   </div>","null","9","2","D","",""
"","","","","","survey-likert","154","976731","0.0-116.0","37FE1C04F3714328AC1C7EDFDCA72B3A","0199d692-fa7d-76e1-b434-fe1759f07874","0199d675-8795-765b-adc2-c813de8cd3d1","","2406","","{""Q0"":1}","9","2","surprise_rating","","[0]"
"","","","","","survey-likert","155","978788","0.0-117.0","37FE1C04F3714328AC1C7EDFDCA72B3A","0199d692-fa7d-76e1-b434-fe1759f07874","0199d675-8795-765b-adc2-c813de8cd3d1","","2054","","{""Q0"":1}","9","2","enjoyment_rating","","[0]"
"","","","","","html-keyboard-response","156","984805","0.0-118.0","37FE1C04F3714328AC1C7EDFDCA72B3A","0199d692-fa7d-76e1-b434-fe1759f07874","0199d675-8795-765b-adc2-c813de8cd3d1","","null","<div style=""display: flex; justify-content: center; align-items: center;"">
                     <img src=""images/other/blank.png"" style=""width: 300px; height: 300px;"" />
                   </div>","null","0","0","blank","",""
"","","","","","html-keyboard-response","157","990820","0.0-119.0","37FE1C04F3714328AC1C7EDFDCA72B3A","0199d692-fa7d-76e1-b434-fe1759f07874","0199d675-8795-765b-adc2-c813de8cd3d1","","null","<div style=""display: flex; justify-content: center; align-items: center;"">
                     <img src=""images/causal/causal_series_7/causal_series_7_a.png"" style=""width: 300px; height: 300px;"" />
                   </div>","null","7","2","A","",""
"","","","","","html-button-response","158","992911","0.0-120.0","37FE1C04F3714328AC1C7EDFDCA72B3A","0199d692-fa7d-76e1-b434-fe1759f07874","0199d675-8795-765b-adc2-c813de8cd3d1","","2088","
        <div style=""display: flex; justify-content: center; align-items: center;"">
          <img src=""images/red_deck_2.png"" style=""width: 300px; height: 300px; margin-right: 10px;"" />
          <img src=""images/blue_deck_1.png"" style=""width: 300px; height: 300px;"" />
        </div>","0","7","2","choice","0",""
"","","","","","html-keyboard-response","159","998922","0.0-121.0-0.0-0.0","37FE1C04F3714328AC1C7EDFDCA72B3A","0199d692-fa7d-76e1-b434-fe1759f07874","0199d675-8795-765b-adc2-c813de8cd3d1","","null","<div style=""display: flex; justify-content: center; align-items: center;"">
                     <img src=""images/causal/causal_series_7/causal_series_7_b.png"" style=""width: 300px; height: 300px;"" />
                   </div>","null","7","2","B","",""
"","","","","","html-keyboard-response","160","1004924","0.0-121.0-0.0-1.0","37FE1C04F3714328AC1C7EDFDCA72B3A","0199d692-fa7d-76e1-b434-fe1759f07874","0199d675-8795-765b-adc2-c813de8cd3d1","","null","<div style=""display: flex; justify-content: center; align-items: center;"">
                     <img src=""images/causal/causal_series_7/causal_series_7_c.png"" style=""width: 300px; height: 300px;"" />
                   </div>","null","7","2","C","",""
"","","","","","html-keyboard-response","161","1010932","0.0-121.0-0.0-2.0","37FE1C04F3714328AC1C7EDFDCA72B3A","0199d692-fa7d-76e1-b434-fe1759f07874","0199d675-8795-765b-adc2-c813de8cd3d1","","null","<div style=""display: flex; justify-content: center; align-items: center;"">
                     <img src=""images/causal/causal_series_7/causal_series_7_d.png"" style=""width: 300px; height: 300px;"" />
                   </div>","null","7","2","D","",""
"","","","","","survey-likert","162","1022895","0.0-122.0","37FE1C04F3714328AC1C7EDFDCA72B3A","0199d692-fa7d-76e1-b434-fe1759f07874","0199d675-8795-765b-adc2-c813de8cd3d1","","11961","","{""Q0"":1}","7","2","surprise_rating","","[0]"
"","","","","","survey-likert","163","1025551","0.0-123.0","37FE1C04F3714328AC1C7EDFDCA72B3A","0199d692-fa7d-76e1-b434-fe1759f07874","0199d675-8795-765b-adc2-c813de8cd3d1","","2654","","{""Q0"":1}","7","2","enjoyment_rating","","[0]"
"","","","","","html-keyboard-response","164","1031565","0.0-124.0","37FE1C04F3714328AC1C7EDFDCA72B3A","0199d692-fa7d-76e1-b434-fe1759f07874","0199d675-8795-765b-adc2-c813de8cd3d1","","null","<div style=""display: flex; justify-content: center; align-items: center;"">
                     <img src=""images/other/blank.png"" style=""width: 300px; height: 300px;"" />
                   </div>","null","0","0","blank","",""
"","","","","","survey-text","165","1052012","0.0-125.0","37FE1C04F3714328AC1C7EDFDCA72B3A","0199d692-fa7d-76e1-b434-fe1759f07874","0199d675-8795-765b-adc2-c813de8cd3d1","","20434","","{""Q0"":""one is a story teller and the other in randon events""}","","","","",""
"","","","","","html-button-response","166","1058095","0.0-126.0","37FE1C04F3714328AC1C7EDFDCA72B3A","0199d692-fa7d-76e1-b434-fe1759f07874","0199d675-8795-765b-adc2-c813de8cd3d1","","6081","Which color deck do the following sentences continue the story from?","1","","","","",""
"","","","","","html-button-response","167","1059806","0.0-127.0","37FE1C04F3714328AC1C7EDFDCA72B3A","0199d692-fa7d-76e1-b434-fe1759f07874","0199d675-8795-765b-adc2-c813de8cd3d1","","1708","Which color deck do the following sentences NOT follow the story from?","0","","","","",""
"","","","","","html-button-response","168","1074104","0.0-128.0","37FE1C04F3714328AC1C7EDFDCA72B3A","0199d692-fa7d-76e1-b434-fe1759f07874","0199d675-8795-765b-adc2-c813de8cd3d1","","14295","Which type of deck did you prefer overall?","1","","","","",""
"","","","","","survey-text","169","1080485","0.0-129.0","37FE1C04F3714328AC1C7EDFDCA72B3A","0199d692-fa7d-76e1-b434-fe1759f07874","0199d675-8795-765b-adc2-c813de8cd3d1","","6369","","{""Q0"":""female"",""Q1"":""23""}","","","","",""
"","","","","","instructions","170","1086199","0.0-130.0","37FE1C04F3714328AC1C7EDFDCA72B3A","0199d692-fa7d-76e1-b434-fe1759f07874","0199d675-8795-765b-adc2-c813de8cd3d1","[{""page_index"":0,""viewing_time"":5713}]","5713","","","","","","",""
