"success","timeout","failed_images","failed_audio","failed_video","trial_type","trial_index","time_elapsed","internal_node_id","subject_id","study_id","session_id","view_history","rt","stimulus","response","choice"
"true","false","[]","[]","[]","preload","0","3041","0.0-0.0","6D1B6B3437A2483584AC146874A34629","dd7b4880-72e0-4755-af29-47cdb06ee0ac","4f03f330-5f91-43fc-aa61-d9dda6d26521","","","","",""
"","","","","","instructions","1","4951","0.0-1.0","6D1B6B3437A2483584AC146874A34629","dd7b4880-72e0-4755-af29-47cdb06ee0ac","4f03f330-5f91-43fc-aa61-d9dda6d26521","[{""page_index"":0,""viewing_time"":1909}]","1909","","",""
"","","","","","instructions","2","7405","0.0-2.0","6D1B6B3437A2483584AC146874A34629","dd7b4880-72e0-4755-af29-47cdb06ee0ac","4f03f330-5f91-43fc-aa61-d9dda6d26521","[{""page_index"":0,""viewing_time"":2453}]","2453","","",""
"true","","","","","fullscreen","3","9814","0.0-3.0","6D1B6B3437A2483584AC146874A34629","dd7b4880-72e0-4755-af29-47cdb06ee0ac","4f03f330-5f91-43fc-aa61-d9dda6d26521","","1392","","",""
"","","","","","instructions","4","18283","0.0-4.0","6D1B6B3437A2483584AC146874A34629","dd7b4880-72e0-4755-af29-47cdb06ee0ac","4f03f330-5f91-43fc-aa61-d9dda6d26521","[{""page_index"":0,""viewing_time"":8468}]","8468","","",""
"","","","","","html-keyboard-response","5","21284","0.0-5.0","6D1B6B3437A2483584AC146874A34629","dd7b4880-72e0-4755-af29-47cdb06ee0ac","4f03f330-5f91-43fc-aa61-d9dda6d26521","","null","<div style=""display: flex; justify-content: center; align-items: center;"">
                <img src=""images/causal/causal_series_7/causal_series_7_a.jpg"" style=""width: 300px; height: 300px;"" />
              </div>","null",""
"","","","","","html-button-response","6","24107","0.0-6.0","6D1B6B3437A2483584AC146874A34629","dd7b4880-72e0-4755-af29-47cdb06ee0ac","4f03f330-5f91-43fc-aa61-d9dda6d26521","","2822","
    <div style=""display: flex; justify-content: center; align-items: center;"">
      <img src=""images/red_deck_2.png"" style=""width: 300px; height: 300px; margin-right: 10px;"" />
      <img src=""images/blue_deck_1.png"" style=""width: 300px; height: 300px;"" />
    </div>","0","0"
"","","","","","html-keyboard-response","7","27109","0.0-7.0-0.0-0.0","6D1B6B3437A2483584AC146874A34629","dd7b4880-72e0-4755-af29-47cdb06ee0ac","4f03f330-5f91-43fc-aa61-d9dda6d26521","","null","<div style=""display: flex; justify-content: center; align-items: center;"">
                <img src=""images/causal/causal_series_7/causal_series_7_b.jpg"" style=""width: 300px; height: 300px;"" />
              </div>","null",""
"","","","","","html-keyboard-response","8","30110","0.0-7.0-0.0-1.0","6D1B6B3437A2483584AC146874A34629","dd7b4880-72e0-4755-af29-47cdb06ee0ac","4f03f330-5f91-43fc-aa61-d9dda6d26521","","null","<div style=""display: flex; justify-content: center; align-items: center;"">
                <img src=""images/causal/causal_series_7/causal_series_7_c.jpg"" style=""width: 300px; height: 300px;"" />
              </div>","null",""
"","","","","","html-keyboard-response","9","33117","0.0-7.0-0.0-2.0","6D1B6B3437A2483584AC146874A34629","dd7b4880-72e0-4755-af29-47cdb06ee0ac","4f03f330-5f91-43fc-aa61-d9dda6d26521","","null","<div style=""display: flex; justify-content: center; align-items: center;"">
                <img src=""images/causal/causal_series_7/causal_series_7_d.jpg"" style=""width: 300px; height: 300px;"" />
              </div>","null",""
"","","","","","html-keyboard-response","10","36140","0.0-8.0","6D1B6B3437A2483584AC146874A34629","dd7b4880-72e0-4755-af29-47cdb06ee0ac","4f03f330-5f91-43fc-aa61-d9dda6d26521","","null","<div style=""display: flex; justify-content: center; align-items: center;"">
                <img src=""images/other/blank.jpg"" style=""width: 300px; height: 300px;"" />
              </div>","null",""
"","","","","","html-keyboard-response","11","39143","0.0-9.0","6D1B6B3437A2483584AC146874A34629","dd7b4880-72e0-4755-af29-47cdb06ee0ac","4f03f330-5f91-43fc-aa61-d9dda6d26521","","null","<div style=""display: flex; justify-content: center; align-items: center;"">
                <img src=""images/causal/causal_series_6/causal_series_6_a.jpg"" style=""width: 300px; height: 300px;"" />
              </div>","null",""
"","","","","","html-button-response","12","40035","0.0-10.0","6D1B6B3437A2483584AC146874A34629","dd7b4880-72e0-4755-af29-47cdb06ee0ac","4f03f330-5f91-43fc-aa61-d9dda6d26521","","891","
    <div style=""display: flex; justify-content: center; align-items: center;"">
      <img src=""images/red_deck_2.png"" style=""width: 300px; height: 300px; margin-right: 10px;"" />
      <img src=""images/blue_deck_1.png"" style=""width: 300px; height: 300px;"" />
    </div>","1","1"
"","","","","","html-keyboard-response","13","43049","0.0-11.0-1.0-0.0","6D1B6B3437A2483584AC146874A34629","dd7b4880-72e0-4755-af29-47cdb06ee0ac","4f03f330-5f91-43fc-aa61-d9dda6d26521","","null","<div style=""display: flex; justify-content: center; align-items: center;"">
                <img src=""images/semantic/semantic_series_15/semantic_series_15_d.jpg"" style=""width: 300px; height: 300px;"" />
              </div>","null",""
"","","","","","html-keyboard-response","14","46062","0.0-11.0-1.0-1.0","6D1B6B3437A2483584AC146874A34629","dd7b4880-72e0-4755-af29-47cdb06ee0ac","4f03f330-5f91-43fc-aa61-d9dda6d26521","","null","<div style=""display: flex; justify-content: center; align-items: center;"">
                <img src=""images/semantic/semantic_series_16/semantic_series_16_d.jpg"" style=""width: 300px; height: 300px;"" />
              </div>","null",""
"","","","","","html-keyboard-response","15","49080","0.0-11.0-1.0-2.0","6D1B6B3437A2483584AC146874A34629","dd7b4880-72e0-4755-af29-47cdb06ee0ac","4f03f330-5f91-43fc-aa61-d9dda6d26521","","null","<div style=""display: flex; justify-content: center; align-items: center;"">
                <img src=""images/semantic/semantic_series_17/semantic_series_17_d.jpg"" style=""width: 300px; height: 300px;"" />
              </div>","null",""
"","","","","","html-keyboard-response","16","52104","0.0-12.0","6D1B6B3437A2483584AC146874A34629","dd7b4880-72e0-4755-af29-47cdb06ee0ac","4f03f330-5f91-43fc-aa61-d9dda6d26521","","null","<div style=""display: flex; justify-content: center; align-items: center;"">
                <img src=""images/other/blank.jpg"" style=""width: 300px; height: 300px;"" />
              </div>","null",""
"","","","","","html-keyboard-response","17","55118","0.0-13.0","6D1B6B3437A2483584AC146874A34629","dd7b4880-72e0-4755-af29-47cdb06ee0ac","4f03f330-5f91-43fc-aa61-d9dda6d26521","","null","<div style=""display: flex; justify-content: center; align-items: center;"">
                <img src=""images/causal/causal_series_15/causal_series_15_a.jpg"" style=""width: 300px; height: 300px;"" />
              </div>","null",""
"","","","","","html-button-response","18","56420","0.0-14.0","6D1B6B3437A2483584AC146874A34629","dd7b4880-72e0-4755-af29-47cdb06ee0ac","4f03f330-5f91-43fc-aa61-d9dda6d26521","","1301","
    <div style=""display: flex; justify-content: center; align-items: center;"">
      <img src=""images/red_deck_2.png"" style=""width: 300px; height: 300px; margin-right: 10px;"" />
      <img src=""images/blue_deck_1.png"" style=""width: 300px; height: 300px;"" />
    </div>","0","0"
"","","","","","html-keyboard-response","19","59432","0.0-15.0-0.0-0.0","6D1B6B3437A2483584AC146874A34629","dd7b4880-72e0-4755-af29-47cdb06ee0ac","4f03f330-5f91-43fc-aa61-d9dda6d26521","","null","<div style=""display: flex; justify-content: center; align-items: center;"">
                <img src=""images/causal/causal_series_15/causal_series_15_b.jpg"" style=""width: 300px; height: 300px;"" />
              </div>","null",""
"","","","","","html-keyboard-response","20","62443","0.0-15.0-0.0-1.0","6D1B6B3437A2483584AC146874A34629","dd7b4880-72e0-4755-af29-47cdb06ee0ac","4f03f330-5f91-43fc-aa61-d9dda6d26521","","null","<div style=""display: flex; justify-content: center; align-items: center;"">
                <img src=""images/causal/causal_series_15/causal_series_15_c.jpg"" style=""width: 300px; height: 300px;"" />
              </div>","null",""
"","","","","","html-keyboard-response","21","65457","0.0-15.0-0.0-2.0","6D1B6B3437A2483584AC146874A34629","dd7b4880-72e0-4755-af29-47cdb06ee0ac","4f03f330-5f91-43fc-aa61-d9dda6d26521","","null","<div style=""display: flex; justify-content: center; align-items: center;"">
                <img src=""images/causal/causal_series_15/causal_series_15_d.jpg"" style=""width: 300px; height: 300px;"" />
              </div>","null",""
"","","","","","html-keyboard-response","22","68470","0.0-16.0","6D1B6B3437A2483584AC146874A34629","dd7b4880-72e0-4755-af29-47cdb06ee0ac","4f03f330-5f91-43fc-aa61-d9dda6d26521","","null","<div style=""display: flex; justify-content: center; align-items: center;"">
                <img src=""images/other/blank.jpg"" style=""width: 300px; height: 300px;"" />
              </div>","null",""
"","","","","","html-keyboard-response","23","71996","0.0-17.0","6D1B6B3437A2483584AC146874A34629","dd7b4880-72e0-4755-af29-47cdb06ee0ac","4f03f330-5f91-43fc-aa61-d9dda6d26521","","null","<div style=""display: flex; justify-content: center; align-items: center;"">
                <img src=""images/causal/causal_series_9/causal_series_9_a.jpg"" style=""width: 300px; height: 300px;"" />
              </div>","null",""
"","","","","","html-button-response","24","90677","0.0-18.0","6D1B6B3437A2483584AC146874A34629","dd7b4880-72e0-4755-af29-47cdb06ee0ac","4f03f330-5f91-43fc-aa61-d9dda6d26521","","18679","
    <div style=""display: flex; justify-content: center; align-items: center;"">
      <img src=""images/red_deck_2.png"" style=""width: 300px; height: 300px; margin-right: 10px;"" />
      <img src=""images/blue_deck_1.png"" style=""width: 300px; height: 300px;"" />
    </div>","1","1"
"","","","","","html-keyboard-response","25","93678","0.0-19.0-1.0-0.0","6D1B6B3437A2483584AC146874A34629","dd7b4880-72e0-4755-af29-47cdb06ee0ac","4f03f330-5f91-43fc-aa61-d9dda6d26521","","null","<div style=""display: flex; justify-content: center; align-items: center;"">
                <img src=""images/semantic/semantic_series_6/semantic_series_6_d.jpg"" style=""width: 300px; height: 300px;"" />
              </div>","null",""
"","","","","","html-keyboard-response","26","96681","0.0-19.0-1.0-1.0","6D1B6B3437A2483584AC146874A34629","dd7b4880-72e0-4755-af29-47cdb06ee0ac","4f03f330-5f91-43fc-aa61-d9dda6d26521","","null","<div style=""display: flex; justify-content: center; align-items: center;"">
                <img src=""images/semantic/semantic_series_7/semantic_series_7_d.jpg"" style=""width: 300px; height: 300px;"" />
              </div>","null",""
"","","","","","html-keyboard-response","27","99698","0.0-19.0-1.0-2.0","6D1B6B3437A2483584AC146874A34629","dd7b4880-72e0-4755-af29-47cdb06ee0ac","4f03f330-5f91-43fc-aa61-d9dda6d26521","","null","<div style=""display: flex; justify-content: center; align-items: center;"">
                <img src=""images/semantic/semantic_series_8/semantic_series_8_d.jpg"" style=""width: 300px; height: 300px;"" />
              </div>","null",""
"","","","","","html-keyboard-response","28","102700","0.0-20.0","6D1B6B3437A2483584AC146874A34629","dd7b4880-72e0-4755-af29-47cdb06ee0ac","4f03f330-5f91-43fc-aa61-d9dda6d26521","","null","<div style=""display: flex; justify-content: center; align-items: center;"">
                <img src=""images/other/blank.jpg"" style=""width: 300px; height: 300px;"" />
              </div>","null",""
"","","","","","html-keyboard-response","29","105702","0.0-21.0","6D1B6B3437A2483584AC146874A34629","dd7b4880-72e0-4755-af29-47cdb06ee0ac","4f03f330-5f91-43fc-aa61-d9dda6d26521","","null","<div style=""display: flex; justify-content: center; align-items: center;"">
                <img src=""images/causal/causal_series_11/causal_series_11_a.jpg"" style=""width: 300px; height: 300px;"" />
              </div>","null",""
"","","","","","html-button-response","30","106664","0.0-22.0","6D1B6B3437A2483584AC146874A34629","dd7b4880-72e0-4755-af29-47cdb06ee0ac","4f03f330-5f91-43fc-aa61-d9dda6d26521","","962","
    <div style=""display: flex; justify-content: center; align-items: center;"">
      <img src=""images/red_deck_2.png"" style=""width: 300px; height: 300px; margin-right: 10px;"" />
      <img src=""images/blue_deck_1.png"" style=""width: 300px; height: 300px;"" />
    </div>","0","0"
"","","","","","html-keyboard-response","31","109666","0.0-23.0-0.0-0.0","6D1B6B3437A2483584AC146874A34629","dd7b4880-72e0-4755-af29-47cdb06ee0ac","4f03f330-5f91-43fc-aa61-d9dda6d26521","","null","<div style=""display: flex; justify-content: center; align-items: center;"">
                <img src=""images/causal/causal_series_11/causal_series_11_b.jpg"" style=""width: 300px; height: 300px;"" />
              </div>","null",""
"","","","","","html-keyboard-response","32","112679","0.0-23.0-0.0-1.0","6D1B6B3437A2483584AC146874A34629","dd7b4880-72e0-4755-af29-47cdb06ee0ac","4f03f330-5f91-43fc-aa61-d9dda6d26521","","null","<div style=""display: flex; justify-content: center; align-items: center;"">
                <img src=""images/causal/causal_series_11/causal_series_11_c.jpg"" style=""width: 300px; height: 300px;"" />
              </div>","null",""
"","","","","","html-keyboard-response","33","115680","0.0-23.0-0.0-2.0","6D1B6B3437A2483584AC146874A34629","dd7b4880-72e0-4755-af29-47cdb06ee0ac","4f03f330-5f91-43fc-aa61-d9dda6d26521","","null","<div style=""display: flex; justify-content: center; align-items: center;"">
                <img src=""images/causal/causal_series_11/causal_series_11_d.jpg"" style=""width: 300px; height: 300px;"" />
              </div>","null",""
"","","","","","html-keyboard-response","34","118696","0.0-24.0","6D1B6B3437A2483584AC146874A34629","dd7b4880-72e0-4755-af29-47cdb06ee0ac","4f03f330-5f91-43fc-aa61-d9dda6d26521","","null","<div style=""display: flex; justify-content: center; align-items: center;"">
                <img src=""images/other/blank.jpg"" style=""width: 300px; height: 300px;"" />
              </div>","null",""
"","","","","","html-keyboard-response","35","121696","0.0-25.0","6D1B6B3437A2483584AC146874A34629","dd7b4880-72e0-4755-af29-47cdb06ee0ac","4f03f330-5f91-43fc-aa61-d9dda6d26521","","null","<div style=""display: flex; justify-content: center; align-items: center;"">
                <img src=""images/causal/causal_series_3/causal_series_3_a.jpg"" style=""width: 300px; height: 300px;"" />
              </div>","null",""
"","","","","","html-button-response","36","122682","0.0-26.0","6D1B6B3437A2483584AC146874A34629","dd7b4880-72e0-4755-af29-47cdb06ee0ac","4f03f330-5f91-43fc-aa61-d9dda6d26521","","985","
    <div style=""display: flex; justify-content: center; align-items: center;"">
      <img src=""images/red_deck_2.png"" style=""width: 300px; height: 300px; margin-right: 10px;"" />
      <img src=""images/blue_deck_1.png"" style=""width: 300px; height: 300px;"" />
    </div>","0","0"
"","","","","","html-keyboard-response","37","125995","0.0-27.0-0.0-0.0","6D1B6B3437A2483584AC146874A34629","dd7b4880-72e0-4755-af29-47cdb06ee0ac","4f03f330-5f91-43fc-aa61-d9dda6d26521","","null","<div style=""display: flex; justify-content: center; align-items: center;"">
                <img src=""images/causal/causal_series_3/causal_series_3_b.jpg"" style=""width: 300px; height: 300px;"" />
              </div>","null",""
"","","","","","html-keyboard-response","38","130007","0.0-27.0-0.0-1.0","6D1B6B3437A2483584AC146874A34629","dd7b4880-72e0-4755-af29-47cdb06ee0ac","4f03f330-5f91-43fc-aa61-d9dda6d26521","","null","<div style=""display: flex; justify-content: center; align-items: center;"">
                <img src=""images/causal/causal_series_3/causal_series_3_c.jpg"" style=""width: 300px; height: 300px;"" />
              </div>","null",""
"","","","","","html-keyboard-response","39","133017","0.0-27.0-0.0-2.0","6D1B6B3437A2483584AC146874A34629","dd7b4880-72e0-4755-af29-47cdb06ee0ac","4f03f330-5f91-43fc-aa61-d9dda6d26521","","null","<div style=""display: flex; justify-content: center; align-items: center;"">
                <img src=""images/causal/causal_series_3/causal_series_3_d.jpg"" style=""width: 300px; height: 300px;"" />
              </div>","null",""
"","","","","","html-keyboard-response","40","136032","0.0-28.0","6D1B6B3437A2483584AC146874A34629","dd7b4880-72e0-4755-af29-47cdb06ee0ac","4f03f330-5f91-43fc-aa61-d9dda6d26521","","null","<div style=""display: flex; justify-content: center; align-items: center;"">
                <img src=""images/other/blank.jpg"" style=""width: 300px; height: 300px;"" />
              </div>","null",""
"","","","","","html-keyboard-response","41","139048","0.0-29.0","6D1B6B3437A2483584AC146874A34629","dd7b4880-72e0-4755-af29-47cdb06ee0ac","4f03f330-5f91-43fc-aa61-d9dda6d26521","","null","<div style=""display: flex; justify-content: center; align-items: center;"">
                <img src=""images/causal/causal_series_4/causal_series_4_a.jpg"" style=""width: 300px; height: 300px;"" />
              </div>","null",""
"","","","","","html-button-response","42","140068","0.0-30.0","6D1B6B3437A2483584AC146874A34629","dd7b4880-72e0-4755-af29-47cdb06ee0ac","4f03f330-5f91-43fc-aa61-d9dda6d26521","","1019","
    <div style=""display: flex; justify-content: center; align-items: center;"">
      <img src=""images/red_deck_2.png"" style=""width: 300px; height: 300px; margin-right: 10px;"" />
      <img src=""images/blue_deck_1.png"" style=""width: 300px; height: 300px;"" />
    </div>","0","0"
"","","","","","html-keyboard-response","43","143083","0.0-31.0-0.0-0.0","6D1B6B3437A2483584AC146874A34629","dd7b4880-72e0-4755-af29-47cdb06ee0ac","4f03f330-5f91-43fc-aa61-d9dda6d26521","","null","<div style=""display: flex; justify-content: center; align-items: center;"">
                <img src=""images/causal/causal_series_4/causal_series_4_b.jpg"" style=""width: 300px; height: 300px;"" />
              </div>","null",""
"","","","","","html-keyboard-response","44","146098","0.0-31.0-0.0-1.0","6D1B6B3437A2483584AC146874A34629","dd7b4880-72e0-4755-af29-47cdb06ee0ac","4f03f330-5f91-43fc-aa61-d9dda6d26521","","null","<div style=""display: flex; justify-content: center; align-items: center;"">
                <img src=""images/causal/causal_series_4/causal_series_4_c.jpg"" style=""width: 300px; height: 300px;"" />
              </div>","null",""
"","","","","","html-keyboard-response","45","149114","0.0-31.0-0.0-2.0","6D1B6B3437A2483584AC146874A34629","dd7b4880-72e0-4755-af29-47cdb06ee0ac","4f03f330-5f91-43fc-aa61-d9dda6d26521","","null","<div style=""display: flex; justify-content: center; align-items: center;"">
                <img src=""images/causal/causal_series_4/causal_series_4_d.jpg"" style=""width: 300px; height: 300px;"" />
              </div>","null",""
"","","","","","html-keyboard-response","46","152118","0.0-32.0","6D1B6B3437A2483584AC146874A34629","dd7b4880-72e0-4755-af29-47cdb06ee0ac","4f03f330-5f91-43fc-aa61-d9dda6d26521","","null","<div style=""display: flex; justify-content: center; align-items: center;"">
                <img src=""images/other/blank.jpg"" style=""width: 300px; height: 300px;"" />
              </div>","null",""
"","","","","","html-keyboard-response","47","155133","0.0-33.0","6D1B6B3437A2483584AC146874A34629","dd7b4880-72e0-4755-af29-47cdb06ee0ac","4f03f330-5f91-43fc-aa61-d9dda6d26521","","null","<div style=""display: flex; justify-content: center; align-items: center;"">
                <img src=""images/causal/causal_series_14/causal_series_14_a.jpg"" style=""width: 300px; height: 300px;"" />
              </div>","null",""
"","","","","","html-button-response","48","155951","0.0-34.0","6D1B6B3437A2483584AC146874A34629","dd7b4880-72e0-4755-af29-47cdb06ee0ac","4f03f330-5f91-43fc-aa61-d9dda6d26521","","817","
    <div style=""display: flex; justify-content: center; align-items: center;"">
      <img src=""images/red_deck_2.png"" style=""width: 300px; height: 300px; margin-right: 10px;"" />
      <img src=""images/blue_deck_1.png"" style=""width: 300px; height: 300px;"" />
    </div>","0","0"
"","","","","","html-keyboard-response","49","158964","0.0-35.0-0.0-0.0","6D1B6B3437A2483584AC146874A34629","dd7b4880-72e0-4755-af29-47cdb06ee0ac","4f03f330-5f91-43fc-aa61-d9dda6d26521","","null","<div style=""display: flex; justify-content: center; align-items: center;"">
                <img src=""images/causal/causal_series_14/causal_series_14_b.jpg"" style=""width: 300px; height: 300px;"" />
              </div>","null",""
"","","","","","html-keyboard-response","50","161966","0.0-35.0-0.0-1.0","6D1B6B3437A2483584AC146874A34629","dd7b4880-72e0-4755-af29-47cdb06ee0ac","4f03f330-5f91-43fc-aa61-d9dda6d26521","","null","<div style=""display: flex; justify-content: center; align-items: center;"">
                <img src=""images/causal/causal_series_14/causal_series_14_c.jpg"" style=""width: 300px; height: 300px;"" />
              </div>","null",""
"","","","","","html-keyboard-response","51","164980","0.0-35.0-0.0-2.0","6D1B6B3437A2483584AC146874A34629","dd7b4880-72e0-4755-af29-47cdb06ee0ac","4f03f330-5f91-43fc-aa61-d9dda6d26521","","null","<div style=""display: flex; justify-content: center; align-items: center;"">
                <img src=""images/causal/causal_series_14/causal_series_14_d.jpg"" style=""width: 300px; height: 300px;"" />
              </div>","null",""
"","","","","","html-keyboard-response","52","167997","0.0-36.0","6D1B6B3437A2483584AC146874A34629","dd7b4880-72e0-4755-af29-47cdb06ee0ac","4f03f330-5f91-43fc-aa61-d9dda6d26521","","null","<div style=""display: flex; justify-content: center; align-items: center;"">
                <img src=""images/other/blank.jpg"" style=""width: 300px; height: 300px;"" />
              </div>","null",""
"","","","","","html-keyboard-response","53","171013","0.0-37.0","6D1B6B3437A2483584AC146874A34629","dd7b4880-72e0-4755-af29-47cdb06ee0ac","4f03f330-5f91-43fc-aa61-d9dda6d26521","","null","<div style=""display: flex; justify-content: center; align-items: center;"">
                <img src=""images/causal/causal_series_18/causal_series_18_a.jpg"" style=""width: 300px; height: 300px;"" />
              </div>","null",""
"","","","","","html-button-response","54","173708","0.0-38.0","6D1B6B3437A2483584AC146874A34629","dd7b4880-72e0-4755-af29-47cdb06ee0ac","4f03f330-5f91-43fc-aa61-d9dda6d26521","","2695","
    <div style=""display: flex; justify-content: center; align-items: center;"">
      <img src=""images/red_deck_2.png"" style=""width: 300px; height: 300px; margin-right: 10px;"" />
      <img src=""images/blue_deck_1.png"" style=""width: 300px; height: 300px;"" />
    </div>","1","1"
"","","","","","html-keyboard-response","55","176715","0.0-39.0-1.0-0.0","6D1B6B3437A2483584AC146874A34629","dd7b4880-72e0-4755-af29-47cdb06ee0ac","4f03f330-5f91-43fc-aa61-d9dda6d26521","","null","<div style=""display: flex; justify-content: center; align-items: center;"">
                <img src=""images/semantic/semantic_series_15/semantic_series_15_d.jpg"" style=""width: 300px; height: 300px;"" />
              </div>","null",""
"","","","","","html-keyboard-response","56","180012","0.0-39.0-1.0-1.0","6D1B6B3437A2483584AC146874A34629","dd7b4880-72e0-4755-af29-47cdb06ee0ac","4f03f330-5f91-43fc-aa61-d9dda6d26521","","null","<div style=""display: flex; justify-content: center; align-items: center;"">
                <img src=""images/semantic/semantic_series_16/semantic_series_16_d.jpg"" style=""width: 300px; height: 300px;"" />
              </div>","null",""
"","","","","","html-keyboard-response","57","183995","0.0-39.0-1.0-2.0","6D1B6B3437A2483584AC146874A34629","dd7b4880-72e0-4755-af29-47cdb06ee0ac","4f03f330-5f91-43fc-aa61-d9dda6d26521","","null","<div style=""display: flex; justify-content: center; align-items: center;"">
                <img src=""images/semantic/semantic_series_17/semantic_series_17_d.jpg"" style=""width: 300px; height: 300px;"" />
              </div>","null",""
"","","","","","html-keyboard-response","58","187722","0.0-40.0","6D1B6B3437A2483584AC146874A34629","dd7b4880-72e0-4755-af29-47cdb06ee0ac","4f03f330-5f91-43fc-aa61-d9dda6d26521","","null","<div style=""display: flex; justify-content: center; align-items: center;"">
                <img src=""images/other/blank.jpg"" style=""width: 300px; height: 300px;"" />
              </div>","null",""
"","","","","","html-keyboard-response","59","190724","0.0-41.0","6D1B6B3437A2483584AC146874A34629","dd7b4880-72e0-4755-af29-47cdb06ee0ac","4f03f330-5f91-43fc-aa61-d9dda6d26521","","null","<div style=""display: flex; justify-content: center; align-items: center;"">
                <img src=""images/causal/causal_series_8/causal_series_8_a.jpg"" style=""width: 300px; height: 300px;"" />
              </div>","null",""
"","","","","","html-button-response","60","191630","0.0-42.0","6D1B6B3437A2483584AC146874A34629","dd7b4880-72e0-4755-af29-47cdb06ee0ac","4f03f330-5f91-43fc-aa61-d9dda6d26521","","905","
    <div style=""display: flex; justify-content: center; align-items: center;"">
      <img src=""images/red_deck_2.png"" style=""width: 300px; height: 300px; margin-right: 10px;"" />
      <img src=""images/blue_deck_1.png"" style=""width: 300px; height: 300px;"" />
    </div>","1","1"
"","","","","","html-keyboard-response","61","194640","0.0-43.0-1.0-0.0","6D1B6B3437A2483584AC146874A34629","dd7b4880-72e0-4755-af29-47cdb06ee0ac","4f03f330-5f91-43fc-aa61-d9dda6d26521","","null","<div style=""display: flex; justify-content: center; align-items: center;"">
                <img src=""images/semantic/semantic_series_3/semantic_series_3_d.jpg"" style=""width: 300px; height: 300px;"" />
              </div>","null",""
"","","","","","html-keyboard-response","62","197646","0.0-43.0-1.0-1.0","6D1B6B3437A2483584AC146874A34629","dd7b4880-72e0-4755-af29-47cdb06ee0ac","4f03f330-5f91-43fc-aa61-d9dda6d26521","","null","<div style=""display: flex; justify-content: center; align-items: center;"">
                <img src=""images/semantic/semantic_series_4/semantic_series_4_d.jpg"" style=""width: 300px; height: 300px;"" />
              </div>","null",""
"","","","","","html-keyboard-response","63","200662","0.0-43.0-1.0-2.0","6D1B6B3437A2483584AC146874A34629","dd7b4880-72e0-4755-af29-47cdb06ee0ac","4f03f330-5f91-43fc-aa61-d9dda6d26521","","null","<div style=""display: flex; justify-content: center; align-items: center;"">
                <img src=""images/semantic/semantic_series_5/semantic_series_5_d.jpg"" style=""width: 300px; height: 300px;"" />
              </div>","null",""
"","","","","","html-keyboard-response","64","203674","0.0-44.0","6D1B6B3437A2483584AC146874A34629","dd7b4880-72e0-4755-af29-47cdb06ee0ac","4f03f330-5f91-43fc-aa61-d9dda6d26521","","null","<div style=""display: flex; justify-content: center; align-items: center;"">
                <img src=""images/other/blank.jpg"" style=""width: 300px; height: 300px;"" />
              </div>","null",""
"","","","","","html-keyboard-response","65","206689","0.0-45.0","6D1B6B3437A2483584AC146874A34629","dd7b4880-72e0-4755-af29-47cdb06ee0ac","4f03f330-5f91-43fc-aa61-d9dda6d26521","","null","<div style=""display: flex; justify-content: center; align-items: center;"">
                <img src=""images/causal/causal_series_17/causal_series_17_a.jpg"" style=""width: 300px; height: 300px;"" />
              </div>","null",""
"","","","","","html-button-response","66","207878","0.0-46.0","6D1B6B3437A2483584AC146874A34629","dd7b4880-72e0-4755-af29-47cdb06ee0ac","4f03f330-5f91-43fc-aa61-d9dda6d26521","","1189","
    <div style=""display: flex; justify-content: center; align-items: center;"">
      <img src=""images/red_deck_2.png"" style=""width: 300px; height: 300px; margin-right: 10px;"" />
      <img src=""images/blue_deck_1.png"" style=""width: 300px; height: 300px;"" />
    </div>","0","0"
"","","","","","html-keyboard-response","67","210887","0.0-47.0-0.0-0.0","6D1B6B3437A2483584AC146874A34629","dd7b4880-72e0-4755-af29-47cdb06ee0ac","4f03f330-5f91-43fc-aa61-d9dda6d26521","","null","<div style=""display: flex; justify-content: center; align-items: center;"">
                <img src=""images/causal/causal_series_17/causal_series_17_b.jpg"" style=""width: 300px; height: 300px;"" />
              </div>","null",""
"","","","","","html-keyboard-response","68","213904","0.0-47.0-0.0-1.0","6D1B6B3437A2483584AC146874A34629","dd7b4880-72e0-4755-af29-47cdb06ee0ac","4f03f330-5f91-43fc-aa61-d9dda6d26521","","null","<div style=""display: flex; justify-content: center; align-items: center;"">
                <img src=""images/causal/causal_series_17/causal_series_17_c.jpg"" style=""width: 300px; height: 300px;"" />
              </div>","null",""
"","","","","","html-keyboard-response","69","216916","0.0-47.0-0.0-2.0","6D1B6B3437A2483584AC146874A34629","dd7b4880-72e0-4755-af29-47cdb06ee0ac","4f03f330-5f91-43fc-aa61-d9dda6d26521","","null","<div style=""display: flex; justify-content: center; align-items: center;"">
                <img src=""images/causal/causal_series_17/causal_series_17_d.jpg"" style=""width: 300px; height: 300px;"" />
              </div>","null",""
"","","","","","html-keyboard-response","70","219929","0.0-48.0","6D1B6B3437A2483584AC146874A34629","dd7b4880-72e0-4755-af29-47cdb06ee0ac","4f03f330-5f91-43fc-aa61-d9dda6d26521","","null","<div style=""display: flex; justify-content: center; align-items: center;"">
                <img src=""images/other/blank.jpg"" style=""width: 300px; height: 300px;"" />
              </div>","null",""
"","","","","","html-keyboard-response","71","222944","0.0-49.0","6D1B6B3437A2483584AC146874A34629","dd7b4880-72e0-4755-af29-47cdb06ee0ac","4f03f330-5f91-43fc-aa61-d9dda6d26521","","null","<div style=""display: flex; justify-content: center; align-items: center;"">
                <img src=""images/causal/causal_series_2/causal_series_2_a.jpg"" style=""width: 300px; height: 300px;"" />
              </div>","null",""
"","","","","","html-button-response","72","223760","0.0-50.0","6D1B6B3437A2483584AC146874A34629","dd7b4880-72e0-4755-af29-47cdb06ee0ac","4f03f330-5f91-43fc-aa61-d9dda6d26521","","816","
    <div style=""display: flex; justify-content: center; align-items: center;"">
      <img src=""images/red_deck_2.png"" style=""width: 300px; height: 300px; margin-right: 10px;"" />
      <img src=""images/blue_deck_1.png"" style=""width: 300px; height: 300px;"" />
    </div>","0","0"
"","","","","","html-keyboard-response","73","226776","0.0-51.0-0.0-0.0","6D1B6B3437A2483584AC146874A34629","dd7b4880-72e0-4755-af29-47cdb06ee0ac","4f03f330-5f91-43fc-aa61-d9dda6d26521","","null","<div style=""display: flex; justify-content: center; align-items: center;"">
                <img src=""images/causal/causal_series_2/causal_series_2_b.jpg"" style=""width: 300px; height: 300px;"" />
              </div>","null",""
"","","","","","html-keyboard-response","74","229786","0.0-51.0-0.0-1.0","6D1B6B3437A2483584AC146874A34629","dd7b4880-72e0-4755-af29-47cdb06ee0ac","4f03f330-5f91-43fc-aa61-d9dda6d26521","","null","<div style=""display: flex; justify-content: center; align-items: center;"">
                <img src=""images/causal/causal_series_2/causal_series_2_c.jpg"" style=""width: 300px; height: 300px;"" />
              </div>","null",""
"","","","","","html-keyboard-response","75","232805","0.0-51.0-0.0-2.0","6D1B6B3437A2483584AC146874A34629","dd7b4880-72e0-4755-af29-47cdb06ee0ac","4f03f330-5f91-43fc-aa61-d9dda6d26521","","null","<div style=""display: flex; justify-content: center; align-items: center;"">
                <img src=""images/causal/causal_series_2/causal_series_2_d.jpg"" style=""width: 300px; height: 300px;"" />
              </div>","null",""
"","","","","","html-keyboard-response","76","235814","0.0-52.0","6D1B6B3437A2483584AC146874A34629","dd7b4880-72e0-4755-af29-47cdb06ee0ac","4f03f330-5f91-43fc-aa61-d9dda6d26521","","null","<div style=""display: flex; justify-content: center; align-items: center;"">
                <img src=""images/other/blank.jpg"" style=""width: 300px; height: 300px;"" />
              </div>","null",""
"","","","","","html-keyboard-response","77","238827","0.0-53.0","6D1B6B3437A2483584AC146874A34629","dd7b4880-72e0-4755-af29-47cdb06ee0ac","4f03f330-5f91-43fc-aa61-d9dda6d26521","","null","<div style=""display: flex; justify-content: center; align-items: center;"">
                <img src=""images/causal/causal_series_5/causal_series_5_a.jpg"" style=""width: 300px; height: 300px;"" />
              </div>","null",""
"","","","","","html-button-response","78","240132","0.0-54.0","6D1B6B3437A2483584AC146874A34629","dd7b4880-72e0-4755-af29-47cdb06ee0ac","4f03f330-5f91-43fc-aa61-d9dda6d26521","","1304","
    <div style=""display: flex; justify-content: center; align-items: center;"">
      <img src=""images/red_deck_2.png"" style=""width: 300px; height: 300px; margin-right: 10px;"" />
      <img src=""images/blue_deck_1.png"" style=""width: 300px; height: 300px;"" />
    </div>","0","0"
"","","","","","html-keyboard-response","79","243147","0.0-55.0-0.0-0.0","6D1B6B3437A2483584AC146874A34629","dd7b4880-72e0-4755-af29-47cdb06ee0ac","4f03f330-5f91-43fc-aa61-d9dda6d26521","","null","<div style=""display: flex; justify-content: center; align-items: center;"">
                <img src=""images/causal/causal_series_5/causal_series_5_b.jpg"" style=""width: 300px; height: 300px;"" />
              </div>","null",""
"","","","","","html-keyboard-response","80","246156","0.0-55.0-0.0-1.0","6D1B6B3437A2483584AC146874A34629","dd7b4880-72e0-4755-af29-47cdb06ee0ac","4f03f330-5f91-43fc-aa61-d9dda6d26521","","null","<div style=""display: flex; justify-content: center; align-items: center;"">
                <img src=""images/causal/causal_series_5/causal_series_5_c.jpg"" style=""width: 300px; height: 300px;"" />
              </div>","null",""
"","","","","","html-keyboard-response","81","249167","0.0-55.0-0.0-2.0","6D1B6B3437A2483584AC146874A34629","dd7b4880-72e0-4755-af29-47cdb06ee0ac","4f03f330-5f91-43fc-aa61-d9dda6d26521","","null","<div style=""display: flex; justify-content: center; align-items: center;"">
                <img src=""images/causal/causal_series_5/causal_series_5_d.jpg"" style=""width: 300px; height: 300px;"" />
              </div>","null",""
"","","","","","html-keyboard-response","82","252169","0.0-56.0","6D1B6B3437A2483584AC146874A34629","dd7b4880-72e0-4755-af29-47cdb06ee0ac","4f03f330-5f91-43fc-aa61-d9dda6d26521","","null","<div style=""display: flex; justify-content: center; align-items: center;"">
                <img src=""images/other/blank.jpg"" style=""width: 300px; height: 300px;"" />
              </div>","null",""
"","","","","","html-keyboard-response","83","255183","0.0-57.0","6D1B6B3437A2483584AC146874A34629","dd7b4880-72e0-4755-af29-47cdb06ee0ac","4f03f330-5f91-43fc-aa61-d9dda6d26521","","null","<div style=""display: flex; justify-content: center; align-items: center;"">
                <img src=""images/causal/causal_series_12/causal_series_12_a.jpg"" style=""width: 300px; height: 300px;"" />
              </div>","null",""
"","","","","","html-button-response","84","258018","0.0-58.0","6D1B6B3437A2483584AC146874A34629","dd7b4880-72e0-4755-af29-47cdb06ee0ac","4f03f330-5f91-43fc-aa61-d9dda6d26521","","2834","
    <div style=""display: flex; justify-content: center; align-items: center;"">
      <img src=""images/red_deck_2.png"" style=""width: 300px; height: 300px; margin-right: 10px;"" />
      <img src=""images/blue_deck_1.png"" style=""width: 300px; height: 300px;"" />
    </div>","0","0"
"","","","","","html-keyboard-response","85","261025","0.0-59.0-0.0-0.0","6D1B6B3437A2483584AC146874A34629","dd7b4880-72e0-4755-af29-47cdb06ee0ac","4f03f330-5f91-43fc-aa61-d9dda6d26521","","null","<div style=""display: flex; justify-content: center; align-items: center;"">
                <img src=""images/causal/causal_series_12/causal_series_12_b.jpg"" style=""width: 300px; height: 300px;"" />
              </div>","null",""
"","","","","","html-keyboard-response","86","264027","0.0-59.0-0.0-1.0","6D1B6B3437A2483584AC146874A34629","dd7b4880-72e0-4755-af29-47cdb06ee0ac","4f03f330-5f91-43fc-aa61-d9dda6d26521","","null","<div style=""display: flex; justify-content: center; align-items: center;"">
                <img src=""images/causal/causal_series_12/causal_series_12_c.jpg"" style=""width: 300px; height: 300px;"" />
              </div>","null",""
"","","","","","html-keyboard-response","87","267043","0.0-59.0-0.0-2.0","6D1B6B3437A2483584AC146874A34629","dd7b4880-72e0-4755-af29-47cdb06ee0ac","4f03f330-5f91-43fc-aa61-d9dda6d26521","","null","<div style=""display: flex; justify-content: center; align-items: center;"">
                <img src=""images/causal/causal_series_12/causal_series_12_d.jpg"" style=""width: 300px; height: 300px;"" />
              </div>","null",""
"","","","","","html-keyboard-response","88","270059","0.0-60.0","6D1B6B3437A2483584AC146874A34629","dd7b4880-72e0-4755-af29-47cdb06ee0ac","4f03f330-5f91-43fc-aa61-d9dda6d26521","","null","<div style=""display: flex; justify-content: center; align-items: center;"">
                <img src=""images/other/blank.jpg"" style=""width: 300px; height: 300px;"" />
              </div>","null",""
"","","","","","html-keyboard-response","89","273074","0.0-61.0","6D1B6B3437A2483584AC146874A34629","dd7b4880-72e0-4755-af29-47cdb06ee0ac","4f03f330-5f91-43fc-aa61-d9dda6d26521","","null","<div style=""display: flex; justify-content: center; align-items: center;"">
                <img src=""images/causal/causal_series_1/causal_series_1_a.jpg"" style=""width: 300px; height: 300px;"" />
              </div>","null",""
"","","","","","html-button-response","90","274712","0.0-62.0","6D1B6B3437A2483584AC146874A34629","dd7b4880-72e0-4755-af29-47cdb06ee0ac","4f03f330-5f91-43fc-aa61-d9dda6d26521","","1637","
    <div style=""display: flex; justify-content: center; align-items: center;"">
      <img src=""images/red_deck_2.png"" style=""width: 300px; height: 300px; margin-right: 10px;"" />
      <img src=""images/blue_deck_1.png"" style=""width: 300px; height: 300px;"" />
    </div>","0","0"
"","","","","","html-keyboard-response","91","277714","0.0-63.0-0.0-0.0","6D1B6B3437A2483584AC146874A34629","dd7b4880-72e0-4755-af29-47cdb06ee0ac","4f03f330-5f91-43fc-aa61-d9dda6d26521","","null","<div style=""display: flex; justify-content: center; align-items: center;"">
                <img src=""images/causal/causal_series_1/causal_series_1_b.jpg"" style=""width: 300px; height: 300px;"" />
              </div>","null",""
"","","","","","html-keyboard-response","92","280729","0.0-63.0-0.0-1.0","6D1B6B3437A2483584AC146874A34629","dd7b4880-72e0-4755-af29-47cdb06ee0ac","4f03f330-5f91-43fc-aa61-d9dda6d26521","","null","<div style=""display: flex; justify-content: center; align-items: center;"">
                <img src=""images/causal/causal_series_1/causal_series_1_c.jpg"" style=""width: 300px; height: 300px;"" />
              </div>","null",""
"","","","","","html-keyboard-response","93","283730","0.0-63.0-0.0-2.0","6D1B6B3437A2483584AC146874A34629","dd7b4880-72e0-4755-af29-47cdb06ee0ac","4f03f330-5f91-43fc-aa61-d9dda6d26521","","null","<div style=""display: flex; justify-content: center; align-items: center;"">
                <img src=""images/causal/causal_series_1/causal_series_1_d.jpg"" style=""width: 300px; height: 300px;"" />
              </div>","null",""
"","","","","","html-keyboard-response","94","286746","0.0-64.0","6D1B6B3437A2483584AC146874A34629","dd7b4880-72e0-4755-af29-47cdb06ee0ac","4f03f330-5f91-43fc-aa61-d9dda6d26521","","null","<div style=""display: flex; justify-content: center; align-items: center;"">
                <img src=""images/other/blank.jpg"" style=""width: 300px; height: 300px;"" />
              </div>","null",""
"","","","","","html-keyboard-response","95","289761","0.0-65.0","6D1B6B3437A2483584AC146874A34629","dd7b4880-72e0-4755-af29-47cdb06ee0ac","4f03f330-5f91-43fc-aa61-d9dda6d26521","","null","<div style=""display: flex; justify-content: center; align-items: center;"">
                <img src=""images/causal/causal_series_16/causal_series_16_a.jpg"" style=""width: 300px; height: 300px;"" />
              </div>","null",""
"","","","","","html-button-response","96","307548","0.0-66.0","6D1B6B3437A2483584AC146874A34629","dd7b4880-72e0-4755-af29-47cdb06ee0ac","4f03f330-5f91-43fc-aa61-d9dda6d26521","","17787","
    <div style=""display: flex; justify-content: center; align-items: center;"">
      <img src=""images/red_deck_2.png"" style=""width: 300px; height: 300px; margin-right: 10px;"" />
      <img src=""images/blue_deck_1.png"" style=""width: 300px; height: 300px;"" />
    </div>","0","0"
"","","","","","html-keyboard-response","97","310551","0.0-67.0-0.0-0.0","6D1B6B3437A2483584AC146874A34629","dd7b4880-72e0-4755-af29-47cdb06ee0ac","4f03f330-5f91-43fc-aa61-d9dda6d26521","","null","<div style=""display: flex; justify-content: center; align-items: center;"">
                <img src=""images/causal/causal_series_16/causal_series_16_b.jpg"" style=""width: 300px; height: 300px;"" />
              </div>","null",""
"","","","","","html-keyboard-response","98","313561","0.0-67.0-0.0-1.0","6D1B6B3437A2483584AC146874A34629","dd7b4880-72e0-4755-af29-47cdb06ee0ac","4f03f330-5f91-43fc-aa61-d9dda6d26521","","null","<div style=""display: flex; justify-content: center; align-items: center;"">
                <img src=""images/causal/causal_series_16/causal_series_16_c.jpg"" style=""width: 300px; height: 300px;"" />
              </div>","null",""
"","","","","","html-keyboard-response","99","316573","0.0-67.0-0.0-2.0","6D1B6B3437A2483584AC146874A34629","dd7b4880-72e0-4755-af29-47cdb06ee0ac","4f03f330-5f91-43fc-aa61-d9dda6d26521","","null","<div style=""display: flex; justify-content: center; align-items: center;"">
                <img src=""images/causal/causal_series_16/causal_series_16_d.jpg"" style=""width: 300px; height: 300px;"" />
              </div>","null",""
"","","","","","html-keyboard-response","100","319575","0.0-68.0","6D1B6B3437A2483584AC146874A34629","dd7b4880-72e0-4755-af29-47cdb06ee0ac","4f03f330-5f91-43fc-aa61-d9dda6d26521","","null","<div style=""display: flex; justify-content: center; align-items: center;"">
                <img src=""images/other/blank.jpg"" style=""width: 300px; height: 300px;"" />
              </div>","null",""
"","","","","","html-keyboard-response","101","322590","0.0-69.0","6D1B6B3437A2483584AC146874A34629","dd7b4880-72e0-4755-af29-47cdb06ee0ac","4f03f330-5f91-43fc-aa61-d9dda6d26521","","null","<div style=""display: flex; justify-content: center; align-items: center;"">
                <img src=""images/causal/causal_series_13/causal_series_13_a.jpg"" style=""width: 300px; height: 300px;"" />
              </div>","null",""
"","","","","","html-button-response","102","385136","0.0-70.0","6D1B6B3437A2483584AC146874A34629","dd7b4880-72e0-4755-af29-47cdb06ee0ac","4f03f330-5f91-43fc-aa61-d9dda6d26521","","62545","
    <div style=""display: flex; justify-content: center; align-items: center;"">
      <img src=""images/red_deck_2.png"" style=""width: 300px; height: 300px; margin-right: 10px;"" />
      <img src=""images/blue_deck_1.png"" style=""width: 300px; height: 300px;"" />
    </div>","0","0"
"","","","","","html-keyboard-response","103","388150","0.0-71.0-0.0-0.0","6D1B6B3437A2483584AC146874A34629","dd7b4880-72e0-4755-af29-47cdb06ee0ac","4f03f330-5f91-43fc-aa61-d9dda6d26521","","null","<div style=""display: flex; justify-content: center; align-items: center;"">
                <img src=""images/causal/causal_series_13/causal_series_13_b.jpg"" style=""width: 300px; height: 300px;"" />
              </div>","null",""
"","","","","","html-keyboard-response","104","391165","0.0-71.0-0.0-1.0","6D1B6B3437A2483584AC146874A34629","dd7b4880-72e0-4755-af29-47cdb06ee0ac","4f03f330-5f91-43fc-aa61-d9dda6d26521","","null","<div style=""display: flex; justify-content: center; align-items: center;"">
                <img src=""images/causal/causal_series_13/causal_series_13_c.jpg"" style=""width: 300px; height: 300px;"" />
              </div>","null",""
"","","","","","html-keyboard-response","105","394185","0.0-71.0-0.0-2.0","6D1B6B3437A2483584AC146874A34629","dd7b4880-72e0-4755-af29-47cdb06ee0ac","4f03f330-5f91-43fc-aa61-d9dda6d26521","","null","<div style=""display: flex; justify-content: center; align-items: center;"">
                <img src=""images/causal/causal_series_13/causal_series_13_d.jpg"" style=""width: 300px; height: 300px;"" />
              </div>","null",""
"","","","","","html-keyboard-response","106","397192","0.0-72.0","6D1B6B3437A2483584AC146874A34629","dd7b4880-72e0-4755-af29-47cdb06ee0ac","4f03f330-5f91-43fc-aa61-d9dda6d26521","","null","<div style=""display: flex; justify-content: center; align-items: center;"">
                <img src=""images/other/blank.jpg"" style=""width: 300px; height: 300px;"" />
              </div>","null",""
"","","","","","html-keyboard-response","107","400208","0.0-73.0","6D1B6B3437A2483584AC146874A34629","dd7b4880-72e0-4755-af29-47cdb06ee0ac","4f03f330-5f91-43fc-aa61-d9dda6d26521","","null","<div style=""display: flex; justify-content: center; align-items: center;"">
                <img src=""images/causal/causal_series_10/causal_series_10_a.jpg"" style=""width: 300px; height: 300px;"" />
              </div>","null",""
"","","","","","html-button-response","108","402085","0.0-74.0","6D1B6B3437A2483584AC146874A34629","dd7b4880-72e0-4755-af29-47cdb06ee0ac","4f03f330-5f91-43fc-aa61-d9dda6d26521","","1876","
    <div style=""display: flex; justify-content: center; align-items: center;"">
      <img src=""images/red_deck_2.png"" style=""width: 300px; height: 300px; margin-right: 10px;"" />
      <img src=""images/blue_deck_1.png"" style=""width: 300px; height: 300px;"" />
    </div>","0","0"
"","","","","","html-keyboard-response","109","405095","0.0-75.0-0.0-0.0","6D1B6B3437A2483584AC146874A34629","dd7b4880-72e0-4755-af29-47cdb06ee0ac","4f03f330-5f91-43fc-aa61-d9dda6d26521","","null","<div style=""display: flex; justify-content: center; align-items: center;"">
                <img src=""images/causal/causal_series_10/causal_series_10_b.jpg"" style=""width: 300px; height: 300px;"" />
              </div>","null",""
"","","","","","html-keyboard-response","110","408111","0.0-75.0-0.0-1.0","6D1B6B3437A2483584AC146874A34629","dd7b4880-72e0-4755-af29-47cdb06ee0ac","4f03f330-5f91-43fc-aa61-d9dda6d26521","","null","<div style=""display: flex; justify-content: center; align-items: center;"">
                <img src=""images/causal/causal_series_10/causal_series_10_c.jpg"" style=""width: 300px; height: 300px;"" />
              </div>","null",""
"","","","","","html-keyboard-response","111","411127","0.0-75.0-0.0-2.0","6D1B6B3437A2483584AC146874A34629","dd7b4880-72e0-4755-af29-47cdb06ee0ac","4f03f330-5f91-43fc-aa61-d9dda6d26521","","null","<div style=""display: flex; justify-content: center; align-items: center;"">
                <img src=""images/causal/causal_series_10/causal_series_10_d.jpg"" style=""width: 300px; height: 300px;"" />
              </div>","null",""
"","","","","","html-keyboard-response","112","414143","0.0-76.0","6D1B6B3437A2483584AC146874A34629","dd7b4880-72e0-4755-af29-47cdb06ee0ac","4f03f330-5f91-43fc-aa61-d9dda6d26521","","null","<div style=""display: flex; justify-content: center; align-items: center;"">
                <img src=""images/other/blank.jpg"" style=""width: 300px; height: 300px;"" />
              </div>","null",""
"","","","","","survey-text","113","454529","0.0-77.0","6D1B6B3437A2483584AC146874A34629","dd7b4880-72e0-4755-af29-47cdb06ee0ac","4f03f330-5f91-43fc-aa61-d9dda6d26521","","40375","","{""Q0"":""THE RED CARDS KEEPS THE STORY GOING OF THE PICTURE VS THE BLUE DESK PRESENTS NEW EXPERIENCES ""}",""
"","","","","","survey-text","114","466488","0.0-78.0","6D1B6B3437A2483584AC146874A34629","dd7b4880-72e0-4755-af29-47cdb06ee0ac","4f03f330-5f91-43fc-aa61-d9dda6d26521","","11956","","{""Q0"":""THE RED CARDS  MORE""}",""
"","","","","","html-button-response","115","482329","0.0-79.0","6D1B6B3437A2483584AC146874A34629","dd7b4880-72e0-4755-af29-47cdb06ee0ac","4f03f330-5f91-43fc-aa61-d9dda6d26521","","15841","Which color deck does the fourth image continue the story from the series?","1",""
"","","","","","html-button-response","116","484275","0.0-80.0","6D1B6B3437A2483584AC146874A34629","dd7b4880-72e0-4755-af29-47cdb06ee0ac","4f03f330-5f91-43fc-aa61-d9dda6d26521","","1945","Which color deck does the fourth image not follow the story from the series?","0",""
"","","","","","survey-text","117","489654","0.0-81.0","6D1B6B3437A2483584AC146874A34629","dd7b4880-72e0-4755-af29-47cdb06ee0ac","4f03f330-5f91-43fc-aa61-d9dda6d26521","","5377","","{""Q0"":""FEMALE"",""Q1"":""28""}",""
"","","","","","instructions","118","492309","0.0-82.0","6D1B6B3437A2483584AC146874A34629","dd7b4880-72e0-4755-af29-47cdb06ee0ac","4f03f330-5f91-43fc-aa61-d9dda6d26521","[{""page_index"":0,""viewing_time"":2655}]","2655","","",""
