"success","timeout","failed_images","failed_audio","failed_video","trial_type","trial_index","time_elapsed","internal_node_id","subject_id","study_id","session_id","view_history","rt","stimulus","response","choice"
"true","false","[]","[]","[]","preload","0","2591","0.0-0.0","01C524F4D9874700A516E920E7F31BBC","e1eb30bf-aff8-48b4-b13b-727e2499fca0","61e1ec61-13c7-4a8f-bf47-a91ec9909364","","","","",""
"","","","","","instructions","1","82179","0.0-1.0","01C524F4D9874700A516E920E7F31BBC","e1eb30bf-aff8-48b4-b13b-727e2499fca0","61e1ec61-13c7-4a8f-bf47-a91ec9909364","[{""page_index"":0,""viewing_time"":79587}]","79587","","",""
"","","","","","instructions","2","106771","0.0-2.0","01C524F4D9874700A516E920E7F31BBC","e1eb30bf-aff8-48b4-b13b-727e2499fca0","61e1ec61-13c7-4a8f-bf47-a91ec9909364","[{""page_index"":0,""viewing_time"":24591}]","24592","","",""
"true","","","","","fullscreen","3","110434","0.0-3.0","01C524F4D9874700A516E920E7F31BBC","e1eb30bf-aff8-48b4-b13b-727e2499fca0","61e1ec61-13c7-4a8f-bf47-a91ec9909364","","2659","","",""
"","","","","","instructions","4","130753","0.0-4.0","01C524F4D9874700A516E920E7F31BBC","e1eb30bf-aff8-48b4-b13b-727e2499fca0","61e1ec61-13c7-4a8f-bf47-a91ec9909364","[{""page_index"":0,""viewing_time"":20317}]","20317","","",""
"","","","","","html-keyboard-response","5","133755","0.0-5.0","01C524F4D9874700A516E920E7F31BBC","e1eb30bf-aff8-48b4-b13b-727e2499fca0","61e1ec61-13c7-4a8f-bf47-a91ec9909364","","null","<div style=""display: flex; justify-content: center; align-items: center;"">
                <img src=""images/causal/causal_series_7/causal_series_7_a.jpg"" style=""width: 300px; height: 300px;"" />
              </div>","null",""
"","","","","","html-keyboard-response","6","136767","0.0-6.0","01C524F4D9874700A516E920E7F31BBC","e1eb30bf-aff8-48b4-b13b-727e2499fca0","61e1ec61-13c7-4a8f-bf47-a91ec9909364","","null","<div style=""display: flex; justify-content: center; align-items: center;"">
                <img src=""images/causal/causal_series_7/causal_series_7_b.jpg"" style=""width: 300px; height: 300px;"" />
              </div>","null",""
"","","","","","html-keyboard-response","7","139780","0.0-7.0","01C524F4D9874700A516E920E7F31BBC","e1eb30bf-aff8-48b4-b13b-727e2499fca0","61e1ec61-13c7-4a8f-bf47-a91ec9909364","","null","<div style=""display: flex; justify-content: center; align-items: center;"">
                <img src=""images/causal/causal_series_7/causal_series_7_c.jpg"" style=""width: 300px; height: 300px;"" />
              </div>","null",""
"","","","","","html-button-response","8","149415","0.0-8.0","01C524F4D9874700A516E920E7F31BBC","e1eb30bf-aff8-48b4-b13b-727e2499fca0","61e1ec61-13c7-4a8f-bf47-a91ec9909364","","9634","
    <div style=""display: flex; justify-content: center; align-items: center;"">
      <img src=""images/red_deck_2.png"" style=""width: 300px; height: 300px; margin-right: 10px;"" />
      <img src=""images/blue_deck_1.png"" style=""width: 300px; height: 300px;"" />
    </div>","0","0"
"","","","","","html-keyboard-response","9","152417","0.0-9.0-0.0-0.0","01C524F4D9874700A516E920E7F31BBC","e1eb30bf-aff8-48b4-b13b-727e2499fca0","61e1ec61-13c7-4a8f-bf47-a91ec9909364","","null","<div style=""display: flex; justify-content: center; align-items: center;"">
                <img src=""images/causal/causal_series_7/causal_series_7_d.jpg"" style=""width: 300px; height: 300px;"" />
              </div>","null",""
"","","","","","html-keyboard-response","10","155428","0.0-10.0","01C524F4D9874700A516E920E7F31BBC","e1eb30bf-aff8-48b4-b13b-727e2499fca0","61e1ec61-13c7-4a8f-bf47-a91ec9909364","","null","<div style=""display: flex; justify-content: center; align-items: center;"">
                <img src=""images/other/blank.jpg"" style=""width: 300px; height: 300px;"" />
              </div>","null",""
"","","","","","html-keyboard-response","11","158441","0.0-11.0","01C524F4D9874700A516E920E7F31BBC","e1eb30bf-aff8-48b4-b13b-727e2499fca0","61e1ec61-13c7-4a8f-bf47-a91ec9909364","","null","<div style=""display: flex; justify-content: center; align-items: center;"">
                <img src=""images/causal/causal_series_6/causal_series_6_a.jpg"" style=""width: 300px; height: 300px;"" />
              </div>","null",""
"","","","","","html-keyboard-response","12","161448","0.0-12.0","01C524F4D9874700A516E920E7F31BBC","e1eb30bf-aff8-48b4-b13b-727e2499fca0","61e1ec61-13c7-4a8f-bf47-a91ec9909364","","null","<div style=""display: flex; justify-content: center; align-items: center;"">
                <img src=""images/causal/causal_series_6/causal_series_6_b.jpg"" style=""width: 300px; height: 300px;"" />
              </div>","null",""
"","","","","","html-keyboard-response","13","164464","0.0-13.0","01C524F4D9874700A516E920E7F31BBC","e1eb30bf-aff8-48b4-b13b-727e2499fca0","61e1ec61-13c7-4a8f-bf47-a91ec9909364","","null","<div style=""display: flex; justify-content: center; align-items: center;"">
                <img src=""images/causal/causal_series_6/causal_series_6_c.jpg"" style=""width: 300px; height: 300px;"" />
              </div>","null",""
"","","","","","html-button-response","14","167275","0.0-14.0","01C524F4D9874700A516E920E7F31BBC","e1eb30bf-aff8-48b4-b13b-727e2499fca0","61e1ec61-13c7-4a8f-bf47-a91ec9909364","","2810","
    <div style=""display: flex; justify-content: center; align-items: center;"">
      <img src=""images/red_deck_2.png"" style=""width: 300px; height: 300px; margin-right: 10px;"" />
      <img src=""images/blue_deck_1.png"" style=""width: 300px; height: 300px;"" />
    </div>","0","0"
"","","","","","html-keyboard-response","15","170283","0.0-15.0-0.0-0.0","01C524F4D9874700A516E920E7F31BBC","e1eb30bf-aff8-48b4-b13b-727e2499fca0","61e1ec61-13c7-4a8f-bf47-a91ec9909364","","null","<div style=""display: flex; justify-content: center; align-items: center;"">
                <img src=""images/causal/causal_series_6/causal_series_6_d.jpg"" style=""width: 300px; height: 300px;"" />
              </div>","null",""
"","","","","","html-keyboard-response","16","173294","0.0-16.0","01C524F4D9874700A516E920E7F31BBC","e1eb30bf-aff8-48b4-b13b-727e2499fca0","61e1ec61-13c7-4a8f-bf47-a91ec9909364","","null","<div style=""display: flex; justify-content: center; align-items: center;"">
                <img src=""images/other/blank.jpg"" style=""width: 300px; height: 300px;"" />
              </div>","null",""
"","","","","","html-keyboard-response","17","176299","0.0-17.0","01C524F4D9874700A516E920E7F31BBC","e1eb30bf-aff8-48b4-b13b-727e2499fca0","61e1ec61-13c7-4a8f-bf47-a91ec9909364","","null","<div style=""display: flex; justify-content: center; align-items: center;"">
                <img src=""images/causal/causal_series_12/causal_series_12_a.jpg"" style=""width: 300px; height: 300px;"" />
              </div>","null",""
"","","","","","html-keyboard-response","18","179312","0.0-18.0","01C524F4D9874700A516E920E7F31BBC","e1eb30bf-aff8-48b4-b13b-727e2499fca0","61e1ec61-13c7-4a8f-bf47-a91ec9909364","","null","<div style=""display: flex; justify-content: center; align-items: center;"">
                <img src=""images/causal/causal_series_12/causal_series_12_b.jpg"" style=""width: 300px; height: 300px;"" />
              </div>","null",""
"","","","","","html-keyboard-response","19","182314","0.0-19.0","01C524F4D9874700A516E920E7F31BBC","e1eb30bf-aff8-48b4-b13b-727e2499fca0","61e1ec61-13c7-4a8f-bf47-a91ec9909364","","null","<div style=""display: flex; justify-content: center; align-items: center;"">
                <img src=""images/causal/causal_series_12/causal_series_12_c.jpg"" style=""width: 300px; height: 300px;"" />
              </div>","null",""
"","","","","","html-button-response","20","184743","0.0-20.0","01C524F4D9874700A516E920E7F31BBC","e1eb30bf-aff8-48b4-b13b-727e2499fca0","61e1ec61-13c7-4a8f-bf47-a91ec9909364","","2427","
    <div style=""display: flex; justify-content: center; align-items: center;"">
      <img src=""images/red_deck_2.png"" style=""width: 300px; height: 300px; margin-right: 10px;"" />
      <img src=""images/blue_deck_1.png"" style=""width: 300px; height: 300px;"" />
    </div>","1","1"
"","","","","","html-keyboard-response","21","187754","0.0-21.0-1.0-0.0","01C524F4D9874700A516E920E7F31BBC","e1eb30bf-aff8-48b4-b13b-727e2499fca0","61e1ec61-13c7-4a8f-bf47-a91ec9909364","","null","<div style=""display: flex; justify-content: center; align-items: center;"">
                <img src=""images/semantic/semantic_series_11/semantic_series_11_d.jpg"" style=""width: 300px; height: 300px;"" />
              </div>","null",""
"","","","","","html-keyboard-response","22","190756","0.0-22.0","01C524F4D9874700A516E920E7F31BBC","e1eb30bf-aff8-48b4-b13b-727e2499fca0","61e1ec61-13c7-4a8f-bf47-a91ec9909364","","null","<div style=""display: flex; justify-content: center; align-items: center;"">
                <img src=""images/other/blank.jpg"" style=""width: 300px; height: 300px;"" />
              </div>","null",""
"","","","","","html-keyboard-response","23","193762","0.0-23.0","01C524F4D9874700A516E920E7F31BBC","e1eb30bf-aff8-48b4-b13b-727e2499fca0","61e1ec61-13c7-4a8f-bf47-a91ec9909364","","null","<div style=""display: flex; justify-content: center; align-items: center;"">
                <img src=""images/causal/causal_series_16/causal_series_16_a.jpg"" style=""width: 300px; height: 300px;"" />
              </div>","null",""
"","","","","","html-keyboard-response","24","196766","0.0-24.0","01C524F4D9874700A516E920E7F31BBC","e1eb30bf-aff8-48b4-b13b-727e2499fca0","61e1ec61-13c7-4a8f-bf47-a91ec9909364","","null","<div style=""display: flex; justify-content: center; align-items: center;"">
                <img src=""images/causal/causal_series_16/causal_series_16_b.jpg"" style=""width: 300px; height: 300px;"" />
              </div>","null",""
"","","","","","html-keyboard-response","25","199781","0.0-25.0","01C524F4D9874700A516E920E7F31BBC","e1eb30bf-aff8-48b4-b13b-727e2499fca0","61e1ec61-13c7-4a8f-bf47-a91ec9909364","","null","<div style=""display: flex; justify-content: center; align-items: center;"">
                <img src=""images/causal/causal_series_16/causal_series_16_c.jpg"" style=""width: 300px; height: 300px;"" />
              </div>","null",""
"","","","","","html-button-response","26","202407","0.0-26.0","01C524F4D9874700A516E920E7F31BBC","e1eb30bf-aff8-48b4-b13b-727e2499fca0","61e1ec61-13c7-4a8f-bf47-a91ec9909364","","2625","
    <div style=""display: flex; justify-content: center; align-items: center;"">
      <img src=""images/red_deck_2.png"" style=""width: 300px; height: 300px; margin-right: 10px;"" />
      <img src=""images/blue_deck_1.png"" style=""width: 300px; height: 300px;"" />
    </div>","1","1"
"","","","","","html-keyboard-response","27","205409","0.0-27.0-1.0-0.0","01C524F4D9874700A516E920E7F31BBC","e1eb30bf-aff8-48b4-b13b-727e2499fca0","61e1ec61-13c7-4a8f-bf47-a91ec9909364","","null","<div style=""display: flex; justify-content: center; align-items: center;"">
                <img src=""images/semantic/semantic_series_15/semantic_series_15_d.jpg"" style=""width: 300px; height: 300px;"" />
              </div>","null",""
"","","","","","html-keyboard-response","28","208414","0.0-28.0","01C524F4D9874700A516E920E7F31BBC","e1eb30bf-aff8-48b4-b13b-727e2499fca0","61e1ec61-13c7-4a8f-bf47-a91ec9909364","","null","<div style=""display: flex; justify-content: center; align-items: center;"">
                <img src=""images/other/blank.jpg"" style=""width: 300px; height: 300px;"" />
              </div>","null",""
"","","","","","html-keyboard-response","29","211425","0.0-29.0","01C524F4D9874700A516E920E7F31BBC","e1eb30bf-aff8-48b4-b13b-727e2499fca0","61e1ec61-13c7-4a8f-bf47-a91ec9909364","","null","<div style=""display: flex; justify-content: center; align-items: center;"">
                <img src=""images/causal/causal_series_10/causal_series_10_a.jpg"" style=""width: 300px; height: 300px;"" />
              </div>","null",""
"","","","","","html-keyboard-response","30","214435","0.0-30.0","01C524F4D9874700A516E920E7F31BBC","e1eb30bf-aff8-48b4-b13b-727e2499fca0","61e1ec61-13c7-4a8f-bf47-a91ec9909364","","null","<div style=""display: flex; justify-content: center; align-items: center;"">
                <img src=""images/causal/causal_series_10/causal_series_10_b.jpg"" style=""width: 300px; height: 300px;"" />
              </div>","null",""
"","","","","","html-keyboard-response","31","217436","0.0-31.0","01C524F4D9874700A516E920E7F31BBC","e1eb30bf-aff8-48b4-b13b-727e2499fca0","61e1ec61-13c7-4a8f-bf47-a91ec9909364","","null","<div style=""display: flex; justify-content: center; align-items: center;"">
                <img src=""images/causal/causal_series_10/causal_series_10_c.jpg"" style=""width: 300px; height: 300px;"" />
              </div>","null",""
"","","","","","html-button-response","32","218572","0.0-32.0","01C524F4D9874700A516E920E7F31BBC","e1eb30bf-aff8-48b4-b13b-727e2499fca0","61e1ec61-13c7-4a8f-bf47-a91ec9909364","","1135","
    <div style=""display: flex; justify-content: center; align-items: center;"">
      <img src=""images/red_deck_2.png"" style=""width: 300px; height: 300px; margin-right: 10px;"" />
      <img src=""images/blue_deck_1.png"" style=""width: 300px; height: 300px;"" />
    </div>","0","0"
"","","","","","html-keyboard-response","33","221584","0.0-33.0-0.0-0.0","01C524F4D9874700A516E920E7F31BBC","e1eb30bf-aff8-48b4-b13b-727e2499fca0","61e1ec61-13c7-4a8f-bf47-a91ec9909364","","null","<div style=""display: flex; justify-content: center; align-items: center;"">
                <img src=""images/causal/causal_series_10/causal_series_10_d.jpg"" style=""width: 300px; height: 300px;"" />
              </div>","null",""
"","","","","","html-keyboard-response","34","224589","0.0-34.0","01C524F4D9874700A516E920E7F31BBC","e1eb30bf-aff8-48b4-b13b-727e2499fca0","61e1ec61-13c7-4a8f-bf47-a91ec9909364","","null","<div style=""display: flex; justify-content: center; align-items: center;"">
                <img src=""images/other/blank.jpg"" style=""width: 300px; height: 300px;"" />
              </div>","null",""
"","","","","","html-keyboard-response","35","227599","0.0-35.0","01C524F4D9874700A516E920E7F31BBC","e1eb30bf-aff8-48b4-b13b-727e2499fca0","61e1ec61-13c7-4a8f-bf47-a91ec9909364","","null","<div style=""display: flex; justify-content: center; align-items: center;"">
                <img src=""images/causal/causal_series_9/causal_series_9_a.jpg"" style=""width: 300px; height: 300px;"" />
              </div>","null",""
"","","","","","html-keyboard-response","36","230605","0.0-36.0","01C524F4D9874700A516E920E7F31BBC","e1eb30bf-aff8-48b4-b13b-727e2499fca0","61e1ec61-13c7-4a8f-bf47-a91ec9909364","","null","<div style=""display: flex; justify-content: center; align-items: center;"">
                <img src=""images/causal/causal_series_9/causal_series_9_b.jpg"" style=""width: 300px; height: 300px;"" />
              </div>","null",""
"","","","","","html-keyboard-response","37","233618","0.0-37.0","01C524F4D9874700A516E920E7F31BBC","e1eb30bf-aff8-48b4-b13b-727e2499fca0","61e1ec61-13c7-4a8f-bf47-a91ec9909364","","null","<div style=""display: flex; justify-content: center; align-items: center;"">
                <img src=""images/causal/causal_series_9/causal_series_9_c.jpg"" style=""width: 300px; height: 300px;"" />
              </div>","null",""
"","","","","","html-button-response","38","234499","0.0-38.0","01C524F4D9874700A516E920E7F31BBC","e1eb30bf-aff8-48b4-b13b-727e2499fca0","61e1ec61-13c7-4a8f-bf47-a91ec9909364","","880","
    <div style=""display: flex; justify-content: center; align-items: center;"">
      <img src=""images/red_deck_2.png"" style=""width: 300px; height: 300px; margin-right: 10px;"" />
      <img src=""images/blue_deck_1.png"" style=""width: 300px; height: 300px;"" />
    </div>","1","1"
"","","","","","html-keyboard-response","39","237504","0.0-39.0-1.0-0.0","01C524F4D9874700A516E920E7F31BBC","e1eb30bf-aff8-48b4-b13b-727e2499fca0","61e1ec61-13c7-4a8f-bf47-a91ec9909364","","null","<div style=""display: flex; justify-content: center; align-items: center;"">
                <img src=""images/semantic/semantic_series_8/semantic_series_8_d.jpg"" style=""width: 300px; height: 300px;"" />
              </div>","null",""
"","","","","","html-keyboard-response","40","240519","0.0-40.0","01C524F4D9874700A516E920E7F31BBC","e1eb30bf-aff8-48b4-b13b-727e2499fca0","61e1ec61-13c7-4a8f-bf47-a91ec9909364","","null","<div style=""display: flex; justify-content: center; align-items: center;"">
                <img src=""images/other/blank.jpg"" style=""width: 300px; height: 300px;"" />
              </div>","null",""
"","","","","","html-keyboard-response","41","243528","0.0-41.0","01C524F4D9874700A516E920E7F31BBC","e1eb30bf-aff8-48b4-b13b-727e2499fca0","61e1ec61-13c7-4a8f-bf47-a91ec9909364","","null","<div style=""display: flex; justify-content: center; align-items: center;"">
                <img src=""images/causal/causal_series_11/causal_series_11_a.jpg"" style=""width: 300px; height: 300px;"" />
              </div>","null",""
"","","","","","html-keyboard-response","42","246532","0.0-42.0","01C524F4D9874700A516E920E7F31BBC","e1eb30bf-aff8-48b4-b13b-727e2499fca0","61e1ec61-13c7-4a8f-bf47-a91ec9909364","","null","<div style=""display: flex; justify-content: center; align-items: center;"">
                <img src=""images/causal/causal_series_11/causal_series_11_b.jpg"" style=""width: 300px; height: 300px;"" />
              </div>","null",""
"","","","","","html-keyboard-response","43","249546","0.0-43.0","01C524F4D9874700A516E920E7F31BBC","e1eb30bf-aff8-48b4-b13b-727e2499fca0","61e1ec61-13c7-4a8f-bf47-a91ec9909364","","null","<div style=""display: flex; justify-content: center; align-items: center;"">
                <img src=""images/causal/causal_series_11/causal_series_11_c.jpg"" style=""width: 300px; height: 300px;"" />
              </div>","null",""
"","","","","","html-button-response","44","250470","0.0-44.0","01C524F4D9874700A516E920E7F31BBC","e1eb30bf-aff8-48b4-b13b-727e2499fca0","61e1ec61-13c7-4a8f-bf47-a91ec9909364","","923","
    <div style=""display: flex; justify-content: center; align-items: center;"">
      <img src=""images/red_deck_2.png"" style=""width: 300px; height: 300px; margin-right: 10px;"" />
      <img src=""images/blue_deck_1.png"" style=""width: 300px; height: 300px;"" />
    </div>","0","0"
"","","","","","html-keyboard-response","45","253482","0.0-45.0-0.0-0.0","01C524F4D9874700A516E920E7F31BBC","e1eb30bf-aff8-48b4-b13b-727e2499fca0","61e1ec61-13c7-4a8f-bf47-a91ec9909364","","null","<div style=""display: flex; justify-content: center; align-items: center;"">
                <img src=""images/causal/causal_series_11/causal_series_11_d.jpg"" style=""width: 300px; height: 300px;"" />
              </div>","null",""
"","","","","","html-keyboard-response","46","256491","0.0-46.0","01C524F4D9874700A516E920E7F31BBC","e1eb30bf-aff8-48b4-b13b-727e2499fca0","61e1ec61-13c7-4a8f-bf47-a91ec9909364","","null","<div style=""display: flex; justify-content: center; align-items: center;"">
                <img src=""images/other/blank.jpg"" style=""width: 300px; height: 300px;"" />
              </div>","null",""
"","","","","","html-keyboard-response","47","259493","0.0-47.0","01C524F4D9874700A516E920E7F31BBC","e1eb30bf-aff8-48b4-b13b-727e2499fca0","61e1ec61-13c7-4a8f-bf47-a91ec9909364","","null","<div style=""display: flex; justify-content: center; align-items: center;"">
                <img src=""images/causal/causal_series_3/causal_series_3_a.jpg"" style=""width: 300px; height: 300px;"" />
              </div>","null",""
"","","","","","html-keyboard-response","48","262496","0.0-48.0","01C524F4D9874700A516E920E7F31BBC","e1eb30bf-aff8-48b4-b13b-727e2499fca0","61e1ec61-13c7-4a8f-bf47-a91ec9909364","","null","<div style=""display: flex; justify-content: center; align-items: center;"">
                <img src=""images/causal/causal_series_3/causal_series_3_b.jpg"" style=""width: 300px; height: 300px;"" />
              </div>","null",""
"","","","","","html-keyboard-response","49","265509","0.0-49.0","01C524F4D9874700A516E920E7F31BBC","e1eb30bf-aff8-48b4-b13b-727e2499fca0","61e1ec61-13c7-4a8f-bf47-a91ec9909364","","null","<div style=""display: flex; justify-content: center; align-items: center;"">
                <img src=""images/causal/causal_series_3/causal_series_3_c.jpg"" style=""width: 300px; height: 300px;"" />
              </div>","null",""
"","","","","","html-button-response","50","268258","0.0-50.0","01C524F4D9874700A516E920E7F31BBC","e1eb30bf-aff8-48b4-b13b-727e2499fca0","61e1ec61-13c7-4a8f-bf47-a91ec9909364","","2748","
    <div style=""display: flex; justify-content: center; align-items: center;"">
      <img src=""images/red_deck_2.png"" style=""width: 300px; height: 300px; margin-right: 10px;"" />
      <img src=""images/blue_deck_1.png"" style=""width: 300px; height: 300px;"" />
    </div>","1","1"
"","","","","","html-keyboard-response","51","271268","0.0-51.0-1.0-0.0","01C524F4D9874700A516E920E7F31BBC","e1eb30bf-aff8-48b4-b13b-727e2499fca0","61e1ec61-13c7-4a8f-bf47-a91ec9909364","","null","<div style=""display: flex; justify-content: center; align-items: center;"">
                <img src=""images/semantic/semantic_series_2/semantic_series_2_d.jpg"" style=""width: 300px; height: 300px;"" />
              </div>","null",""
"","","","","","html-keyboard-response","52","274272","0.0-52.0","01C524F4D9874700A516E920E7F31BBC","e1eb30bf-aff8-48b4-b13b-727e2499fca0","61e1ec61-13c7-4a8f-bf47-a91ec9909364","","null","<div style=""display: flex; justify-content: center; align-items: center;"">
                <img src=""images/other/blank.jpg"" style=""width: 300px; height: 300px;"" />
              </div>","null",""
"","","","","","html-keyboard-response","53","277284","0.0-53.0","01C524F4D9874700A516E920E7F31BBC","e1eb30bf-aff8-48b4-b13b-727e2499fca0","61e1ec61-13c7-4a8f-bf47-a91ec9909364","","null","<div style=""display: flex; justify-content: center; align-items: center;"">
                <img src=""images/causal/causal_series_4/causal_series_4_a.jpg"" style=""width: 300px; height: 300px;"" />
              </div>","null",""
"","","","","","html-keyboard-response","54","280299","0.0-54.0","01C524F4D9874700A516E920E7F31BBC","e1eb30bf-aff8-48b4-b13b-727e2499fca0","61e1ec61-13c7-4a8f-bf47-a91ec9909364","","null","<div style=""display: flex; justify-content: center; align-items: center;"">
                <img src=""images/causal/causal_series_4/causal_series_4_b.jpg"" style=""width: 300px; height: 300px;"" />
              </div>","null",""
"","","","","","html-keyboard-response","55","283312","0.0-55.0","01C524F4D9874700A516E920E7F31BBC","e1eb30bf-aff8-48b4-b13b-727e2499fca0","61e1ec61-13c7-4a8f-bf47-a91ec9909364","","null","<div style=""display: flex; justify-content: center; align-items: center;"">
                <img src=""images/causal/causal_series_4/causal_series_4_c.jpg"" style=""width: 300px; height: 300px;"" />
              </div>","null",""
"","","","","","html-button-response","56","286128","0.0-56.0","01C524F4D9874700A516E920E7F31BBC","e1eb30bf-aff8-48b4-b13b-727e2499fca0","61e1ec61-13c7-4a8f-bf47-a91ec9909364","","2816","
    <div style=""display: flex; justify-content: center; align-items: center;"">
      <img src=""images/red_deck_2.png"" style=""width: 300px; height: 300px; margin-right: 10px;"" />
      <img src=""images/blue_deck_1.png"" style=""width: 300px; height: 300px;"" />
    </div>","1","1"
"","","","","","html-keyboard-response","57","289130","0.0-57.0-1.0-0.0","01C524F4D9874700A516E920E7F31BBC","e1eb30bf-aff8-48b4-b13b-727e2499fca0","61e1ec61-13c7-4a8f-bf47-a91ec9909364","","null","<div style=""display: flex; justify-content: center; align-items: center;"">
                <img src=""images/semantic/semantic_series_3/semantic_series_3_d.jpg"" style=""width: 300px; height: 300px;"" />
              </div>","null",""
"","","","","","html-keyboard-response","58","292133","0.0-58.0","01C524F4D9874700A516E920E7F31BBC","e1eb30bf-aff8-48b4-b13b-727e2499fca0","61e1ec61-13c7-4a8f-bf47-a91ec9909364","","null","<div style=""display: flex; justify-content: center; align-items: center;"">
                <img src=""images/other/blank.jpg"" style=""width: 300px; height: 300px;"" />
              </div>","null",""
"","","","","","html-keyboard-response","59","295134","0.0-59.0","01C524F4D9874700A516E920E7F31BBC","e1eb30bf-aff8-48b4-b13b-727e2499fca0","61e1ec61-13c7-4a8f-bf47-a91ec9909364","","null","<div style=""display: flex; justify-content: center; align-items: center;"">
                <img src=""images/causal/causal_series_8/causal_series_8_a.jpg"" style=""width: 300px; height: 300px;"" />
              </div>","null",""
"","","","","","html-keyboard-response","60","298144","0.0-60.0","01C524F4D9874700A516E920E7F31BBC","e1eb30bf-aff8-48b4-b13b-727e2499fca0","61e1ec61-13c7-4a8f-bf47-a91ec9909364","","null","<div style=""display: flex; justify-content: center; align-items: center;"">
                <img src=""images/causal/causal_series_8/causal_series_8_b.jpg"" style=""width: 300px; height: 300px;"" />
              </div>","null",""
"","","","","","html-keyboard-response","61","301148","0.0-61.0","01C524F4D9874700A516E920E7F31BBC","e1eb30bf-aff8-48b4-b13b-727e2499fca0","61e1ec61-13c7-4a8f-bf47-a91ec9909364","","null","<div style=""display: flex; justify-content: center; align-items: center;"">
                <img src=""images/causal/causal_series_8/causal_series_8_c.jpg"" style=""width: 300px; height: 300px;"" />
              </div>","null",""
"","","","","","html-button-response","62","303653","0.0-62.0","01C524F4D9874700A516E920E7F31BBC","e1eb30bf-aff8-48b4-b13b-727e2499fca0","61e1ec61-13c7-4a8f-bf47-a91ec9909364","","2504","
    <div style=""display: flex; justify-content: center; align-items: center;"">
      <img src=""images/red_deck_2.png"" style=""width: 300px; height: 300px; margin-right: 10px;"" />
      <img src=""images/blue_deck_1.png"" style=""width: 300px; height: 300px;"" />
    </div>","0","0"
"","","","","","html-keyboard-response","63","306657","0.0-63.0-0.0-0.0","01C524F4D9874700A516E920E7F31BBC","e1eb30bf-aff8-48b4-b13b-727e2499fca0","61e1ec61-13c7-4a8f-bf47-a91ec9909364","","null","<div style=""display: flex; justify-content: center; align-items: center;"">
                <img src=""images/causal/causal_series_8/causal_series_8_d.jpg"" style=""width: 300px; height: 300px;"" />
              </div>","null",""
"","","","","","html-keyboard-response","64","309658","0.0-64.0","01C524F4D9874700A516E920E7F31BBC","e1eb30bf-aff8-48b4-b13b-727e2499fca0","61e1ec61-13c7-4a8f-bf47-a91ec9909364","","null","<div style=""display: flex; justify-content: center; align-items: center;"">
                <img src=""images/other/blank.jpg"" style=""width: 300px; height: 300px;"" />
              </div>","null",""
"","","","","","html-keyboard-response","65","312663","0.0-65.0","01C524F4D9874700A516E920E7F31BBC","e1eb30bf-aff8-48b4-b13b-727e2499fca0","61e1ec61-13c7-4a8f-bf47-a91ec9909364","","null","<div style=""display: flex; justify-content: center; align-items: center;"">
                <img src=""images/causal/causal_series_17/causal_series_17_a.jpg"" style=""width: 300px; height: 300px;"" />
              </div>","null",""
"","","","","","html-keyboard-response","66","315669","0.0-66.0","01C524F4D9874700A516E920E7F31BBC","e1eb30bf-aff8-48b4-b13b-727e2499fca0","61e1ec61-13c7-4a8f-bf47-a91ec9909364","","null","<div style=""display: flex; justify-content: center; align-items: center;"">
                <img src=""images/causal/causal_series_17/causal_series_17_b.jpg"" style=""width: 300px; height: 300px;"" />
              </div>","null",""
"","","","","","html-keyboard-response","67","318671","0.0-67.0","01C524F4D9874700A516E920E7F31BBC","e1eb30bf-aff8-48b4-b13b-727e2499fca0","61e1ec61-13c7-4a8f-bf47-a91ec9909364","","null","<div style=""display: flex; justify-content: center; align-items: center;"">
                <img src=""images/causal/causal_series_17/causal_series_17_c.jpg"" style=""width: 300px; height: 300px;"" />
              </div>","null",""
"","","","","","html-button-response","68","319680","0.0-68.0","01C524F4D9874700A516E920E7F31BBC","e1eb30bf-aff8-48b4-b13b-727e2499fca0","61e1ec61-13c7-4a8f-bf47-a91ec9909364","","1009","
    <div style=""display: flex; justify-content: center; align-items: center;"">
      <img src=""images/red_deck_2.png"" style=""width: 300px; height: 300px; margin-right: 10px;"" />
      <img src=""images/blue_deck_1.png"" style=""width: 300px; height: 300px;"" />
    </div>","1","1"
"","","","","","html-keyboard-response","69","322695","0.0-69.0-1.0-0.0","01C524F4D9874700A516E920E7F31BBC","e1eb30bf-aff8-48b4-b13b-727e2499fca0","61e1ec61-13c7-4a8f-bf47-a91ec9909364","","null","<div style=""display: flex; justify-content: center; align-items: center;"">
                <img src=""images/semantic/semantic_series_16/semantic_series_16_d.jpg"" style=""width: 300px; height: 300px;"" />
              </div>","null",""
"","","","","","html-keyboard-response","70","325698","0.0-70.0","01C524F4D9874700A516E920E7F31BBC","e1eb30bf-aff8-48b4-b13b-727e2499fca0","61e1ec61-13c7-4a8f-bf47-a91ec9909364","","null","<div style=""display: flex; justify-content: center; align-items: center;"">
                <img src=""images/other/blank.jpg"" style=""width: 300px; height: 300px;"" />
              </div>","null",""
"","","","","","html-keyboard-response","71","328703","0.0-71.0","01C524F4D9874700A516E920E7F31BBC","e1eb30bf-aff8-48b4-b13b-727e2499fca0","61e1ec61-13c7-4a8f-bf47-a91ec9909364","","null","<div style=""display: flex; justify-content: center; align-items: center;"">
                <img src=""images/causal/causal_series_2/causal_series_2_a.jpg"" style=""width: 300px; height: 300px;"" />
              </div>","null",""
"","","","","","html-keyboard-response","72","331718","0.0-72.0","01C524F4D9874700A516E920E7F31BBC","e1eb30bf-aff8-48b4-b13b-727e2499fca0","61e1ec61-13c7-4a8f-bf47-a91ec9909364","","null","<div style=""display: flex; justify-content: center; align-items: center;"">
                <img src=""images/causal/causal_series_2/causal_series_2_b.jpg"" style=""width: 300px; height: 300px;"" />
              </div>","null",""
"","","","","","html-keyboard-response","73","334720","0.0-73.0","01C524F4D9874700A516E920E7F31BBC","e1eb30bf-aff8-48b4-b13b-727e2499fca0","61e1ec61-13c7-4a8f-bf47-a91ec9909364","","null","<div style=""display: flex; justify-content: center; align-items: center;"">
                <img src=""images/causal/causal_series_2/causal_series_2_c.jpg"" style=""width: 300px; height: 300px;"" />
              </div>","null",""
"","","","","","html-button-response","74","337026","0.0-74.0","01C524F4D9874700A516E920E7F31BBC","e1eb30bf-aff8-48b4-b13b-727e2499fca0","61e1ec61-13c7-4a8f-bf47-a91ec9909364","","2305","
    <div style=""display: flex; justify-content: center; align-items: center;"">
      <img src=""images/red_deck_2.png"" style=""width: 300px; height: 300px; margin-right: 10px;"" />
      <img src=""images/blue_deck_1.png"" style=""width: 300px; height: 300px;"" />
    </div>","1","1"
"","","","","","html-keyboard-response","75","340035","0.0-75.0-1.0-0.0","01C524F4D9874700A516E920E7F31BBC","e1eb30bf-aff8-48b4-b13b-727e2499fca0","61e1ec61-13c7-4a8f-bf47-a91ec9909364","","null","<div style=""display: flex; justify-content: center; align-items: center;"">
                <img src=""images/semantic/semantic_series_1/semantic_series_1_d.jpg"" style=""width: 300px; height: 300px;"" />
              </div>","null",""
"","","","","","html-keyboard-response","76","343043","0.0-76.0","01C524F4D9874700A516E920E7F31BBC","e1eb30bf-aff8-48b4-b13b-727e2499fca0","61e1ec61-13c7-4a8f-bf47-a91ec9909364","","null","<div style=""display: flex; justify-content: center; align-items: center;"">
                <img src=""images/other/blank.jpg"" style=""width: 300px; height: 300px;"" />
              </div>","null",""
"","","","","","html-keyboard-response","77","346058","0.0-77.0","01C524F4D9874700A516E920E7F31BBC","e1eb30bf-aff8-48b4-b13b-727e2499fca0","61e1ec61-13c7-4a8f-bf47-a91ec9909364","","null","<div style=""display: flex; justify-content: center; align-items: center;"">
                <img src=""images/causal/causal_series_5/causal_series_5_a.jpg"" style=""width: 300px; height: 300px;"" />
              </div>","null",""
"","","","","","html-keyboard-response","78","349068","0.0-78.0","01C524F4D9874700A516E920E7F31BBC","e1eb30bf-aff8-48b4-b13b-727e2499fca0","61e1ec61-13c7-4a8f-bf47-a91ec9909364","","null","<div style=""display: flex; justify-content: center; align-items: center;"">
                <img src=""images/causal/causal_series_5/causal_series_5_b.jpg"" style=""width: 300px; height: 300px;"" />
              </div>","null",""
"","","","","","html-keyboard-response","79","352072","0.0-79.0","01C524F4D9874700A516E920E7F31BBC","e1eb30bf-aff8-48b4-b13b-727e2499fca0","61e1ec61-13c7-4a8f-bf47-a91ec9909364","","null","<div style=""display: flex; justify-content: center; align-items: center;"">
                <img src=""images/causal/causal_series_5/causal_series_5_c.jpg"" style=""width: 300px; height: 300px;"" />
              </div>","null",""
"","","","","","html-button-response","80","353596","0.0-80.0","01C524F4D9874700A516E920E7F31BBC","e1eb30bf-aff8-48b4-b13b-727e2499fca0","61e1ec61-13c7-4a8f-bf47-a91ec9909364","","1524","
    <div style=""display: flex; justify-content: center; align-items: center;"">
      <img src=""images/red_deck_2.png"" style=""width: 300px; height: 300px; margin-right: 10px;"" />
      <img src=""images/blue_deck_1.png"" style=""width: 300px; height: 300px;"" />
    </div>","1","1"
"","","","","","html-keyboard-response","81","356601","0.0-81.0-1.0-0.0","01C524F4D9874700A516E920E7F31BBC","e1eb30bf-aff8-48b4-b13b-727e2499fca0","61e1ec61-13c7-4a8f-bf47-a91ec9909364","","null","<div style=""display: flex; justify-content: center; align-items: center;"">
                <img src=""images/semantic/semantic_series_4/semantic_series_4_d.jpg"" style=""width: 300px; height: 300px;"" />
              </div>","null",""
"","","","","","html-keyboard-response","82","359614","0.0-82.0","01C524F4D9874700A516E920E7F31BBC","e1eb30bf-aff8-48b4-b13b-727e2499fca0","61e1ec61-13c7-4a8f-bf47-a91ec9909364","","null","<div style=""display: flex; justify-content: center; align-items: center;"">
                <img src=""images/other/blank.jpg"" style=""width: 300px; height: 300px;"" />
              </div>","null",""
"","","","","","html-keyboard-response","83","362619","0.0-83.0","01C524F4D9874700A516E920E7F31BBC","e1eb30bf-aff8-48b4-b13b-727e2499fca0","61e1ec61-13c7-4a8f-bf47-a91ec9909364","","null","<div style=""display: flex; justify-content: center; align-items: center;"">
                <img src=""images/causal/causal_series_1/causal_series_1_a.jpg"" style=""width: 300px; height: 300px;"" />
              </div>","null",""
"","","","","","html-keyboard-response","84","365624","0.0-84.0","01C524F4D9874700A516E920E7F31BBC","e1eb30bf-aff8-48b4-b13b-727e2499fca0","61e1ec61-13c7-4a8f-bf47-a91ec9909364","","null","<div style=""display: flex; justify-content: center; align-items: center;"">
                <img src=""images/causal/causal_series_1/causal_series_1_b.jpg"" style=""width: 300px; height: 300px;"" />
              </div>","null",""
"","","","","","html-keyboard-response","85","368628","0.0-85.0","01C524F4D9874700A516E920E7F31BBC","e1eb30bf-aff8-48b4-b13b-727e2499fca0","61e1ec61-13c7-4a8f-bf47-a91ec9909364","","null","<div style=""display: flex; justify-content: center; align-items: center;"">
                <img src=""images/causal/causal_series_1/causal_series_1_c.jpg"" style=""width: 300px; height: 300px;"" />
              </div>","null",""
"","","","","","html-button-response","86","370024","0.0-86.0","01C524F4D9874700A516E920E7F31BBC","e1eb30bf-aff8-48b4-b13b-727e2499fca0","61e1ec61-13c7-4a8f-bf47-a91ec9909364","","1395","
    <div style=""display: flex; justify-content: center; align-items: center;"">
      <img src=""images/red_deck_2.png"" style=""width: 300px; height: 300px; margin-right: 10px;"" />
      <img src=""images/blue_deck_1.png"" style=""width: 300px; height: 300px;"" />
    </div>","1","1"
"","","","","","html-keyboard-response","87","373032","0.0-87.0-1.0-0.0","01C524F4D9874700A516E920E7F31BBC","e1eb30bf-aff8-48b4-b13b-727e2499fca0","61e1ec61-13c7-4a8f-bf47-a91ec9909364","","null","<div style=""display: flex; justify-content: center; align-items: center;"">
                <img src=""images/semantic/semantic_series_18/semantic_series_18_d.jpg"" style=""width: 300px; height: 300px;"" />
              </div>","null",""
"","","","","","html-keyboard-response","88","376047","0.0-88.0","01C524F4D9874700A516E920E7F31BBC","e1eb30bf-aff8-48b4-b13b-727e2499fca0","61e1ec61-13c7-4a8f-bf47-a91ec9909364","","null","<div style=""display: flex; justify-content: center; align-items: center;"">
                <img src=""images/other/blank.jpg"" style=""width: 300px; height: 300px;"" />
              </div>","null",""
"","","","","","html-keyboard-response","89","379052","0.0-89.0","01C524F4D9874700A516E920E7F31BBC","e1eb30bf-aff8-48b4-b13b-727e2499fca0","61e1ec61-13c7-4a8f-bf47-a91ec9909364","","null","<div style=""display: flex; justify-content: center; align-items: center;"">
                <img src=""images/causal/causal_series_13/causal_series_13_a.jpg"" style=""width: 300px; height: 300px;"" />
              </div>","null",""
"","","","","","html-keyboard-response","90","382055","0.0-90.0","01C524F4D9874700A516E920E7F31BBC","e1eb30bf-aff8-48b4-b13b-727e2499fca0","61e1ec61-13c7-4a8f-bf47-a91ec9909364","","null","<div style=""display: flex; justify-content: center; align-items: center;"">
                <img src=""images/causal/causal_series_13/causal_series_13_b.jpg"" style=""width: 300px; height: 300px;"" />
              </div>","null",""
"","","","","","html-keyboard-response","91","385071","0.0-91.0","01C524F4D9874700A516E920E7F31BBC","e1eb30bf-aff8-48b4-b13b-727e2499fca0","61e1ec61-13c7-4a8f-bf47-a91ec9909364","","null","<div style=""display: flex; justify-content: center; align-items: center;"">
                <img src=""images/causal/causal_series_13/causal_series_13_c.jpg"" style=""width: 300px; height: 300px;"" />
              </div>","null",""
"","","","","","html-button-response","92","386730","0.0-92.0","01C524F4D9874700A516E920E7F31BBC","e1eb30bf-aff8-48b4-b13b-727e2499fca0","61e1ec61-13c7-4a8f-bf47-a91ec9909364","","1659","
    <div style=""display: flex; justify-content: center; align-items: center;"">
      <img src=""images/red_deck_2.png"" style=""width: 300px; height: 300px; margin-right: 10px;"" />
      <img src=""images/blue_deck_1.png"" style=""width: 300px; height: 300px;"" />
    </div>","1","1"
"","","","","","html-keyboard-response","93","389745","0.0-93.0-1.0-0.0","01C524F4D9874700A516E920E7F31BBC","e1eb30bf-aff8-48b4-b13b-727e2499fca0","61e1ec61-13c7-4a8f-bf47-a91ec9909364","","null","<div style=""display: flex; justify-content: center; align-items: center;"">
                <img src=""images/semantic/semantic_series_12/semantic_series_12_d.jpg"" style=""width: 300px; height: 300px;"" />
              </div>","null",""
"","","","","","html-keyboard-response","94","392749","0.0-94.0","01C524F4D9874700A516E920E7F31BBC","e1eb30bf-aff8-48b4-b13b-727e2499fca0","61e1ec61-13c7-4a8f-bf47-a91ec9909364","","null","<div style=""display: flex; justify-content: center; align-items: center;"">
                <img src=""images/other/blank.jpg"" style=""width: 300px; height: 300px;"" />
              </div>","null",""
"","","","","","html-keyboard-response","95","395755","0.0-95.0","01C524F4D9874700A516E920E7F31BBC","e1eb30bf-aff8-48b4-b13b-727e2499fca0","61e1ec61-13c7-4a8f-bf47-a91ec9909364","","null","<div style=""display: flex; justify-content: center; align-items: center;"">
                <img src=""images/causal/causal_series_15/causal_series_15_a.jpg"" style=""width: 300px; height: 300px;"" />
              </div>","null",""
"","","","","","html-keyboard-response","96","398759","0.0-96.0","01C524F4D9874700A516E920E7F31BBC","e1eb30bf-aff8-48b4-b13b-727e2499fca0","61e1ec61-13c7-4a8f-bf47-a91ec9909364","","null","<div style=""display: flex; justify-content: center; align-items: center;"">
                <img src=""images/causal/causal_series_15/causal_series_15_b.jpg"" style=""width: 300px; height: 300px;"" />
              </div>","null",""
"","","","","","html-keyboard-response","97","401763","0.0-97.0","01C524F4D9874700A516E920E7F31BBC","e1eb30bf-aff8-48b4-b13b-727e2499fca0","61e1ec61-13c7-4a8f-bf47-a91ec9909364","","null","<div style=""display: flex; justify-content: center; align-items: center;"">
                <img src=""images/causal/causal_series_15/causal_series_15_c.jpg"" style=""width: 300px; height: 300px;"" />
              </div>","null",""
"","","","","","html-button-response","98","403546","0.0-98.0","01C524F4D9874700A516E920E7F31BBC","e1eb30bf-aff8-48b4-b13b-727e2499fca0","61e1ec61-13c7-4a8f-bf47-a91ec9909364","","1782","
    <div style=""display: flex; justify-content: center; align-items: center;"">
      <img src=""images/red_deck_2.png"" style=""width: 300px; height: 300px; margin-right: 10px;"" />
      <img src=""images/blue_deck_1.png"" style=""width: 300px; height: 300px;"" />
    </div>","1","1"
"","","","","","html-keyboard-response","99","406549","0.0-99.0-1.0-0.0","01C524F4D9874700A516E920E7F31BBC","e1eb30bf-aff8-48b4-b13b-727e2499fca0","61e1ec61-13c7-4a8f-bf47-a91ec9909364","","null","<div style=""display: flex; justify-content: center; align-items: center;"">
                <img src=""images/semantic/semantic_series_14/semantic_series_14_d.jpg"" style=""width: 300px; height: 300px;"" />
              </div>","null",""
"","","","","","html-keyboard-response","100","409558","0.0-100.0","01C524F4D9874700A516E920E7F31BBC","e1eb30bf-aff8-48b4-b13b-727e2499fca0","61e1ec61-13c7-4a8f-bf47-a91ec9909364","","null","<div style=""display: flex; justify-content: center; align-items: center;"">
                <img src=""images/other/blank.jpg"" style=""width: 300px; height: 300px;"" />
              </div>","null",""
"","","","","","html-keyboard-response","101","412572","0.0-101.0","01C524F4D9874700A516E920E7F31BBC","e1eb30bf-aff8-48b4-b13b-727e2499fca0","61e1ec61-13c7-4a8f-bf47-a91ec9909364","","null","<div style=""display: flex; justify-content: center; align-items: center;"">
                <img src=""images/causal/causal_series_18/causal_series_18_a.jpg"" style=""width: 300px; height: 300px;"" />
              </div>","null",""
"","","","","","html-keyboard-response","102","415587","0.0-102.0","01C524F4D9874700A516E920E7F31BBC","e1eb30bf-aff8-48b4-b13b-727e2499fca0","61e1ec61-13c7-4a8f-bf47-a91ec9909364","","null","<div style=""display: flex; justify-content: center; align-items: center;"">
                <img src=""images/causal/causal_series_18/causal_series_18_b.jpg"" style=""width: 300px; height: 300px;"" />
              </div>","null",""
"","","","","","html-keyboard-response","103","418589","0.0-103.0","01C524F4D9874700A516E920E7F31BBC","e1eb30bf-aff8-48b4-b13b-727e2499fca0","61e1ec61-13c7-4a8f-bf47-a91ec9909364","","null","<div style=""display: flex; justify-content: center; align-items: center;"">
                <img src=""images/causal/causal_series_18/causal_series_18_c.jpg"" style=""width: 300px; height: 300px;"" />
              </div>","null",""
"","","","","","html-button-response","104","419520","0.0-104.0","01C524F4D9874700A516E920E7F31BBC","e1eb30bf-aff8-48b4-b13b-727e2499fca0","61e1ec61-13c7-4a8f-bf47-a91ec9909364","","930","
    <div style=""display: flex; justify-content: center; align-items: center;"">
      <img src=""images/red_deck_2.png"" style=""width: 300px; height: 300px; margin-right: 10px;"" />
      <img src=""images/blue_deck_1.png"" style=""width: 300px; height: 300px;"" />
    </div>","0","0"
"","","","","","html-keyboard-response","105","422531","0.0-105.0-0.0-0.0","01C524F4D9874700A516E920E7F31BBC","e1eb30bf-aff8-48b4-b13b-727e2499fca0","61e1ec61-13c7-4a8f-bf47-a91ec9909364","","null","<div style=""display: flex; justify-content: center; align-items: center;"">
                <img src=""images/causal/causal_series_18/causal_series_18_d.jpg"" style=""width: 300px; height: 300px;"" />
              </div>","null",""
"","","","","","html-keyboard-response","106","425535","0.0-106.0","01C524F4D9874700A516E920E7F31BBC","e1eb30bf-aff8-48b4-b13b-727e2499fca0","61e1ec61-13c7-4a8f-bf47-a91ec9909364","","null","<div style=""display: flex; justify-content: center; align-items: center;"">
                <img src=""images/other/blank.jpg"" style=""width: 300px; height: 300px;"" />
              </div>","null",""
"","","","","","html-keyboard-response","107","428551","0.0-107.0","01C524F4D9874700A516E920E7F31BBC","e1eb30bf-aff8-48b4-b13b-727e2499fca0","61e1ec61-13c7-4a8f-bf47-a91ec9909364","","null","<div style=""display: flex; justify-content: center; align-items: center;"">
                <img src=""images/causal/causal_series_14/causal_series_14_a.jpg"" style=""width: 300px; height: 300px;"" />
              </div>","null",""
"","","","","","html-keyboard-response","108","431565","0.0-108.0","01C524F4D9874700A516E920E7F31BBC","e1eb30bf-aff8-48b4-b13b-727e2499fca0","61e1ec61-13c7-4a8f-bf47-a91ec9909364","","null","<div style=""display: flex; justify-content: center; align-items: center;"">
                <img src=""images/causal/causal_series_14/causal_series_14_b.jpg"" style=""width: 300px; height: 300px;"" />
              </div>","null",""
"","","","","","html-keyboard-response","109","434566","0.0-109.0","01C524F4D9874700A516E920E7F31BBC","e1eb30bf-aff8-48b4-b13b-727e2499fca0","61e1ec61-13c7-4a8f-bf47-a91ec9909364","","null","<div style=""display: flex; justify-content: center; align-items: center;"">
                <img src=""images/causal/causal_series_14/causal_series_14_c.jpg"" style=""width: 300px; height: 300px;"" />
              </div>","null",""
"","","","","","html-button-response","110","436919","0.0-110.0","01C524F4D9874700A516E920E7F31BBC","e1eb30bf-aff8-48b4-b13b-727e2499fca0","61e1ec61-13c7-4a8f-bf47-a91ec9909364","","2352","
    <div style=""display: flex; justify-content: center; align-items: center;"">
      <img src=""images/red_deck_2.png"" style=""width: 300px; height: 300px; margin-right: 10px;"" />
      <img src=""images/blue_deck_1.png"" style=""width: 300px; height: 300px;"" />
    </div>","0","0"
"","","","","","html-keyboard-response","111","439934","0.0-111.0-0.0-0.0","01C524F4D9874700A516E920E7F31BBC","e1eb30bf-aff8-48b4-b13b-727e2499fca0","61e1ec61-13c7-4a8f-bf47-a91ec9909364","","null","<div style=""display: flex; justify-content: center; align-items: center;"">
                <img src=""images/causal/causal_series_14/causal_series_14_d.jpg"" style=""width: 300px; height: 300px;"" />
              </div>","null",""
"","","","","","html-keyboard-response","112","442947","0.0-112.0","01C524F4D9874700A516E920E7F31BBC","e1eb30bf-aff8-48b4-b13b-727e2499fca0","61e1ec61-13c7-4a8f-bf47-a91ec9909364","","null","<div style=""display: flex; justify-content: center; align-items: center;"">
                <img src=""images/other/blank.jpg"" style=""width: 300px; height: 300px;"" />
              </div>","null",""
"","","","","","survey-text","113","513145","0.0-113.0","01C524F4D9874700A516E920E7F31BBC","e1eb30bf-aff8-48b4-b13b-727e2499fca0","61e1ec61-13c7-4a8f-bf47-a91ec9909364","","70185","","{""Q0"":""It seems that red cards tended to match more often with the story. I think most or all of one had drawing images, and the other deck had mostly or all pictures of real things/people/etc. But I didn't think to count and confirm this""}",""
"","","","","","survey-text","114","528068","0.0-114.0","01C524F4D9874700A516E920E7F31BBC","e1eb30bf-aff8-48b4-b13b-727e2499fca0","61e1ec61-13c7-4a8f-bf47-a91ec9909364","","14918","","{""Q0"":""I liked the ones with cute drawings of animals better""}",""
"","","","","","html-button-response","115","542672","0.0-115.0","01C524F4D9874700A516E920E7F31BBC","e1eb30bf-aff8-48b4-b13b-727e2499fca0","61e1ec61-13c7-4a8f-bf47-a91ec9909364","","14604","Which color deck does the fourth image continue the story from the series?","1",""
"","","","","","html-button-response","116","544544","0.0-116.0","01C524F4D9874700A516E920E7F31BBC","e1eb30bf-aff8-48b4-b13b-727e2499fca0","61e1ec61-13c7-4a8f-bf47-a91ec9909364","","1871","Which color deck does the fourth image not follow the story from the series?","0",""
"","","","","","survey-text","117","552742","0.0-117.0","01C524F4D9874700A516E920E7F31BBC","e1eb30bf-aff8-48b4-b13b-727e2499fca0","61e1ec61-13c7-4a8f-bf47-a91ec9909364","","8194","","{""Q0"":""FEMALE"",""Q1"":""31""}",""
"","","","","","instructions","118","555810","0.0-118.0","01C524F4D9874700A516E920E7F31BBC","e1eb30bf-aff8-48b4-b13b-727e2499fca0","61e1ec61-13c7-4a8f-bf47-a91ec9909364","[{""page_index"":0,""viewing_time"":3067}]","3068","","",""
