"success","timeout","failed_images","failed_audio","failed_video","trial_type","trial_index","time_elapsed","internal_node_id","subject_id","study_id","session_id","view_history","rt","stimulus","response","choice"
"true","false","[]","[]","[]","preload","0","4982","0.0-0.0","E5F8E00AB92A461C8A0C309B4FBC50F0","fe1ad917-624b-488d-8186-ee5c51eee105","683bf07d-1a26-40b1-9cff-5abdc1eed0ee","","","","",""
"","","","","","instructions","1","8330","0.0-1.0","E5F8E00AB92A461C8A0C309B4FBC50F0","fe1ad917-624b-488d-8186-ee5c51eee105","683bf07d-1a26-40b1-9cff-5abdc1eed0ee","[{""page_index"":0,""viewing_time"":3347}]","3347","","",""
"","","","","","instructions","2","12093","0.0-2.0","E5F8E00AB92A461C8A0C309B4FBC50F0","fe1ad917-624b-488d-8186-ee5c51eee105","683bf07d-1a26-40b1-9cff-5abdc1eed0ee","[{""page_index"":0,""viewing_time"":3763}]","3763","","",""
"true","","","","","fullscreen","3","15336","0.0-3.0","E5F8E00AB92A461C8A0C309B4FBC50F0","fe1ad917-624b-488d-8186-ee5c51eee105","683bf07d-1a26-40b1-9cff-5abdc1eed0ee","","2235","","",""
"","","","","","instructions","4","21894","0.0-4.0","E5F8E00AB92A461C8A0C309B4FBC50F0","fe1ad917-624b-488d-8186-ee5c51eee105","683bf07d-1a26-40b1-9cff-5abdc1eed0ee","[{""page_index"":0,""viewing_time"":6557}]","6558","","",""
"","","","","","html-keyboard-response","5","24900","0.0-5.0","E5F8E00AB92A461C8A0C309B4FBC50F0","fe1ad917-624b-488d-8186-ee5c51eee105","683bf07d-1a26-40b1-9cff-5abdc1eed0ee","","null","<div style=""display: flex; justify-content: center; align-items: center;"">
                <img src=""images/causal/causal_series_14/causal_series_14_a.jpg"" style=""width: 300px; height: 300px;"" />
              </div>","null",""
"","","","","","html-keyboard-response","6","27913","0.0-6.0","E5F8E00AB92A461C8A0C309B4FBC50F0","fe1ad917-624b-488d-8186-ee5c51eee105","683bf07d-1a26-40b1-9cff-5abdc1eed0ee","","null","<div style=""display: flex; justify-content: center; align-items: center;"">
                <img src=""images/causal/causal_series_14/causal_series_14_b.jpg"" style=""width: 300px; height: 300px;"" />
              </div>","null",""
"","","","","","html-keyboard-response","7","30928","0.0-7.0","E5F8E00AB92A461C8A0C309B4FBC50F0","fe1ad917-624b-488d-8186-ee5c51eee105","683bf07d-1a26-40b1-9cff-5abdc1eed0ee","","null","<div style=""display: flex; justify-content: center; align-items: center;"">
                <img src=""images/causal/causal_series_14/causal_series_14_c.jpg"" style=""width: 300px; height: 300px;"" />
              </div>","null",""
"","","","","","html-button-response","8","34899","0.0-8.0","E5F8E00AB92A461C8A0C309B4FBC50F0","fe1ad917-624b-488d-8186-ee5c51eee105","683bf07d-1a26-40b1-9cff-5abdc1eed0ee","","3970","
    <div style=""display: flex; justify-content: center; align-items: center;"">
      <img src=""images/red_deck_2.png"" style=""width: 300px; height: 300px; margin-right: 10px;"" />
      <img src=""images/blue_deck_1.png"" style=""width: 300px; height: 300px;"" />
    </div>","0","0"
"","","","","","html-keyboard-response","9","37908","0.0-9.0-0.0-0.0","E5F8E00AB92A461C8A0C309B4FBC50F0","fe1ad917-624b-488d-8186-ee5c51eee105","683bf07d-1a26-40b1-9cff-5abdc1eed0ee","","null","<div style=""display: flex; justify-content: center; align-items: center;"">
                <img src=""images/causal/causal_series_14/causal_series_14_d.jpg"" style=""width: 300px; height: 300px;"" />
              </div>","null",""
"","","","","","html-keyboard-response","10","40921","0.0-10.0","E5F8E00AB92A461C8A0C309B4FBC50F0","fe1ad917-624b-488d-8186-ee5c51eee105","683bf07d-1a26-40b1-9cff-5abdc1eed0ee","","null","<div style=""display: flex; justify-content: center; align-items: center;"">
                <img src=""images/other/blank.jpg"" style=""width: 300px; height: 300px;"" />
              </div>","null",""
"","","","","","html-keyboard-response","11","43936","0.0-11.0","E5F8E00AB92A461C8A0C309B4FBC50F0","fe1ad917-624b-488d-8186-ee5c51eee105","683bf07d-1a26-40b1-9cff-5abdc1eed0ee","","null","<div style=""display: flex; justify-content: center; align-items: center;"">
                <img src=""images/causal/causal_series_5/causal_series_5_a.jpg"" style=""width: 300px; height: 300px;"" />
              </div>","null",""
"","","","","","html-keyboard-response","12","46949","0.0-12.0","E5F8E00AB92A461C8A0C309B4FBC50F0","fe1ad917-624b-488d-8186-ee5c51eee105","683bf07d-1a26-40b1-9cff-5abdc1eed0ee","","null","<div style=""display: flex; justify-content: center; align-items: center;"">
                <img src=""images/causal/causal_series_5/causal_series_5_b.jpg"" style=""width: 300px; height: 300px;"" />
              </div>","null",""
"","","","","","html-keyboard-response","13","49950","0.0-13.0","E5F8E00AB92A461C8A0C309B4FBC50F0","fe1ad917-624b-488d-8186-ee5c51eee105","683bf07d-1a26-40b1-9cff-5abdc1eed0ee","","null","<div style=""display: flex; justify-content: center; align-items: center;"">
                <img src=""images/causal/causal_series_5/causal_series_5_c.jpg"" style=""width: 300px; height: 300px;"" />
              </div>","null",""
"","","","","","html-button-response","14","51948","0.0-14.0","E5F8E00AB92A461C8A0C309B4FBC50F0","fe1ad917-624b-488d-8186-ee5c51eee105","683bf07d-1a26-40b1-9cff-5abdc1eed0ee","","1997","
    <div style=""display: flex; justify-content: center; align-items: center;"">
      <img src=""images/red_deck_2.png"" style=""width: 300px; height: 300px; margin-right: 10px;"" />
      <img src=""images/blue_deck_1.png"" style=""width: 300px; height: 300px;"" />
    </div>","1","1"
"","","","","","html-keyboard-response","15","54960","0.0-15.0-1.0-0.0","E5F8E00AB92A461C8A0C309B4FBC50F0","fe1ad917-624b-488d-8186-ee5c51eee105","683bf07d-1a26-40b1-9cff-5abdc1eed0ee","","null","<div style=""display: flex; justify-content: center; align-items: center;"">
                <img src=""images/semantic/semantic_series_4/semantic_series_4_d.jpg"" style=""width: 300px; height: 300px;"" />
              </div>","null",""
"","","","","","html-keyboard-response","16","57974","0.0-16.0","E5F8E00AB92A461C8A0C309B4FBC50F0","fe1ad917-624b-488d-8186-ee5c51eee105","683bf07d-1a26-40b1-9cff-5abdc1eed0ee","","null","<div style=""display: flex; justify-content: center; align-items: center;"">
                <img src=""images/other/blank.jpg"" style=""width: 300px; height: 300px;"" />
              </div>","null",""
"","","","","","html-keyboard-response","17","60988","0.0-17.0","E5F8E00AB92A461C8A0C309B4FBC50F0","fe1ad917-624b-488d-8186-ee5c51eee105","683bf07d-1a26-40b1-9cff-5abdc1eed0ee","","null","<div style=""display: flex; justify-content: center; align-items: center;"">
                <img src=""images/causal/causal_series_15/causal_series_15_a.jpg"" style=""width: 300px; height: 300px;"" />
              </div>","null",""
"","","","","","html-keyboard-response","18","64002","0.0-18.0","E5F8E00AB92A461C8A0C309B4FBC50F0","fe1ad917-624b-488d-8186-ee5c51eee105","683bf07d-1a26-40b1-9cff-5abdc1eed0ee","","null","<div style=""display: flex; justify-content: center; align-items: center;"">
                <img src=""images/causal/causal_series_15/causal_series_15_b.jpg"" style=""width: 300px; height: 300px;"" />
              </div>","null",""
"","","","","","html-keyboard-response","19","67016","0.0-19.0","E5F8E00AB92A461C8A0C309B4FBC50F0","fe1ad917-624b-488d-8186-ee5c51eee105","683bf07d-1a26-40b1-9cff-5abdc1eed0ee","","null","<div style=""display: flex; justify-content: center; align-items: center;"">
                <img src=""images/causal/causal_series_15/causal_series_15_c.jpg"" style=""width: 300px; height: 300px;"" />
              </div>","null",""
"","","","","","html-button-response","20","67874","0.0-20.0","E5F8E00AB92A461C8A0C309B4FBC50F0","fe1ad917-624b-488d-8186-ee5c51eee105","683bf07d-1a26-40b1-9cff-5abdc1eed0ee","","857","
    <div style=""display: flex; justify-content: center; align-items: center;"">
      <img src=""images/red_deck_2.png"" style=""width: 300px; height: 300px; margin-right: 10px;"" />
      <img src=""images/blue_deck_1.png"" style=""width: 300px; height: 300px;"" />
    </div>","1","1"
"","","","","","html-keyboard-response","21","70875","0.0-21.0-1.0-0.0","E5F8E00AB92A461C8A0C309B4FBC50F0","fe1ad917-624b-488d-8186-ee5c51eee105","683bf07d-1a26-40b1-9cff-5abdc1eed0ee","","null","<div style=""display: flex; justify-content: center; align-items: center;"">
                <img src=""images/semantic/semantic_series_14/semantic_series_14_d.jpg"" style=""width: 300px; height: 300px;"" />
              </div>","null",""
"","","","","","html-keyboard-response","22","73888","0.0-22.0","E5F8E00AB92A461C8A0C309B4FBC50F0","fe1ad917-624b-488d-8186-ee5c51eee105","683bf07d-1a26-40b1-9cff-5abdc1eed0ee","","null","<div style=""display: flex; justify-content: center; align-items: center;"">
                <img src=""images/other/blank.jpg"" style=""width: 300px; height: 300px;"" />
              </div>","null",""
"","","","","","html-keyboard-response","23","76902","0.0-23.0","E5F8E00AB92A461C8A0C309B4FBC50F0","fe1ad917-624b-488d-8186-ee5c51eee105","683bf07d-1a26-40b1-9cff-5abdc1eed0ee","","null","<div style=""display: flex; justify-content: center; align-items: center;"">
                <img src=""images/causal/causal_series_17/causal_series_17_a.jpg"" style=""width: 300px; height: 300px;"" />
              </div>","null",""
"","","","","","html-keyboard-response","24","79915","0.0-24.0","E5F8E00AB92A461C8A0C309B4FBC50F0","fe1ad917-624b-488d-8186-ee5c51eee105","683bf07d-1a26-40b1-9cff-5abdc1eed0ee","","null","<div style=""display: flex; justify-content: center; align-items: center;"">
                <img src=""images/causal/causal_series_17/causal_series_17_b.jpg"" style=""width: 300px; height: 300px;"" />
              </div>","null",""
"","","","","","html-keyboard-response","25","82929","0.0-25.0","E5F8E00AB92A461C8A0C309B4FBC50F0","fe1ad917-624b-488d-8186-ee5c51eee105","683bf07d-1a26-40b1-9cff-5abdc1eed0ee","","null","<div style=""display: flex; justify-content: center; align-items: center;"">
                <img src=""images/causal/causal_series_17/causal_series_17_c.jpg"" style=""width: 300px; height: 300px;"" />
              </div>","null",""
"","","","","","html-button-response","26","83562","0.0-26.0","E5F8E00AB92A461C8A0C309B4FBC50F0","fe1ad917-624b-488d-8186-ee5c51eee105","683bf07d-1a26-40b1-9cff-5abdc1eed0ee","","631","
    <div style=""display: flex; justify-content: center; align-items: center;"">
      <img src=""images/red_deck_2.png"" style=""width: 300px; height: 300px; margin-right: 10px;"" />
      <img src=""images/blue_deck_1.png"" style=""width: 300px; height: 300px;"" />
    </div>","0","0"
"","","","","","html-keyboard-response","27","86573","0.0-27.0-0.0-0.0","E5F8E00AB92A461C8A0C309B4FBC50F0","fe1ad917-624b-488d-8186-ee5c51eee105","683bf07d-1a26-40b1-9cff-5abdc1eed0ee","","null","<div style=""display: flex; justify-content: center; align-items: center;"">
                <img src=""images/causal/causal_series_17/causal_series_17_d.jpg"" style=""width: 300px; height: 300px;"" />
              </div>","null",""
"","","","","","html-keyboard-response","28","89588","0.0-28.0","E5F8E00AB92A461C8A0C309B4FBC50F0","fe1ad917-624b-488d-8186-ee5c51eee105","683bf07d-1a26-40b1-9cff-5abdc1eed0ee","","null","<div style=""display: flex; justify-content: center; align-items: center;"">
                <img src=""images/other/blank.jpg"" style=""width: 300px; height: 300px;"" />
              </div>","null",""
"","","","","","html-keyboard-response","29","92601","0.0-29.0","E5F8E00AB92A461C8A0C309B4FBC50F0","fe1ad917-624b-488d-8186-ee5c51eee105","683bf07d-1a26-40b1-9cff-5abdc1eed0ee","","null","<div style=""display: flex; justify-content: center; align-items: center;"">
                <img src=""images/causal/causal_series_12/causal_series_12_a.jpg"" style=""width: 300px; height: 300px;"" />
              </div>","null",""
"","","","","","html-keyboard-response","30","95614","0.0-30.0","E5F8E00AB92A461C8A0C309B4FBC50F0","fe1ad917-624b-488d-8186-ee5c51eee105","683bf07d-1a26-40b1-9cff-5abdc1eed0ee","","null","<div style=""display: flex; justify-content: center; align-items: center;"">
                <img src=""images/causal/causal_series_12/causal_series_12_b.jpg"" style=""width: 300px; height: 300px;"" />
              </div>","null",""
"","","","","","html-keyboard-response","31","98628","0.0-31.0","E5F8E00AB92A461C8A0C309B4FBC50F0","fe1ad917-624b-488d-8186-ee5c51eee105","683bf07d-1a26-40b1-9cff-5abdc1eed0ee","","null","<div style=""display: flex; justify-content: center; align-items: center;"">
                <img src=""images/causal/causal_series_12/causal_series_12_c.jpg"" style=""width: 300px; height: 300px;"" />
              </div>","null",""
"","","","","","html-button-response","32","99861","0.0-32.0","E5F8E00AB92A461C8A0C309B4FBC50F0","fe1ad917-624b-488d-8186-ee5c51eee105","683bf07d-1a26-40b1-9cff-5abdc1eed0ee","","1231","
    <div style=""display: flex; justify-content: center; align-items: center;"">
      <img src=""images/red_deck_2.png"" style=""width: 300px; height: 300px; margin-right: 10px;"" />
      <img src=""images/blue_deck_1.png"" style=""width: 300px; height: 300px;"" />
    </div>","0","0"
"","","","","","html-keyboard-response","33","102872","0.0-33.0-0.0-0.0","E5F8E00AB92A461C8A0C309B4FBC50F0","fe1ad917-624b-488d-8186-ee5c51eee105","683bf07d-1a26-40b1-9cff-5abdc1eed0ee","","null","<div style=""display: flex; justify-content: center; align-items: center;"">
                <img src=""images/causal/causal_series_12/causal_series_12_d.jpg"" style=""width: 300px; height: 300px;"" />
              </div>","null",""
"","","","","","html-keyboard-response","34","105886","0.0-34.0","E5F8E00AB92A461C8A0C309B4FBC50F0","fe1ad917-624b-488d-8186-ee5c51eee105","683bf07d-1a26-40b1-9cff-5abdc1eed0ee","","null","<div style=""display: flex; justify-content: center; align-items: center;"">
                <img src=""images/other/blank.jpg"" style=""width: 300px; height: 300px;"" />
              </div>","null",""
"","","","","","html-keyboard-response","35","108900","0.0-35.0","E5F8E00AB92A461C8A0C309B4FBC50F0","fe1ad917-624b-488d-8186-ee5c51eee105","683bf07d-1a26-40b1-9cff-5abdc1eed0ee","","null","<div style=""display: flex; justify-content: center; align-items: center;"">
                <img src=""images/causal/causal_series_1/causal_series_1_a.jpg"" style=""width: 300px; height: 300px;"" />
              </div>","null",""
"","","","","","html-keyboard-response","36","111914","0.0-36.0","E5F8E00AB92A461C8A0C309B4FBC50F0","fe1ad917-624b-488d-8186-ee5c51eee105","683bf07d-1a26-40b1-9cff-5abdc1eed0ee","","null","<div style=""display: flex; justify-content: center; align-items: center;"">
                <img src=""images/causal/causal_series_1/causal_series_1_b.jpg"" style=""width: 300px; height: 300px;"" />
              </div>","null",""
"","","","","","html-keyboard-response","37","114915","0.0-37.0","E5F8E00AB92A461C8A0C309B4FBC50F0","fe1ad917-624b-488d-8186-ee5c51eee105","683bf07d-1a26-40b1-9cff-5abdc1eed0ee","","null","<div style=""display: flex; justify-content: center; align-items: center;"">
                <img src=""images/causal/causal_series_1/causal_series_1_c.jpg"" style=""width: 300px; height: 300px;"" />
              </div>","null",""
"","","","","","html-button-response","38","115551","0.0-38.0","E5F8E00AB92A461C8A0C309B4FBC50F0","fe1ad917-624b-488d-8186-ee5c51eee105","683bf07d-1a26-40b1-9cff-5abdc1eed0ee","","635","
    <div style=""display: flex; justify-content: center; align-items: center;"">
      <img src=""images/red_deck_2.png"" style=""width: 300px; height: 300px; margin-right: 10px;"" />
      <img src=""images/blue_deck_1.png"" style=""width: 300px; height: 300px;"" />
    </div>","1","1"
"","","","","","html-keyboard-response","39","118556","0.0-39.0-1.0-0.0","E5F8E00AB92A461C8A0C309B4FBC50F0","fe1ad917-624b-488d-8186-ee5c51eee105","683bf07d-1a26-40b1-9cff-5abdc1eed0ee","","null","<div style=""display: flex; justify-content: center; align-items: center;"">
                <img src=""images/semantic/semantic_series_18/semantic_series_18_d.jpg"" style=""width: 300px; height: 300px;"" />
              </div>","null",""
"","","","","","html-keyboard-response","40","121570","0.0-40.0","E5F8E00AB92A461C8A0C309B4FBC50F0","fe1ad917-624b-488d-8186-ee5c51eee105","683bf07d-1a26-40b1-9cff-5abdc1eed0ee","","null","<div style=""display: flex; justify-content: center; align-items: center;"">
                <img src=""images/other/blank.jpg"" style=""width: 300px; height: 300px;"" />
              </div>","null",""
"","","","","","html-keyboard-response","41","124583","0.0-41.0","E5F8E00AB92A461C8A0C309B4FBC50F0","fe1ad917-624b-488d-8186-ee5c51eee105","683bf07d-1a26-40b1-9cff-5abdc1eed0ee","","null","<div style=""display: flex; justify-content: center; align-items: center;"">
                <img src=""images/causal/causal_series_2/causal_series_2_a.jpg"" style=""width: 300px; height: 300px;"" />
              </div>","null",""
"","","","","","html-keyboard-response","42","127597","0.0-42.0","E5F8E00AB92A461C8A0C309B4FBC50F0","fe1ad917-624b-488d-8186-ee5c51eee105","683bf07d-1a26-40b1-9cff-5abdc1eed0ee","","null","<div style=""display: flex; justify-content: center; align-items: center;"">
                <img src=""images/causal/causal_series_2/causal_series_2_b.jpg"" style=""width: 300px; height: 300px;"" />
              </div>","null",""
"","","","","","html-keyboard-response","43","130599","0.0-43.0","E5F8E00AB92A461C8A0C309B4FBC50F0","fe1ad917-624b-488d-8186-ee5c51eee105","683bf07d-1a26-40b1-9cff-5abdc1eed0ee","","null","<div style=""display: flex; justify-content: center; align-items: center;"">
                <img src=""images/causal/causal_series_2/causal_series_2_c.jpg"" style=""width: 300px; height: 300px;"" />
              </div>","null",""
"","","","","","html-button-response","44","131175","0.0-44.0","E5F8E00AB92A461C8A0C309B4FBC50F0","fe1ad917-624b-488d-8186-ee5c51eee105","683bf07d-1a26-40b1-9cff-5abdc1eed0ee","","574","
    <div style=""display: flex; justify-content: center; align-items: center;"">
      <img src=""images/red_deck_2.png"" style=""width: 300px; height: 300px; margin-right: 10px;"" />
      <img src=""images/blue_deck_1.png"" style=""width: 300px; height: 300px;"" />
    </div>","1","1"
"","","","","","html-keyboard-response","45","134178","0.0-45.0-1.0-0.0","E5F8E00AB92A461C8A0C309B4FBC50F0","fe1ad917-624b-488d-8186-ee5c51eee105","683bf07d-1a26-40b1-9cff-5abdc1eed0ee","","null","<div style=""display: flex; justify-content: center; align-items: center;"">
                <img src=""images/semantic/semantic_series_1/semantic_series_1_d.jpg"" style=""width: 300px; height: 300px;"" />
              </div>","null",""
"","","","","","html-keyboard-response","46","137192","0.0-46.0","E5F8E00AB92A461C8A0C309B4FBC50F0","fe1ad917-624b-488d-8186-ee5c51eee105","683bf07d-1a26-40b1-9cff-5abdc1eed0ee","","null","<div style=""display: flex; justify-content: center; align-items: center;"">
                <img src=""images/other/blank.jpg"" style=""width: 300px; height: 300px;"" />
              </div>","null",""
"","","","","","html-keyboard-response","47","140206","0.0-47.0","E5F8E00AB92A461C8A0C309B4FBC50F0","fe1ad917-624b-488d-8186-ee5c51eee105","683bf07d-1a26-40b1-9cff-5abdc1eed0ee","","null","<div style=""display: flex; justify-content: center; align-items: center;"">
                <img src=""images/causal/causal_series_11/causal_series_11_a.jpg"" style=""width: 300px; height: 300px;"" />
              </div>","null",""
"","","","","","html-keyboard-response","48","143207","0.0-48.0","E5F8E00AB92A461C8A0C309B4FBC50F0","fe1ad917-624b-488d-8186-ee5c51eee105","683bf07d-1a26-40b1-9cff-5abdc1eed0ee","","null","<div style=""display: flex; justify-content: center; align-items: center;"">
                <img src=""images/causal/causal_series_11/causal_series_11_b.jpg"" style=""width: 300px; height: 300px;"" />
              </div>","null",""
"","","","","","html-keyboard-response","49","146208","0.0-49.0","E5F8E00AB92A461C8A0C309B4FBC50F0","fe1ad917-624b-488d-8186-ee5c51eee105","683bf07d-1a26-40b1-9cff-5abdc1eed0ee","","null","<div style=""display: flex; justify-content: center; align-items: center;"">
                <img src=""images/causal/causal_series_11/causal_series_11_c.jpg"" style=""width: 300px; height: 300px;"" />
              </div>","null",""
"","","","","","html-button-response","50","146769","0.0-50.0","E5F8E00AB92A461C8A0C309B4FBC50F0","fe1ad917-624b-488d-8186-ee5c51eee105","683bf07d-1a26-40b1-9cff-5abdc1eed0ee","","560","
    <div style=""display: flex; justify-content: center; align-items: center;"">
      <img src=""images/red_deck_2.png"" style=""width: 300px; height: 300px; margin-right: 10px;"" />
      <img src=""images/blue_deck_1.png"" style=""width: 300px; height: 300px;"" />
    </div>","0","0"
"","","","","","html-keyboard-response","51","149785","0.0-51.0-0.0-0.0","E5F8E00AB92A461C8A0C309B4FBC50F0","fe1ad917-624b-488d-8186-ee5c51eee105","683bf07d-1a26-40b1-9cff-5abdc1eed0ee","","null","<div style=""display: flex; justify-content: center; align-items: center;"">
                <img src=""images/causal/causal_series_11/causal_series_11_d.jpg"" style=""width: 300px; height: 300px;"" />
              </div>","null",""
"","","","","","html-keyboard-response","52","152799","0.0-52.0","E5F8E00AB92A461C8A0C309B4FBC50F0","fe1ad917-624b-488d-8186-ee5c51eee105","683bf07d-1a26-40b1-9cff-5abdc1eed0ee","","null","<div style=""display: flex; justify-content: center; align-items: center;"">
                <img src=""images/other/blank.jpg"" style=""width: 300px; height: 300px;"" />
              </div>","null",""
"","","","","","html-keyboard-response","53","155812","0.0-53.0","E5F8E00AB92A461C8A0C309B4FBC50F0","fe1ad917-624b-488d-8186-ee5c51eee105","683bf07d-1a26-40b1-9cff-5abdc1eed0ee","","null","<div style=""display: flex; justify-content: center; align-items: center;"">
                <img src=""images/causal/causal_series_13/causal_series_13_a.jpg"" style=""width: 300px; height: 300px;"" />
              </div>","null",""
"","","","","","html-keyboard-response","54","158826","0.0-54.0","E5F8E00AB92A461C8A0C309B4FBC50F0","fe1ad917-624b-488d-8186-ee5c51eee105","683bf07d-1a26-40b1-9cff-5abdc1eed0ee","","null","<div style=""display: flex; justify-content: center; align-items: center;"">
                <img src=""images/causal/causal_series_13/causal_series_13_b.jpg"" style=""width: 300px; height: 300px;"" />
              </div>","null",""
"","","","","","html-keyboard-response","55","161828","0.0-55.0","E5F8E00AB92A461C8A0C309B4FBC50F0","fe1ad917-624b-488d-8186-ee5c51eee105","683bf07d-1a26-40b1-9cff-5abdc1eed0ee","","null","<div style=""display: flex; justify-content: center; align-items: center;"">
                <img src=""images/causal/causal_series_13/causal_series_13_c.jpg"" style=""width: 300px; height: 300px;"" />
              </div>","null",""
"","","","","","html-button-response","56","162303","0.0-56.0","E5F8E00AB92A461C8A0C309B4FBC50F0","fe1ad917-624b-488d-8186-ee5c51eee105","683bf07d-1a26-40b1-9cff-5abdc1eed0ee","","474","
    <div style=""display: flex; justify-content: center; align-items: center;"">
      <img src=""images/red_deck_2.png"" style=""width: 300px; height: 300px; margin-right: 10px;"" />
      <img src=""images/blue_deck_1.png"" style=""width: 300px; height: 300px;"" />
    </div>","1","1"
"","","","","","html-keyboard-response","57","165314","0.0-57.0-1.0-0.0","E5F8E00AB92A461C8A0C309B4FBC50F0","fe1ad917-624b-488d-8186-ee5c51eee105","683bf07d-1a26-40b1-9cff-5abdc1eed0ee","","null","<div style=""display: flex; justify-content: center; align-items: center;"">
                <img src=""images/semantic/semantic_series_12/semantic_series_12_d.jpg"" style=""width: 300px; height: 300px;"" />
              </div>","null",""
"","","","","","html-keyboard-response","58","168328","0.0-58.0","E5F8E00AB92A461C8A0C309B4FBC50F0","fe1ad917-624b-488d-8186-ee5c51eee105","683bf07d-1a26-40b1-9cff-5abdc1eed0ee","","null","<div style=""display: flex; justify-content: center; align-items: center;"">
                <img src=""images/other/blank.jpg"" style=""width: 300px; height: 300px;"" />
              </div>","null",""
"","","","","","html-keyboard-response","59","171342","0.0-59.0","E5F8E00AB92A461C8A0C309B4FBC50F0","fe1ad917-624b-488d-8186-ee5c51eee105","683bf07d-1a26-40b1-9cff-5abdc1eed0ee","","null","<div style=""display: flex; justify-content: center; align-items: center;"">
                <img src=""images/causal/causal_series_18/causal_series_18_a.jpg"" style=""width: 300px; height: 300px;"" />
              </div>","null",""
"","","","","","html-keyboard-response","60","174356","0.0-60.0","E5F8E00AB92A461C8A0C309B4FBC50F0","fe1ad917-624b-488d-8186-ee5c51eee105","683bf07d-1a26-40b1-9cff-5abdc1eed0ee","","null","<div style=""display: flex; justify-content: center; align-items: center;"">
                <img src=""images/causal/causal_series_18/causal_series_18_b.jpg"" style=""width: 300px; height: 300px;"" />
              </div>","null",""
"","","","","","html-keyboard-response","61","177369","0.0-61.0","E5F8E00AB92A461C8A0C309B4FBC50F0","fe1ad917-624b-488d-8186-ee5c51eee105","683bf07d-1a26-40b1-9cff-5abdc1eed0ee","","null","<div style=""display: flex; justify-content: center; align-items: center;"">
                <img src=""images/causal/causal_series_18/causal_series_18_c.jpg"" style=""width: 300px; height: 300px;"" />
              </div>","null",""
"","","","","","html-button-response","62","179439","0.0-62.0","E5F8E00AB92A461C8A0C309B4FBC50F0","fe1ad917-624b-488d-8186-ee5c51eee105","683bf07d-1a26-40b1-9cff-5abdc1eed0ee","","2068","
    <div style=""display: flex; justify-content: center; align-items: center;"">
      <img src=""images/red_deck_2.png"" style=""width: 300px; height: 300px; margin-right: 10px;"" />
      <img src=""images/blue_deck_1.png"" style=""width: 300px; height: 300px;"" />
    </div>","1","1"
"","","","","","html-keyboard-response","63","182443","0.0-63.0-1.0-0.0","E5F8E00AB92A461C8A0C309B4FBC50F0","fe1ad917-624b-488d-8186-ee5c51eee105","683bf07d-1a26-40b1-9cff-5abdc1eed0ee","","null","<div style=""display: flex; justify-content: center; align-items: center;"">
                <img src=""images/semantic/semantic_series_17/semantic_series_17_d.jpg"" style=""width: 300px; height: 300px;"" />
              </div>","null",""
"","","","","","html-keyboard-response","64","185457","0.0-64.0","E5F8E00AB92A461C8A0C309B4FBC50F0","fe1ad917-624b-488d-8186-ee5c51eee105","683bf07d-1a26-40b1-9cff-5abdc1eed0ee","","null","<div style=""display: flex; justify-content: center; align-items: center;"">
                <img src=""images/other/blank.jpg"" style=""width: 300px; height: 300px;"" />
              </div>","null",""
"","","","","","html-keyboard-response","65","188471","0.0-65.0","E5F8E00AB92A461C8A0C309B4FBC50F0","fe1ad917-624b-488d-8186-ee5c51eee105","683bf07d-1a26-40b1-9cff-5abdc1eed0ee","","null","<div style=""display: flex; justify-content: center; align-items: center;"">
                <img src=""images/causal/causal_series_9/causal_series_9_a.jpg"" style=""width: 300px; height: 300px;"" />
              </div>","null",""
"","","","","","html-keyboard-response","66","191484","0.0-66.0","E5F8E00AB92A461C8A0C309B4FBC50F0","fe1ad917-624b-488d-8186-ee5c51eee105","683bf07d-1a26-40b1-9cff-5abdc1eed0ee","","null","<div style=""display: flex; justify-content: center; align-items: center;"">
                <img src=""images/causal/causal_series_9/causal_series_9_b.jpg"" style=""width: 300px; height: 300px;"" />
              </div>","null",""
"","","","","","html-keyboard-response","67","194499","0.0-67.0","E5F8E00AB92A461C8A0C309B4FBC50F0","fe1ad917-624b-488d-8186-ee5c51eee105","683bf07d-1a26-40b1-9cff-5abdc1eed0ee","","null","<div style=""display: flex; justify-content: center; align-items: center;"">
                <img src=""images/causal/causal_series_9/causal_series_9_c.jpg"" style=""width: 300px; height: 300px;"" />
              </div>","null",""
"","","","","","html-button-response","68","195191","0.0-68.0","E5F8E00AB92A461C8A0C309B4FBC50F0","fe1ad917-624b-488d-8186-ee5c51eee105","683bf07d-1a26-40b1-9cff-5abdc1eed0ee","","692","
    <div style=""display: flex; justify-content: center; align-items: center;"">
      <img src=""images/red_deck_2.png"" style=""width: 300px; height: 300px; margin-right: 10px;"" />
      <img src=""images/blue_deck_1.png"" style=""width: 300px; height: 300px;"" />
    </div>","1","1"
"","","","","","html-keyboard-response","69","198501","0.0-69.0-1.0-0.0","E5F8E00AB92A461C8A0C309B4FBC50F0","fe1ad917-624b-488d-8186-ee5c51eee105","683bf07d-1a26-40b1-9cff-5abdc1eed0ee","","null","<div style=""display: flex; justify-content: center; align-items: center;"">
                <img src=""images/semantic/semantic_series_8/semantic_series_8_d.jpg"" style=""width: 300px; height: 300px;"" />
              </div>","null",""
"","","","","","html-keyboard-response","70","202500","0.0-70.0","E5F8E00AB92A461C8A0C309B4FBC50F0","fe1ad917-624b-488d-8186-ee5c51eee105","683bf07d-1a26-40b1-9cff-5abdc1eed0ee","","null","<div style=""display: flex; justify-content: center; align-items: center;"">
                <img src=""images/other/blank.jpg"" style=""width: 300px; height: 300px;"" />
              </div>","null",""
"","","","","","html-keyboard-response","71","206491","0.0-71.0","E5F8E00AB92A461C8A0C309B4FBC50F0","fe1ad917-624b-488d-8186-ee5c51eee105","683bf07d-1a26-40b1-9cff-5abdc1eed0ee","","null","<div style=""display: flex; justify-content: center; align-items: center;"">
                <img src=""images/causal/causal_series_10/causal_series_10_a.jpg"" style=""width: 300px; height: 300px;"" />
              </div>","null",""
"","","","","","html-keyboard-response","72","209506","0.0-72.0","E5F8E00AB92A461C8A0C309B4FBC50F0","fe1ad917-624b-488d-8186-ee5c51eee105","683bf07d-1a26-40b1-9cff-5abdc1eed0ee","","null","<div style=""display: flex; justify-content: center; align-items: center;"">
                <img src=""images/causal/causal_series_10/causal_series_10_b.jpg"" style=""width: 300px; height: 300px;"" />
              </div>","null",""
"","","","","","html-keyboard-response","73","212519","0.0-73.0","E5F8E00AB92A461C8A0C309B4FBC50F0","fe1ad917-624b-488d-8186-ee5c51eee105","683bf07d-1a26-40b1-9cff-5abdc1eed0ee","","null","<div style=""display: flex; justify-content: center; align-items: center;"">
                <img src=""images/causal/causal_series_10/causal_series_10_c.jpg"" style=""width: 300px; height: 300px;"" />
              </div>","null",""
"","","","","","html-button-response","74","213780","0.0-74.0","E5F8E00AB92A461C8A0C309B4FBC50F0","fe1ad917-624b-488d-8186-ee5c51eee105","683bf07d-1a26-40b1-9cff-5abdc1eed0ee","","1261","
    <div style=""display: flex; justify-content: center; align-items: center;"">
      <img src=""images/red_deck_2.png"" style=""width: 300px; height: 300px; margin-right: 10px;"" />
      <img src=""images/blue_deck_1.png"" style=""width: 300px; height: 300px;"" />
    </div>","1","1"
"","","","","","html-keyboard-response","75","216793","0.0-75.0-1.0-0.0","E5F8E00AB92A461C8A0C309B4FBC50F0","fe1ad917-624b-488d-8186-ee5c51eee105","683bf07d-1a26-40b1-9cff-5abdc1eed0ee","","null","<div style=""display: flex; justify-content: center; align-items: center;"">
                <img src=""images/semantic/semantic_series_9/semantic_series_9_d.jpg"" style=""width: 300px; height: 300px;"" />
              </div>","null",""
"","","","","","html-keyboard-response","76","219807","0.0-76.0","E5F8E00AB92A461C8A0C309B4FBC50F0","fe1ad917-624b-488d-8186-ee5c51eee105","683bf07d-1a26-40b1-9cff-5abdc1eed0ee","","null","<div style=""display: flex; justify-content: center; align-items: center;"">
                <img src=""images/other/blank.jpg"" style=""width: 300px; height: 300px;"" />
              </div>","null",""
"","","","","","html-keyboard-response","77","222820","0.0-77.0","E5F8E00AB92A461C8A0C309B4FBC50F0","fe1ad917-624b-488d-8186-ee5c51eee105","683bf07d-1a26-40b1-9cff-5abdc1eed0ee","","null","<div style=""display: flex; justify-content: center; align-items: center;"">
                <img src=""images/causal/causal_series_6/causal_series_6_a.jpg"" style=""width: 300px; height: 300px;"" />
              </div>","null",""
"","","","","","html-keyboard-response","78","225834","0.0-78.0","E5F8E00AB92A461C8A0C309B4FBC50F0","fe1ad917-624b-488d-8186-ee5c51eee105","683bf07d-1a26-40b1-9cff-5abdc1eed0ee","","null","<div style=""display: flex; justify-content: center; align-items: center;"">
                <img src=""images/causal/causal_series_6/causal_series_6_b.jpg"" style=""width: 300px; height: 300px;"" />
              </div>","null",""
"","","","","","html-keyboard-response","79","228848","0.0-79.0","E5F8E00AB92A461C8A0C309B4FBC50F0","fe1ad917-624b-488d-8186-ee5c51eee105","683bf07d-1a26-40b1-9cff-5abdc1eed0ee","","null","<div style=""display: flex; justify-content: center; align-items: center;"">
                <img src=""images/causal/causal_series_6/causal_series_6_c.jpg"" style=""width: 300px; height: 300px;"" />
              </div>","null",""
"","","","","","html-button-response","80","229959","0.0-80.0","E5F8E00AB92A461C8A0C309B4FBC50F0","fe1ad917-624b-488d-8186-ee5c51eee105","683bf07d-1a26-40b1-9cff-5abdc1eed0ee","","1111","
    <div style=""display: flex; justify-content: center; align-items: center;"">
      <img src=""images/red_deck_2.png"" style=""width: 300px; height: 300px; margin-right: 10px;"" />
      <img src=""images/blue_deck_1.png"" style=""width: 300px; height: 300px;"" />
    </div>","1","1"
"","","","","","html-keyboard-response","81","232969","0.0-81.0-1.0-0.0","E5F8E00AB92A461C8A0C309B4FBC50F0","fe1ad917-624b-488d-8186-ee5c51eee105","683bf07d-1a26-40b1-9cff-5abdc1eed0ee","","null","<div style=""display: flex; justify-content: center; align-items: center;"">
                <img src=""images/semantic/semantic_series_5/semantic_series_5_d.jpg"" style=""width: 300px; height: 300px;"" />
              </div>","null",""
"","","","","","html-keyboard-response","82","235982","0.0-82.0","E5F8E00AB92A461C8A0C309B4FBC50F0","fe1ad917-624b-488d-8186-ee5c51eee105","683bf07d-1a26-40b1-9cff-5abdc1eed0ee","","null","<div style=""display: flex; justify-content: center; align-items: center;"">
                <img src=""images/other/blank.jpg"" style=""width: 300px; height: 300px;"" />
              </div>","null",""
"","","","","","html-keyboard-response","83","238996","0.0-83.0","E5F8E00AB92A461C8A0C309B4FBC50F0","fe1ad917-624b-488d-8186-ee5c51eee105","683bf07d-1a26-40b1-9cff-5abdc1eed0ee","","null","<div style=""display: flex; justify-content: center; align-items: center;"">
                <img src=""images/causal/causal_series_8/causal_series_8_a.jpg"" style=""width: 300px; height: 300px;"" />
              </div>","null",""
"","","","","","html-keyboard-response","84","242010","0.0-84.0","E5F8E00AB92A461C8A0C309B4FBC50F0","fe1ad917-624b-488d-8186-ee5c51eee105","683bf07d-1a26-40b1-9cff-5abdc1eed0ee","","null","<div style=""display: flex; justify-content: center; align-items: center;"">
                <img src=""images/causal/causal_series_8/causal_series_8_b.jpg"" style=""width: 300px; height: 300px;"" />
              </div>","null",""
"","","","","","html-keyboard-response","85","245024","0.0-85.0","E5F8E00AB92A461C8A0C309B4FBC50F0","fe1ad917-624b-488d-8186-ee5c51eee105","683bf07d-1a26-40b1-9cff-5abdc1eed0ee","","null","<div style=""display: flex; justify-content: center; align-items: center;"">
                <img src=""images/causal/causal_series_8/causal_series_8_c.jpg"" style=""width: 300px; height: 300px;"" />
              </div>","null",""
"","","","","","html-button-response","86","246288","0.0-86.0","E5F8E00AB92A461C8A0C309B4FBC50F0","fe1ad917-624b-488d-8186-ee5c51eee105","683bf07d-1a26-40b1-9cff-5abdc1eed0ee","","1264","
    <div style=""display: flex; justify-content: center; align-items: center;"">
      <img src=""images/red_deck_2.png"" style=""width: 300px; height: 300px; margin-right: 10px;"" />
      <img src=""images/blue_deck_1.png"" style=""width: 300px; height: 300px;"" />
    </div>","1","1"
"","","","","","html-keyboard-response","87","249298","0.0-87.0-1.0-0.0","E5F8E00AB92A461C8A0C309B4FBC50F0","fe1ad917-624b-488d-8186-ee5c51eee105","683bf07d-1a26-40b1-9cff-5abdc1eed0ee","","null","<div style=""display: flex; justify-content: center; align-items: center;"">
                <img src=""images/semantic/semantic_series_7/semantic_series_7_d.jpg"" style=""width: 300px; height: 300px;"" />
              </div>","null",""
"","","","","","html-keyboard-response","88","252312","0.0-88.0","E5F8E00AB92A461C8A0C309B4FBC50F0","fe1ad917-624b-488d-8186-ee5c51eee105","683bf07d-1a26-40b1-9cff-5abdc1eed0ee","","null","<div style=""display: flex; justify-content: center; align-items: center;"">
                <img src=""images/other/blank.jpg"" style=""width: 300px; height: 300px;"" />
              </div>","null",""
"","","","","","html-keyboard-response","89","255325","0.0-89.0","E5F8E00AB92A461C8A0C309B4FBC50F0","fe1ad917-624b-488d-8186-ee5c51eee105","683bf07d-1a26-40b1-9cff-5abdc1eed0ee","","null","<div style=""display: flex; justify-content: center; align-items: center;"">
                <img src=""images/causal/causal_series_3/causal_series_3_a.jpg"" style=""width: 300px; height: 300px;"" />
              </div>","null",""
"","","","","","html-keyboard-response","90","258339","0.0-90.0","E5F8E00AB92A461C8A0C309B4FBC50F0","fe1ad917-624b-488d-8186-ee5c51eee105","683bf07d-1a26-40b1-9cff-5abdc1eed0ee","","null","<div style=""display: flex; justify-content: center; align-items: center;"">
                <img src=""images/causal/causal_series_3/causal_series_3_b.jpg"" style=""width: 300px; height: 300px;"" />
              </div>","null",""
"","","","","","html-keyboard-response","91","261353","0.0-91.0","E5F8E00AB92A461C8A0C309B4FBC50F0","fe1ad917-624b-488d-8186-ee5c51eee105","683bf07d-1a26-40b1-9cff-5abdc1eed0ee","","null","<div style=""display: flex; justify-content: center; align-items: center;"">
                <img src=""images/causal/causal_series_3/causal_series_3_c.jpg"" style=""width: 300px; height: 300px;"" />
              </div>","null",""
"","","","","","html-button-response","92","263263","0.0-92.0","E5F8E00AB92A461C8A0C309B4FBC50F0","fe1ad917-624b-488d-8186-ee5c51eee105","683bf07d-1a26-40b1-9cff-5abdc1eed0ee","","1909","
    <div style=""display: flex; justify-content: center; align-items: center;"">
      <img src=""images/red_deck_2.png"" style=""width: 300px; height: 300px; margin-right: 10px;"" />
      <img src=""images/blue_deck_1.png"" style=""width: 300px; height: 300px;"" />
    </div>","0","0"
"","","","","","html-keyboard-response","93","266273","0.0-93.0-0.0-0.0","E5F8E00AB92A461C8A0C309B4FBC50F0","fe1ad917-624b-488d-8186-ee5c51eee105","683bf07d-1a26-40b1-9cff-5abdc1eed0ee","","null","<div style=""display: flex; justify-content: center; align-items: center;"">
                <img src=""images/causal/causal_series_3/causal_series_3_d.jpg"" style=""width: 300px; height: 300px;"" />
              </div>","null",""
"","","","","","html-keyboard-response","94","269286","0.0-94.0","E5F8E00AB92A461C8A0C309B4FBC50F0","fe1ad917-624b-488d-8186-ee5c51eee105","683bf07d-1a26-40b1-9cff-5abdc1eed0ee","","null","<div style=""display: flex; justify-content: center; align-items: center;"">
                <img src=""images/other/blank.jpg"" style=""width: 300px; height: 300px;"" />
              </div>","null",""
"","","","","","html-keyboard-response","95","272300","0.0-95.0","E5F8E00AB92A461C8A0C309B4FBC50F0","fe1ad917-624b-488d-8186-ee5c51eee105","683bf07d-1a26-40b1-9cff-5abdc1eed0ee","","null","<div style=""display: flex; justify-content: center; align-items: center;"">
                <img src=""images/causal/causal_series_16/causal_series_16_a.jpg"" style=""width: 300px; height: 300px;"" />
              </div>","null",""
"","","","","","html-keyboard-response","96","275314","0.0-96.0","E5F8E00AB92A461C8A0C309B4FBC50F0","fe1ad917-624b-488d-8186-ee5c51eee105","683bf07d-1a26-40b1-9cff-5abdc1eed0ee","","null","<div style=""display: flex; justify-content: center; align-items: center;"">
                <img src=""images/causal/causal_series_16/causal_series_16_b.jpg"" style=""width: 300px; height: 300px;"" />
              </div>","null",""
"","","","","","html-keyboard-response","97","278327","0.0-97.0","E5F8E00AB92A461C8A0C309B4FBC50F0","fe1ad917-624b-488d-8186-ee5c51eee105","683bf07d-1a26-40b1-9cff-5abdc1eed0ee","","null","<div style=""display: flex; justify-content: center; align-items: center;"">
                <img src=""images/causal/causal_series_16/causal_series_16_c.jpg"" style=""width: 300px; height: 300px;"" />
              </div>","null",""
"","","","","","html-button-response","98","279269","0.0-98.0","E5F8E00AB92A461C8A0C309B4FBC50F0","fe1ad917-624b-488d-8186-ee5c51eee105","683bf07d-1a26-40b1-9cff-5abdc1eed0ee","","941","
    <div style=""display: flex; justify-content: center; align-items: center;"">
      <img src=""images/red_deck_2.png"" style=""width: 300px; height: 300px; margin-right: 10px;"" />
      <img src=""images/blue_deck_1.png"" style=""width: 300px; height: 300px;"" />
    </div>","1","1"
"","","","","","html-keyboard-response","99","282279","0.0-99.0-1.0-0.0","E5F8E00AB92A461C8A0C309B4FBC50F0","fe1ad917-624b-488d-8186-ee5c51eee105","683bf07d-1a26-40b1-9cff-5abdc1eed0ee","","null","<div style=""display: flex; justify-content: center; align-items: center;"">
                <img src=""images/semantic/semantic_series_15/semantic_series_15_d.jpg"" style=""width: 300px; height: 300px;"" />
              </div>","null",""
"","","","","","html-keyboard-response","100","285293","0.0-100.0","E5F8E00AB92A461C8A0C309B4FBC50F0","fe1ad917-624b-488d-8186-ee5c51eee105","683bf07d-1a26-40b1-9cff-5abdc1eed0ee","","null","<div style=""display: flex; justify-content: center; align-items: center;"">
                <img src=""images/other/blank.jpg"" style=""width: 300px; height: 300px;"" />
              </div>","null",""
"","","","","","html-keyboard-response","101","288307","0.0-101.0","E5F8E00AB92A461C8A0C309B4FBC50F0","fe1ad917-624b-488d-8186-ee5c51eee105","683bf07d-1a26-40b1-9cff-5abdc1eed0ee","","null","<div style=""display: flex; justify-content: center; align-items: center;"">
                <img src=""images/causal/causal_series_7/causal_series_7_a.jpg"" style=""width: 300px; height: 300px;"" />
              </div>","null",""
"","","","","","html-keyboard-response","102","291320","0.0-102.0","E5F8E00AB92A461C8A0C309B4FBC50F0","fe1ad917-624b-488d-8186-ee5c51eee105","683bf07d-1a26-40b1-9cff-5abdc1eed0ee","","null","<div style=""display: flex; justify-content: center; align-items: center;"">
                <img src=""images/causal/causal_series_7/causal_series_7_b.jpg"" style=""width: 300px; height: 300px;"" />
              </div>","null",""
"","","","","","html-keyboard-response","103","294334","0.0-103.0","E5F8E00AB92A461C8A0C309B4FBC50F0","fe1ad917-624b-488d-8186-ee5c51eee105","683bf07d-1a26-40b1-9cff-5abdc1eed0ee","","null","<div style=""display: flex; justify-content: center; align-items: center;"">
                <img src=""images/causal/causal_series_7/causal_series_7_c.jpg"" style=""width: 300px; height: 300px;"" />
              </div>","null",""
"","","","","","html-button-response","104","296279","0.0-104.0","E5F8E00AB92A461C8A0C309B4FBC50F0","fe1ad917-624b-488d-8186-ee5c51eee105","683bf07d-1a26-40b1-9cff-5abdc1eed0ee","","1944","
    <div style=""display: flex; justify-content: center; align-items: center;"">
      <img src=""images/red_deck_2.png"" style=""width: 300px; height: 300px; margin-right: 10px;"" />
      <img src=""images/blue_deck_1.png"" style=""width: 300px; height: 300px;"" />
    </div>","1","1"
"","","","","","html-keyboard-response","105","299285","0.0-105.0-1.0-0.0","E5F8E00AB92A461C8A0C309B4FBC50F0","fe1ad917-624b-488d-8186-ee5c51eee105","683bf07d-1a26-40b1-9cff-5abdc1eed0ee","","null","<div style=""display: flex; justify-content: center; align-items: center;"">
                <img src=""images/semantic/semantic_series_6/semantic_series_6_d.jpg"" style=""width: 300px; height: 300px;"" />
              </div>","null",""
"","","","","","html-keyboard-response","106","302299","0.0-106.0","E5F8E00AB92A461C8A0C309B4FBC50F0","fe1ad917-624b-488d-8186-ee5c51eee105","683bf07d-1a26-40b1-9cff-5abdc1eed0ee","","null","<div style=""display: flex; justify-content: center; align-items: center;"">
                <img src=""images/other/blank.jpg"" style=""width: 300px; height: 300px;"" />
              </div>","null",""
"","","","","","html-keyboard-response","107","305312","0.0-107.0","E5F8E00AB92A461C8A0C309B4FBC50F0","fe1ad917-624b-488d-8186-ee5c51eee105","683bf07d-1a26-40b1-9cff-5abdc1eed0ee","","null","<div style=""display: flex; justify-content: center; align-items: center;"">
                <img src=""images/causal/causal_series_4/causal_series_4_a.jpg"" style=""width: 300px; height: 300px;"" />
              </div>","null",""
"","","","","","html-keyboard-response","108","308326","0.0-108.0","E5F8E00AB92A461C8A0C309B4FBC50F0","fe1ad917-624b-488d-8186-ee5c51eee105","683bf07d-1a26-40b1-9cff-5abdc1eed0ee","","null","<div style=""display: flex; justify-content: center; align-items: center;"">
                <img src=""images/causal/causal_series_4/causal_series_4_b.jpg"" style=""width: 300px; height: 300px;"" />
              </div>","null",""
"","","","","","html-keyboard-response","109","311340","0.0-109.0","E5F8E00AB92A461C8A0C309B4FBC50F0","fe1ad917-624b-488d-8186-ee5c51eee105","683bf07d-1a26-40b1-9cff-5abdc1eed0ee","","null","<div style=""display: flex; justify-content: center; align-items: center;"">
                <img src=""images/causal/causal_series_4/causal_series_4_c.jpg"" style=""width: 300px; height: 300px;"" />
              </div>","null",""
"","","","","","html-button-response","110","313262","0.0-110.0","E5F8E00AB92A461C8A0C309B4FBC50F0","fe1ad917-624b-488d-8186-ee5c51eee105","683bf07d-1a26-40b1-9cff-5abdc1eed0ee","","1921","
    <div style=""display: flex; justify-content: center; align-items: center;"">
      <img src=""images/red_deck_2.png"" style=""width: 300px; height: 300px; margin-right: 10px;"" />
      <img src=""images/blue_deck_1.png"" style=""width: 300px; height: 300px;"" />
    </div>","1","1"
"","","","","","html-keyboard-response","111","316275","0.0-111.0-1.0-0.0","E5F8E00AB92A461C8A0C309B4FBC50F0","fe1ad917-624b-488d-8186-ee5c51eee105","683bf07d-1a26-40b1-9cff-5abdc1eed0ee","","null","<div style=""display: flex; justify-content: center; align-items: center;"">
                <img src=""images/semantic/semantic_series_3/semantic_series_3_d.jpg"" style=""width: 300px; height: 300px;"" />
              </div>","null",""
"","","","","","html-keyboard-response","112","319289","0.0-112.0","E5F8E00AB92A461C8A0C309B4FBC50F0","fe1ad917-624b-488d-8186-ee5c51eee105","683bf07d-1a26-40b1-9cff-5abdc1eed0ee","","null","<div style=""display: flex; justify-content: center; align-items: center;"">
                <img src=""images/other/blank.jpg"" style=""width: 300px; height: 300px;"" />
              </div>","null",""
"","","","","","survey-text","113","335132","0.0-113.0","E5F8E00AB92A461C8A0C309B4FBC50F0","fe1ad917-624b-488d-8186-ee5c51eee105","683bf07d-1a26-40b1-9cff-5abdc1eed0ee","","15838","","{""Q0"":""one was red and ine blue""}",""
"","","","","","survey-text","114","351380","0.0-114.0","E5F8E00AB92A461C8A0C309B4FBC50F0","fe1ad917-624b-488d-8186-ee5c51eee105","683bf07d-1a26-40b1-9cff-5abdc1eed0ee","","16245","","{""Q0"":""both were intersting""}",""
"","","","","","html-button-response","115","366461","0.0-115.0","E5F8E00AB92A461C8A0C309B4FBC50F0","fe1ad917-624b-488d-8186-ee5c51eee105","683bf07d-1a26-40b1-9cff-5abdc1eed0ee","","15080","Which color deck does the fourth image continue the story from the series?","0",""
"","","","","","html-button-response","116","369209","0.0-116.0","E5F8E00AB92A461C8A0C309B4FBC50F0","fe1ad917-624b-488d-8186-ee5c51eee105","683bf07d-1a26-40b1-9cff-5abdc1eed0ee","","2748","Which color deck does the fourth image not follow the story from the series?","1",""
"","","","","","survey-text","117","374297","0.0-117.0","E5F8E00AB92A461C8A0C309B4FBC50F0","fe1ad917-624b-488d-8186-ee5c51eee105","683bf07d-1a26-40b1-9cff-5abdc1eed0ee","","5084","","{""Q0"":""Male"",""Q1"":""34""}",""
"","","","","","instructions","118","378275","0.0-118.0","E5F8E00AB92A461C8A0C309B4FBC50F0","fe1ad917-624b-488d-8186-ee5c51eee105","683bf07d-1a26-40b1-9cff-5abdc1eed0ee","[{""page_index"":0,""viewing_time"":3977}]","3978","","",""
