"success","timeout","failed_images","failed_audio","failed_video","trial_type","trial_index","time_elapsed","internal_node_id","subject_id","study_id","session_id","view_history","rt","stimulus","response","choice","question_order"
"true","false","[]","[]","[]","preload","0","745","0.0-0.0","37FE1C04F3714328AC1C7EDFDCA72B3A","0199d465-f8af-72c2-abb3-f47184266951","0199d451-ca34-77f1-938e-4880a3ab641f","","","","","",""
"","","","","","instructions","1","9191","0.0-1.0","37FE1C04F3714328AC1C7EDFDCA72B3A","0199d465-f8af-72c2-abb3-f47184266951","0199d451-ca34-77f1-938e-4880a3ab641f","[{""page_index"":0,""viewing_time"":8445}]","8445","","","",""
"","","","","","instructions","2","12329","0.0-2.0","37FE1C04F3714328AC1C7EDFDCA72B3A","0199d465-f8af-72c2-abb3-f47184266951","0199d451-ca34-77f1-938e-4880a3ab641f","[{""page_index"":0,""viewing_time"":3137}]","3138","","","",""
"true","","","","","fullscreen","3","15652","0.0-3.0","37FE1C04F3714328AC1C7EDFDCA72B3A","0199d465-f8af-72c2-abb3-f47184266951","0199d451-ca34-77f1-938e-4880a3ab641f","","2310","","","",""
"","","","","","instructions","4","21188","0.0-4.0","37FE1C04F3714328AC1C7EDFDCA72B3A","0199d465-f8af-72c2-abb3-f47184266951","0199d451-ca34-77f1-938e-4880a3ab641f","[{""page_index"":0,""viewing_time"":5535}]","5535","","","",""
"","","","","","html-keyboard-response","5","28192","0.0-5.0","37FE1C04F3714328AC1C7EDFDCA72B3A","0199d465-f8af-72c2-abb3-f47184266951","0199d451-ca34-77f1-938e-4880a3ab641f","","null","<div style=""display: flex; justify-content: center; align-items: center;"">
                     <img src=""images/causal/causal_series_7/causal_series_7_a.png"" style=""width: 300px; height: 300px;"" />
                   </div>","null","",""
"","","","","","html-keyboard-response","6","35196","0.0-6.0","37FE1C04F3714328AC1C7EDFDCA72B3A","0199d465-f8af-72c2-abb3-f47184266951","0199d451-ca34-77f1-938e-4880a3ab641f","","null","<div style=""display: flex; justify-content: center; align-items: center;"">
                     <img src=""images/causal/causal_series_7/causal_series_7_b.png"" style=""width: 300px; height: 300px;"" />
                   </div>","null","",""
"","","","","","html-keyboard-response","7","42206","0.0-7.0","37FE1C04F3714328AC1C7EDFDCA72B3A","0199d465-f8af-72c2-abb3-f47184266951","0199d451-ca34-77f1-938e-4880a3ab641f","","null","<div style=""display: flex; justify-content: center; align-items: center;"">
                     <img src=""images/causal/causal_series_7/causal_series_7_c.png"" style=""width: 300px; height: 300px;"" />
                   </div>","null","",""
"","","","","","html-button-response","8","53736","0.0-8.0","37FE1C04F3714328AC1C7EDFDCA72B3A","0199d465-f8af-72c2-abb3-f47184266951","0199d451-ca34-77f1-938e-4880a3ab641f","","11526","
        <div style=""display: flex; justify-content: center; align-items: center;"">
          <img src=""images/red_deck_2.png"" style=""width: 300px; height: 300px; margin-right: 10px;"" />
          <img src=""images/blue_deck_1.png"" style=""width: 300px; height: 300px;"" />
        </div>","1","1",""
"","","","","","html-keyboard-response","9","60755","0.0-9.0-1.0-0.0","37FE1C04F3714328AC1C7EDFDCA72B3A","0199d465-f8af-72c2-abb3-f47184266951","0199d451-ca34-77f1-938e-4880a3ab641f","","null","<div style=""display: flex; justify-content: center; align-items: center;"">
                     <img src=""images/semantic/semantic_series_7/semantic_series_7_d.png"" style=""width: 300px; height: 300px;"" />
                   </div>","null","",""
"","","","","","survey-likert","10","67243","0.0-10.0","37FE1C04F3714328AC1C7EDFDCA72B3A","0199d465-f8af-72c2-abb3-f47184266951","0199d451-ca34-77f1-938e-4880a3ab641f","","6483","","{""Q0"":3}","","[0]"
"","","","","","survey-likert","11","76070","0.0-11.0","37FE1C04F3714328AC1C7EDFDCA72B3A","0199d465-f8af-72c2-abb3-f47184266951","0199d451-ca34-77f1-938e-4880a3ab641f","","8823","","{""Q0"":2}","","[0]"
"","","","","","html-keyboard-response","12","83076","0.0-12.0","37FE1C04F3714328AC1C7EDFDCA72B3A","0199d465-f8af-72c2-abb3-f47184266951","0199d451-ca34-77f1-938e-4880a3ab641f","","null","<div style=""display: flex; justify-content: center; align-items: center;"">
                     <img src=""images/other/blank.png"" style=""width: 300px; height: 300px;"" />
                   </div>","null","",""
"","","","","","html-keyboard-response","13","90084","0.0-13.0","37FE1C04F3714328AC1C7EDFDCA72B3A","0199d465-f8af-72c2-abb3-f47184266951","0199d451-ca34-77f1-938e-4880a3ab641f","","null","<div style=""display: flex; justify-content: center; align-items: center;"">
                     <img src=""images/causal/causal_series_4/causal_series_4_a.png"" style=""width: 300px; height: 300px;"" />
                   </div>","null","",""
"","","","","","html-keyboard-response","14","97099","0.0-14.0","37FE1C04F3714328AC1C7EDFDCA72B3A","0199d465-f8af-72c2-abb3-f47184266951","0199d451-ca34-77f1-938e-4880a3ab641f","","null","<div style=""display: flex; justify-content: center; align-items: center;"">
                     <img src=""images/causal/causal_series_4/causal_series_4_b.png"" style=""width: 300px; height: 300px;"" />
                   </div>","null","",""
"","","","","","html-keyboard-response","15","104115","0.0-15.0","37FE1C04F3714328AC1C7EDFDCA72B3A","0199d465-f8af-72c2-abb3-f47184266951","0199d451-ca34-77f1-938e-4880a3ab641f","","null","<div style=""display: flex; justify-content: center; align-items: center;"">
                     <img src=""images/causal/causal_series_4/causal_series_4_c.png"" style=""width: 300px; height: 300px;"" />
                   </div>","null","",""
"","","","","","html-button-response","16","106903","0.0-16.0","37FE1C04F3714328AC1C7EDFDCA72B3A","0199d465-f8af-72c2-abb3-f47184266951","0199d451-ca34-77f1-938e-4880a3ab641f","","2787","
        <div style=""display: flex; justify-content: center; align-items: center;"">
          <img src=""images/red_deck_2.png"" style=""width: 300px; height: 300px; margin-right: 10px;"" />
          <img src=""images/blue_deck_1.png"" style=""width: 300px; height: 300px;"" />
        </div>","0","0",""
"","","","","","html-keyboard-response","17","113917","0.0-17.0-0.0-0.0","37FE1C04F3714328AC1C7EDFDCA72B3A","0199d465-f8af-72c2-abb3-f47184266951","0199d451-ca34-77f1-938e-4880a3ab641f","","null","<div style=""display: flex; justify-content: center; align-items: center;"">
                     <img src=""images/causal/causal_series_4/causal_series_4_d.png"" style=""width: 300px; height: 300px;"" />
                   </div>","null","",""
"","","","","","survey-likert","18","116766","0.0-18.0","37FE1C04F3714328AC1C7EDFDCA72B3A","0199d465-f8af-72c2-abb3-f47184266951","0199d451-ca34-77f1-938e-4880a3ab641f","","2848","","{""Q0"":4}","","[0]"
"","","","","","survey-likert","19","120108","0.0-19.0","37FE1C04F3714328AC1C7EDFDCA72B3A","0199d465-f8af-72c2-abb3-f47184266951","0199d451-ca34-77f1-938e-4880a3ab641f","","3339","","{""Q0"":4}","","[0]"
"","","","","","html-keyboard-response","20","127119","0.0-20.0","37FE1C04F3714328AC1C7EDFDCA72B3A","0199d465-f8af-72c2-abb3-f47184266951","0199d451-ca34-77f1-938e-4880a3ab641f","","null","<div style=""display: flex; justify-content: center; align-items: center;"">
                     <img src=""images/other/blank.png"" style=""width: 300px; height: 300px;"" />
                   </div>","null","",""
"","","","","","html-keyboard-response","21","134124","0.0-21.0","37FE1C04F3714328AC1C7EDFDCA72B3A","0199d465-f8af-72c2-abb3-f47184266951","0199d451-ca34-77f1-938e-4880a3ab641f","","null","<div style=""display: flex; justify-content: center; align-items: center;"">
                     <img src=""images/causal/causal_series_6/causal_series_6_a.png"" style=""width: 300px; height: 300px;"" />
                   </div>","null","",""
"","","","","","html-keyboard-response","22","141131","0.0-22.0","37FE1C04F3714328AC1C7EDFDCA72B3A","0199d465-f8af-72c2-abb3-f47184266951","0199d451-ca34-77f1-938e-4880a3ab641f","","null","<div style=""display: flex; justify-content: center; align-items: center;"">
                     <img src=""images/causal/causal_series_6/causal_series_6_b.png"" style=""width: 300px; height: 300px;"" />
                   </div>","null","",""
"","","","","","html-keyboard-response","23","148142","0.0-23.0","37FE1C04F3714328AC1C7EDFDCA72B3A","0199d465-f8af-72c2-abb3-f47184266951","0199d451-ca34-77f1-938e-4880a3ab641f","","null","<div style=""display: flex; justify-content: center; align-items: center;"">
                     <img src=""images/causal/causal_series_6/causal_series_6_c.png"" style=""width: 300px; height: 300px;"" />
                   </div>","null","",""
"","","","","","html-button-response","24","150546","0.0-24.0","37FE1C04F3714328AC1C7EDFDCA72B3A","0199d465-f8af-72c2-abb3-f47184266951","0199d451-ca34-77f1-938e-4880a3ab641f","","2402","
        <div style=""display: flex; justify-content: center; align-items: center;"">
          <img src=""images/red_deck_2.png"" style=""width: 300px; height: 300px; margin-right: 10px;"" />
          <img src=""images/blue_deck_1.png"" style=""width: 300px; height: 300px;"" />
        </div>","1","1",""
"","","","","","html-keyboard-response","25","157560","0.0-25.0-1.0-0.0","37FE1C04F3714328AC1C7EDFDCA72B3A","0199d465-f8af-72c2-abb3-f47184266951","0199d451-ca34-77f1-938e-4880a3ab641f","","null","<div style=""display: flex; justify-content: center; align-items: center;"">
                     <img src=""images/semantic/semantic_series_6/semantic_series_6_d.png"" style=""width: 300px; height: 300px;"" />
                   </div>","null","",""
"","","","","","survey-likert","26","160812","0.0-26.0","37FE1C04F3714328AC1C7EDFDCA72B3A","0199d465-f8af-72c2-abb3-f47184266951","0199d451-ca34-77f1-938e-4880a3ab641f","","3250","","{""Q0"":1}","","[0]"
"","","","","","survey-likert","27","165386","0.0-27.0","37FE1C04F3714328AC1C7EDFDCA72B3A","0199d465-f8af-72c2-abb3-f47184266951","0199d451-ca34-77f1-938e-4880a3ab641f","","4572","","{""Q0"":1}","","[0]"
"","","","","","html-keyboard-response","28","172402","0.0-28.0","37FE1C04F3714328AC1C7EDFDCA72B3A","0199d465-f8af-72c2-abb3-f47184266951","0199d451-ca34-77f1-938e-4880a3ab641f","","null","<div style=""display: flex; justify-content: center; align-items: center;"">
                     <img src=""images/other/blank.png"" style=""width: 300px; height: 300px;"" />
                   </div>","null","",""
"","","","","","html-keyboard-response","29","179418","0.0-29.0","37FE1C04F3714328AC1C7EDFDCA72B3A","0199d465-f8af-72c2-abb3-f47184266951","0199d451-ca34-77f1-938e-4880a3ab641f","","null","<div style=""display: flex; justify-content: center; align-items: center;"">
                     <img src=""images/causal/causal_series_8/causal_series_8_a.png"" style=""width: 300px; height: 300px;"" />
                   </div>","null","",""
"","","","","","html-keyboard-response","30","186435","0.0-30.0","37FE1C04F3714328AC1C7EDFDCA72B3A","0199d465-f8af-72c2-abb3-f47184266951","0199d451-ca34-77f1-938e-4880a3ab641f","","null","<div style=""display: flex; justify-content: center; align-items: center;"">
                     <img src=""images/causal/causal_series_8/causal_series_8_b.png"" style=""width: 300px; height: 300px;"" />
                   </div>","null","",""
"","","","","","html-keyboard-response","31","193436","0.0-31.0","37FE1C04F3714328AC1C7EDFDCA72B3A","0199d465-f8af-72c2-abb3-f47184266951","0199d451-ca34-77f1-938e-4880a3ab641f","","null","<div style=""display: flex; justify-content: center; align-items: center;"">
                     <img src=""images/causal/causal_series_8/causal_series_8_c.png"" style=""width: 300px; height: 300px;"" />
                   </div>","null","",""
"","","","","","html-button-response","32","194956","0.0-32.0","37FE1C04F3714328AC1C7EDFDCA72B3A","0199d465-f8af-72c2-abb3-f47184266951","0199d451-ca34-77f1-938e-4880a3ab641f","","1517","
        <div style=""display: flex; justify-content: center; align-items: center;"">
          <img src=""images/red_deck_2.png"" style=""width: 300px; height: 300px; margin-right: 10px;"" />
          <img src=""images/blue_deck_1.png"" style=""width: 300px; height: 300px;"" />
        </div>","1","1",""
"","","","","","html-keyboard-response","33","201970","0.0-33.0-1.0-0.0","37FE1C04F3714328AC1C7EDFDCA72B3A","0199d465-f8af-72c2-abb3-f47184266951","0199d451-ca34-77f1-938e-4880a3ab641f","","null","<div style=""display: flex; justify-content: center; align-items: center;"">
                     <img src=""images/semantic/semantic_series_8/semantic_series_8_d.png"" style=""width: 300px; height: 300px;"" />
                   </div>","null","",""
"","","","","","survey-likert","34","205494","0.0-34.0","37FE1C04F3714328AC1C7EDFDCA72B3A","0199d465-f8af-72c2-abb3-f47184266951","0199d451-ca34-77f1-938e-4880a3ab641f","","3521","","{""Q0"":2}","","[0]"
"","","","","","survey-likert","35","207289","0.0-35.0","37FE1C04F3714328AC1C7EDFDCA72B3A","0199d465-f8af-72c2-abb3-f47184266951","0199d451-ca34-77f1-938e-4880a3ab641f","","1792","","{""Q0"":2}","","[0]"
"","","","","","html-keyboard-response","36","214297","0.0-36.0","37FE1C04F3714328AC1C7EDFDCA72B3A","0199d465-f8af-72c2-abb3-f47184266951","0199d451-ca34-77f1-938e-4880a3ab641f","","null","<div style=""display: flex; justify-content: center; align-items: center;"">
                     <img src=""images/other/blank.png"" style=""width: 300px; height: 300px;"" />
                   </div>","null","",""
"","","","","","html-keyboard-response","37","221303","0.0-37.0","37FE1C04F3714328AC1C7EDFDCA72B3A","0199d465-f8af-72c2-abb3-f47184266951","0199d451-ca34-77f1-938e-4880a3ab641f","","null","<div style=""display: flex; justify-content: center; align-items: center;"">
                     <img src=""images/causal/causal_series_1/causal_series_1_a.png"" style=""width: 300px; height: 300px;"" />
                   </div>","null","",""
"","","","","","html-keyboard-response","38","228320","0.0-38.0","37FE1C04F3714328AC1C7EDFDCA72B3A","0199d465-f8af-72c2-abb3-f47184266951","0199d451-ca34-77f1-938e-4880a3ab641f","","null","<div style=""display: flex; justify-content: center; align-items: center;"">
                     <img src=""images/causal/causal_series_1/causal_series_1_b.png"" style=""width: 300px; height: 300px;"" />
                   </div>","null","",""
"","","","","","html-keyboard-response","39","235324","0.0-39.0","37FE1C04F3714328AC1C7EDFDCA72B3A","0199d465-f8af-72c2-abb3-f47184266951","0199d451-ca34-77f1-938e-4880a3ab641f","","null","<div style=""display: flex; justify-content: center; align-items: center;"">
                     <img src=""images/causal/causal_series_1/causal_series_1_c.png"" style=""width: 300px; height: 300px;"" />
                   </div>","null","",""
"","","","","","html-button-response","40","260888","0.0-40.0","37FE1C04F3714328AC1C7EDFDCA72B3A","0199d465-f8af-72c2-abb3-f47184266951","0199d451-ca34-77f1-938e-4880a3ab641f","","25561","
        <div style=""display: flex; justify-content: center; align-items: center;"">
          <img src=""images/red_deck_2.png"" style=""width: 300px; height: 300px; margin-right: 10px;"" />
          <img src=""images/blue_deck_1.png"" style=""width: 300px; height: 300px;"" />
        </div>","1","1",""
"","","","","","html-keyboard-response","41","267893","0.0-41.0-1.0-0.0","37FE1C04F3714328AC1C7EDFDCA72B3A","0199d465-f8af-72c2-abb3-f47184266951","0199d451-ca34-77f1-938e-4880a3ab641f","","null","<div style=""display: flex; justify-content: center; align-items: center;"">
                     <img src=""images/semantic/semantic_series_1/semantic_series_1_d.png"" style=""width: 300px; height: 300px;"" />
                   </div>","null","",""
"","","","","","survey-likert","42","278695","0.0-42.0","37FE1C04F3714328AC1C7EDFDCA72B3A","0199d465-f8af-72c2-abb3-f47184266951","0199d451-ca34-77f1-938e-4880a3ab641f","","10800","","{""Q0"":2}","","[0]"
"","","","","","survey-likert","43","282110","0.0-43.0","37FE1C04F3714328AC1C7EDFDCA72B3A","0199d465-f8af-72c2-abb3-f47184266951","0199d451-ca34-77f1-938e-4880a3ab641f","","3412","","{""Q0"":2}","","[0]"
"","","","","","html-keyboard-response","44","289125","0.0-44.0","37FE1C04F3714328AC1C7EDFDCA72B3A","0199d465-f8af-72c2-abb3-f47184266951","0199d451-ca34-77f1-938e-4880a3ab641f","","null","<div style=""display: flex; justify-content: center; align-items: center;"">
                     <img src=""images/other/blank.png"" style=""width: 300px; height: 300px;"" />
                   </div>","null","",""
"","","","","","html-keyboard-response","45","296134","0.0-45.0","37FE1C04F3714328AC1C7EDFDCA72B3A","0199d465-f8af-72c2-abb3-f47184266951","0199d451-ca34-77f1-938e-4880a3ab641f","","null","<div style=""display: flex; justify-content: center; align-items: center;"">
                     <img src=""images/causal/causal_series_9/causal_series_9_a.png"" style=""width: 300px; height: 300px;"" />
                   </div>","null","",""
"","","","","","html-keyboard-response","46","303146","0.0-46.0","37FE1C04F3714328AC1C7EDFDCA72B3A","0199d465-f8af-72c2-abb3-f47184266951","0199d451-ca34-77f1-938e-4880a3ab641f","","null","<div style=""display: flex; justify-content: center; align-items: center;"">
                     <img src=""images/causal/causal_series_9/causal_series_9_b.png"" style=""width: 300px; height: 300px;"" />
                   </div>","null","",""
"","","","","","html-keyboard-response","47","310160","0.0-47.0","37FE1C04F3714328AC1C7EDFDCA72B3A","0199d465-f8af-72c2-abb3-f47184266951","0199d451-ca34-77f1-938e-4880a3ab641f","","null","<div style=""display: flex; justify-content: center; align-items: center;"">
                     <img src=""images/causal/causal_series_9/causal_series_9_c.png"" style=""width: 300px; height: 300px;"" />
                   </div>","null","",""
"","","","","","html-button-response","48","316142","0.0-48.0","37FE1C04F3714328AC1C7EDFDCA72B3A","0199d465-f8af-72c2-abb3-f47184266951","0199d451-ca34-77f1-938e-4880a3ab641f","","5979","
        <div style=""display: flex; justify-content: center; align-items: center;"">
          <img src=""images/red_deck_2.png"" style=""width: 300px; height: 300px; margin-right: 10px;"" />
          <img src=""images/blue_deck_1.png"" style=""width: 300px; height: 300px;"" />
        </div>","0","0",""
"","","","","","html-keyboard-response","49","323146","0.0-49.0-0.0-0.0","37FE1C04F3714328AC1C7EDFDCA72B3A","0199d465-f8af-72c2-abb3-f47184266951","0199d451-ca34-77f1-938e-4880a3ab641f","","null","<div style=""display: flex; justify-content: center; align-items: center;"">
                     <img src=""images/causal/causal_series_9/causal_series_9_d.png"" style=""width: 300px; height: 300px;"" />
                   </div>","null","",""
"","","","","","survey-likert","50","345668","0.0-50.0","37FE1C04F3714328AC1C7EDFDCA72B3A","0199d465-f8af-72c2-abb3-f47184266951","0199d451-ca34-77f1-938e-4880a3ab641f","","22520","","{""Q0"":2}","","[0]"
"","","","","","survey-likert","51","361326","0.0-51.0","37FE1C04F3714328AC1C7EDFDCA72B3A","0199d465-f8af-72c2-abb3-f47184266951","0199d451-ca34-77f1-938e-4880a3ab641f","","15655","","{""Q0"":2}","","[0]"
"","","","","","html-keyboard-response","52","368331","0.0-52.0","37FE1C04F3714328AC1C7EDFDCA72B3A","0199d465-f8af-72c2-abb3-f47184266951","0199d451-ca34-77f1-938e-4880a3ab641f","","null","<div style=""display: flex; justify-content: center; align-items: center;"">
                     <img src=""images/other/blank.png"" style=""width: 300px; height: 300px;"" />
                   </div>","null","",""
"","","","","","html-keyboard-response","53","375343","0.0-53.0","37FE1C04F3714328AC1C7EDFDCA72B3A","0199d465-f8af-72c2-abb3-f47184266951","0199d451-ca34-77f1-938e-4880a3ab641f","","null","<div style=""display: flex; justify-content: center; align-items: center;"">
                     <img src=""images/causal/causal_series_3/causal_series_3_a.png"" style=""width: 300px; height: 300px;"" />
                   </div>","null","",""
"","","","","","html-keyboard-response","54","382354","0.0-54.0","37FE1C04F3714328AC1C7EDFDCA72B3A","0199d465-f8af-72c2-abb3-f47184266951","0199d451-ca34-77f1-938e-4880a3ab641f","","null","<div style=""display: flex; justify-content: center; align-items: center;"">
                     <img src=""images/causal/causal_series_3/causal_series_3_b.png"" style=""width: 300px; height: 300px;"" />
                   </div>","null","",""
"","","","","","html-keyboard-response","55","389371","0.0-55.0","37FE1C04F3714328AC1C7EDFDCA72B3A","0199d465-f8af-72c2-abb3-f47184266951","0199d451-ca34-77f1-938e-4880a3ab641f","","null","<div style=""display: flex; justify-content: center; align-items: center;"">
                     <img src=""images/causal/causal_series_3/causal_series_3_c.png"" style=""width: 300px; height: 300px;"" />
                   </div>","null","",""
"","","","","","html-button-response","56","461193","0.0-56.0","37FE1C04F3714328AC1C7EDFDCA72B3A","0199d465-f8af-72c2-abb3-f47184266951","0199d451-ca34-77f1-938e-4880a3ab641f","","71820","
        <div style=""display: flex; justify-content: center; align-items: center;"">
          <img src=""images/red_deck_2.png"" style=""width: 300px; height: 300px; margin-right: 10px;"" />
          <img src=""images/blue_deck_1.png"" style=""width: 300px; height: 300px;"" />
        </div>","0","0",""
"","","","","","html-keyboard-response","57","468209","0.0-57.0-0.0-0.0","37FE1C04F3714328AC1C7EDFDCA72B3A","0199d465-f8af-72c2-abb3-f47184266951","0199d451-ca34-77f1-938e-4880a3ab641f","","null","<div style=""display: flex; justify-content: center; align-items: center;"">
                     <img src=""images/causal/causal_series_3/causal_series_3_d.png"" style=""width: 300px; height: 300px;"" />
                   </div>","null","",""
"","","","","","survey-likert","58","472505","0.0-58.0","37FE1C04F3714328AC1C7EDFDCA72B3A","0199d465-f8af-72c2-abb3-f47184266951","0199d451-ca34-77f1-938e-4880a3ab641f","","4295","","{""Q0"":4}","","[0]"
"","","","","","survey-likert","59","475956","0.0-59.0","37FE1C04F3714328AC1C7EDFDCA72B3A","0199d465-f8af-72c2-abb3-f47184266951","0199d451-ca34-77f1-938e-4880a3ab641f","","3448","","{""Q0"":3}","","[0]"
"","","","","","html-keyboard-response","60","482970","0.0-60.0","37FE1C04F3714328AC1C7EDFDCA72B3A","0199d465-f8af-72c2-abb3-f47184266951","0199d451-ca34-77f1-938e-4880a3ab641f","","null","<div style=""display: flex; justify-content: center; align-items: center;"">
                     <img src=""images/other/blank.png"" style=""width: 300px; height: 300px;"" />
                   </div>","null","",""
"","","","","","html-keyboard-response","61","489982","0.0-61.0","37FE1C04F3714328AC1C7EDFDCA72B3A","0199d465-f8af-72c2-abb3-f47184266951","0199d451-ca34-77f1-938e-4880a3ab641f","","null","<div style=""display: flex; justify-content: center; align-items: center;"">
                     <img src=""images/causal/causal_series_2/causal_series_2_a.png"" style=""width: 300px; height: 300px;"" />
                   </div>","null","",""
"","","","","","html-keyboard-response","62","496991","0.0-62.0","37FE1C04F3714328AC1C7EDFDCA72B3A","0199d465-f8af-72c2-abb3-f47184266951","0199d451-ca34-77f1-938e-4880a3ab641f","","null","<div style=""display: flex; justify-content: center; align-items: center;"">
                     <img src=""images/causal/causal_series_2/causal_series_2_b.png"" style=""width: 300px; height: 300px;"" />
                   </div>","null","",""
"","","","","","html-keyboard-response","63","504000","0.0-63.0","37FE1C04F3714328AC1C7EDFDCA72B3A","0199d465-f8af-72c2-abb3-f47184266951","0199d451-ca34-77f1-938e-4880a3ab641f","","null","<div style=""display: flex; justify-content: center; align-items: center;"">
                     <img src=""images/causal/causal_series_2/causal_series_2_c.png"" style=""width: 300px; height: 300px;"" />
                   </div>","null","",""
"","","","","","html-button-response","64","506335","0.0-64.0","37FE1C04F3714328AC1C7EDFDCA72B3A","0199d465-f8af-72c2-abb3-f47184266951","0199d451-ca34-77f1-938e-4880a3ab641f","","2333","
        <div style=""display: flex; justify-content: center; align-items: center;"">
          <img src=""images/red_deck_2.png"" style=""width: 300px; height: 300px; margin-right: 10px;"" />
          <img src=""images/blue_deck_1.png"" style=""width: 300px; height: 300px;"" />
        </div>","0","0",""
"","","","","","html-keyboard-response","65","513340","0.0-65.0-0.0-0.0","37FE1C04F3714328AC1C7EDFDCA72B3A","0199d465-f8af-72c2-abb3-f47184266951","0199d451-ca34-77f1-938e-4880a3ab641f","","null","<div style=""display: flex; justify-content: center; align-items: center;"">
                     <img src=""images/causal/causal_series_2/causal_series_2_d.png"" style=""width: 300px; height: 300px;"" />
                   </div>","null","",""
"","","","","","survey-likert","66","552705","0.0-66.0","37FE1C04F3714328AC1C7EDFDCA72B3A","0199d465-f8af-72c2-abb3-f47184266951","0199d451-ca34-77f1-938e-4880a3ab641f","","39362","","{""Q0"":2}","","[0]"
"","","","","","survey-likert","67","560036","0.0-67.0","37FE1C04F3714328AC1C7EDFDCA72B3A","0199d465-f8af-72c2-abb3-f47184266951","0199d451-ca34-77f1-938e-4880a3ab641f","","7329","","{""Q0"":2}","","[0]"
"","","","","","html-keyboard-response","68","567044","0.0-68.0","37FE1C04F3714328AC1C7EDFDCA72B3A","0199d465-f8af-72c2-abb3-f47184266951","0199d451-ca34-77f1-938e-4880a3ab641f","","null","<div style=""display: flex; justify-content: center; align-items: center;"">
                     <img src=""images/other/blank.png"" style=""width: 300px; height: 300px;"" />
                   </div>","null","",""
"","","","","","html-keyboard-response","69","574047","0.0-69.0","37FE1C04F3714328AC1C7EDFDCA72B3A","0199d465-f8af-72c2-abb3-f47184266951","0199d451-ca34-77f1-938e-4880a3ab641f","","null","<div style=""display: flex; justify-content: center; align-items: center;"">
                     <img src=""images/causal/causal_series_10/causal_series_10_a.png"" style=""width: 300px; height: 300px;"" />
                   </div>","null","",""
"","","","","","html-keyboard-response","70","581060","0.0-70.0","37FE1C04F3714328AC1C7EDFDCA72B3A","0199d465-f8af-72c2-abb3-f47184266951","0199d451-ca34-77f1-938e-4880a3ab641f","","null","<div style=""display: flex; justify-content: center; align-items: center;"">
                     <img src=""images/causal/causal_series_10/causal_series_10_b.png"" style=""width: 300px; height: 300px;"" />
                   </div>","null","",""
"","","","","","html-keyboard-response","71","588075","0.0-71.0","37FE1C04F3714328AC1C7EDFDCA72B3A","0199d465-f8af-72c2-abb3-f47184266951","0199d451-ca34-77f1-938e-4880a3ab641f","","null","<div style=""display: flex; justify-content: center; align-items: center;"">
                     <img src=""images/causal/causal_series_10/causal_series_10_c.png"" style=""width: 300px; height: 300px;"" />
                   </div>","null","",""
"","","","","","html-button-response","72","612618","0.0-72.0","37FE1C04F3714328AC1C7EDFDCA72B3A","0199d465-f8af-72c2-abb3-f47184266951","0199d451-ca34-77f1-938e-4880a3ab641f","","24540","
        <div style=""display: flex; justify-content: center; align-items: center;"">
          <img src=""images/red_deck_2.png"" style=""width: 300px; height: 300px; margin-right: 10px;"" />
          <img src=""images/blue_deck_1.png"" style=""width: 300px; height: 300px;"" />
        </div>","1","1",""
"","","","","","html-keyboard-response","73","619623","0.0-73.0-1.0-0.0","37FE1C04F3714328AC1C7EDFDCA72B3A","0199d465-f8af-72c2-abb3-f47184266951","0199d451-ca34-77f1-938e-4880a3ab641f","","null","<div style=""display: flex; justify-content: center; align-items: center;"">
                     <img src=""images/semantic/semantic_series_10/semantic_series_10_d.png"" style=""width: 300px; height: 300px;"" />
                   </div>","null","",""
"","","","","","survey-likert","74","656409","0.0-74.0","37FE1C04F3714328AC1C7EDFDCA72B3A","0199d465-f8af-72c2-abb3-f47184266951","0199d451-ca34-77f1-938e-4880a3ab641f","","36784","","{""Q0"":2}","","[0]"
"","","","","","survey-likert","75","670893","0.0-75.0","37FE1C04F3714328AC1C7EDFDCA72B3A","0199d465-f8af-72c2-abb3-f47184266951","0199d451-ca34-77f1-938e-4880a3ab641f","","14482","","{""Q0"":2}","","[0]"
"","","","","","html-keyboard-response","76","677908","0.0-76.0","37FE1C04F3714328AC1C7EDFDCA72B3A","0199d465-f8af-72c2-abb3-f47184266951","0199d451-ca34-77f1-938e-4880a3ab641f","","null","<div style=""display: flex; justify-content: center; align-items: center;"">
                     <img src=""images/other/blank.png"" style=""width: 300px; height: 300px;"" />
                   </div>","null","",""
"","","","","","html-keyboard-response","77","684922","0.0-77.0","37FE1C04F3714328AC1C7EDFDCA72B3A","0199d465-f8af-72c2-abb3-f47184266951","0199d451-ca34-77f1-938e-4880a3ab641f","","null","<div style=""display: flex; justify-content: center; align-items: center;"">
                     <img src=""images/causal/causal_series_5/causal_series_5_a.png"" style=""width: 300px; height: 300px;"" />
                   </div>","null","",""
"","","","","","html-keyboard-response","78","691933","0.0-78.0","37FE1C04F3714328AC1C7EDFDCA72B3A","0199d465-f8af-72c2-abb3-f47184266951","0199d451-ca34-77f1-938e-4880a3ab641f","","null","<div style=""display: flex; justify-content: center; align-items: center;"">
                     <img src=""images/causal/causal_series_5/causal_series_5_b.png"" style=""width: 300px; height: 300px;"" />
                   </div>","null","",""
"","","","","","html-keyboard-response","79","698949","0.0-79.0","37FE1C04F3714328AC1C7EDFDCA72B3A","0199d465-f8af-72c2-abb3-f47184266951","0199d451-ca34-77f1-938e-4880a3ab641f","","null","<div style=""display: flex; justify-content: center; align-items: center;"">
                     <img src=""images/causal/causal_series_5/causal_series_5_c.png"" style=""width: 300px; height: 300px;"" />
                   </div>","null","",""
"","","","","","html-button-response","80","700436","0.0-80.0","37FE1C04F3714328AC1C7EDFDCA72B3A","0199d465-f8af-72c2-abb3-f47184266951","0199d451-ca34-77f1-938e-4880a3ab641f","","1485","
        <div style=""display: flex; justify-content: center; align-items: center;"">
          <img src=""images/red_deck_2.png"" style=""width: 300px; height: 300px; margin-right: 10px;"" />
          <img src=""images/blue_deck_1.png"" style=""width: 300px; height: 300px;"" />
        </div>","1","1",""
"","","","","","html-keyboard-response","81","707439","0.0-81.0-1.0-0.0","37FE1C04F3714328AC1C7EDFDCA72B3A","0199d465-f8af-72c2-abb3-f47184266951","0199d451-ca34-77f1-938e-4880a3ab641f","","null","<div style=""display: flex; justify-content: center; align-items: center;"">
                     <img src=""images/semantic/semantic_series_5/semantic_series_5_d.png"" style=""width: 300px; height: 300px;"" />
                   </div>","null","",""
"","","","","","survey-likert","82","710341","0.0-82.0","37FE1C04F3714328AC1C7EDFDCA72B3A","0199d465-f8af-72c2-abb3-f47184266951","0199d451-ca34-77f1-938e-4880a3ab641f","","2900","","{""Q0"":3}","","[0]"
"","","","","","survey-likert","83","712491","0.0-83.0","37FE1C04F3714328AC1C7EDFDCA72B3A","0199d465-f8af-72c2-abb3-f47184266951","0199d451-ca34-77f1-938e-4880a3ab641f","","2146","","{""Q0"":3}","","[0]"
"","","","","","html-keyboard-response","84","719506","0.0-84.0","37FE1C04F3714328AC1C7EDFDCA72B3A","0199d465-f8af-72c2-abb3-f47184266951","0199d451-ca34-77f1-938e-4880a3ab641f","","null","<div style=""display: flex; justify-content: center; align-items: center;"">
                     <img src=""images/other/blank.png"" style=""width: 300px; height: 300px;"" />
                   </div>","null","",""
"","","","","","survey-text","85","733321","0.0-85.0","37FE1C04F3714328AC1C7EDFDCA72B3A","0199d465-f8af-72c2-abb3-f47184266951","0199d451-ca34-77f1-938e-4880a3ab641f","","13805","","{""Q0"":""one is red , the other is blue""}","",""
"","","","","","html-button-response","86","740280","0.0-86.0","37FE1C04F3714328AC1C7EDFDCA72B3A","0199d465-f8af-72c2-abb3-f47184266951","0199d451-ca34-77f1-938e-4880a3ab641f","","6957","Which color deck do the following images continue the story from?","1","",""
"","","","","","html-button-response","87","742523","0.0-87.0","37FE1C04F3714328AC1C7EDFDCA72B3A","0199d465-f8af-72c2-abb3-f47184266951","0199d451-ca34-77f1-938e-4880a3ab641f","","2242","Which color deck do the following images NOT follow the story from?","0","",""
"","","","","","html-button-response","88","746621","0.0-88.0","37FE1C04F3714328AC1C7EDFDCA72B3A","0199d465-f8af-72c2-abb3-f47184266951","0199d451-ca34-77f1-938e-4880a3ab641f","","4095","Which type of deck did you prefer overall?","0","",""
"","","","","","survey-text","89","753671","0.0-89.0","37FE1C04F3714328AC1C7EDFDCA72B3A","0199d465-f8af-72c2-abb3-f47184266951","0199d451-ca34-77f1-938e-4880a3ab641f","","7041","","{""Q0"":""female"",""Q1"":""23""}","",""
"","","","","","instructions","90","759516","0.0-90.0","37FE1C04F3714328AC1C7EDFDCA72B3A","0199d465-f8af-72c2-abb3-f47184266951","0199d451-ca34-77f1-938e-4880a3ab641f","[{""page_index"":0,""viewing_time"":5843}]","5844","","","",""
