"success","timeout","failed_images","failed_audio","failed_video","trial_type","trial_index","time_elapsed","internal_node_id","subject_id","study_id","session_id","view_history","rt","stimulus","response","choice","question_order"
"true","false","[]","[]","[]","preload","0","466","0.0-0.0","9C1D96388F4948BBBBAD48D00B5E17EA","0199d0a7-d8dc-7f36-85cd-47bc9147cfb3","0199d096-ba1e-7664-9b18-6b0b7f11fd27","","","","","",""
"","","","","","instructions","1","3724","0.0-1.0","9C1D96388F4948BBBBAD48D00B5E17EA","0199d0a7-d8dc-7f36-85cd-47bc9147cfb3","0199d096-ba1e-7664-9b18-6b0b7f11fd27","[{""page_index"":0,""viewing_time"":3257}]","3258","","","",""
"","","","","","instructions","2","9210","0.0-2.0","9C1D96388F4948BBBBAD48D00B5E17EA","0199d0a7-d8dc-7f36-85cd-47bc9147cfb3","0199d096-ba1e-7664-9b18-6b0b7f11fd27","[{""page_index"":0,""viewing_time"":5485}]","5485","","","",""
"true","","","","","fullscreen","3","12674","0.0-3.0","9C1D96388F4948BBBBAD48D00B5E17EA","0199d0a7-d8dc-7f36-85cd-47bc9147cfb3","0199d096-ba1e-7664-9b18-6b0b7f11fd27","","2460","","","",""
"","","","","","instructions","4","26656","0.0-4.0","9C1D96388F4948BBBBAD48D00B5E17EA","0199d0a7-d8dc-7f36-85cd-47bc9147cfb3","0199d096-ba1e-7664-9b18-6b0b7f11fd27","[{""page_index"":0,""viewing_time"":13980}]","13981","","","",""
"","","","","","html-keyboard-response","5","33661","0.0-5.0","9C1D96388F4948BBBBAD48D00B5E17EA","0199d0a7-d8dc-7f36-85cd-47bc9147cfb3","0199d096-ba1e-7664-9b18-6b0b7f11fd27","","null","<div style=""display: flex; justify-content: center; align-items: center;"">
                     <img src=""images/causal/causal_series_9/causal_series_9_a.png"" style=""width: 300px; height: 300px;"" />
                   </div>","null","",""
"","","","","","html-keyboard-response","6","40664","0.0-6.0","9C1D96388F4948BBBBAD48D00B5E17EA","0199d0a7-d8dc-7f36-85cd-47bc9147cfb3","0199d096-ba1e-7664-9b18-6b0b7f11fd27","","null","<div style=""display: flex; justify-content: center; align-items: center;"">
                     <img src=""images/causal/causal_series_9/causal_series_9_b.png"" style=""width: 300px; height: 300px;"" />
                   </div>","null","",""
"","","","","","html-keyboard-response","7","47668","0.0-7.0","9C1D96388F4948BBBBAD48D00B5E17EA","0199d0a7-d8dc-7f36-85cd-47bc9147cfb3","0199d096-ba1e-7664-9b18-6b0b7f11fd27","","null","<div style=""display: flex; justify-content: center; align-items: center;"">
                     <img src=""images/causal/causal_series_9/causal_series_9_c.png"" style=""width: 300px; height: 300px;"" />
                   </div>","null","",""
"","","","","","html-button-response","8","50966","0.0-8.0","9C1D96388F4948BBBBAD48D00B5E17EA","0199d0a7-d8dc-7f36-85cd-47bc9147cfb3","0199d096-ba1e-7664-9b18-6b0b7f11fd27","","3294","
        <div style=""display: flex; justify-content: center; align-items: center;"">
          <img src=""images/red_deck_2.png"" style=""width: 300px; height: 300px; margin-right: 10px;"" />
          <img src=""images/blue_deck_1.png"" style=""width: 300px; height: 300px;"" />
        </div>","0","0",""
"","","","","","html-keyboard-response","9","57970","0.0-9.0-0.0-0.0","9C1D96388F4948BBBBAD48D00B5E17EA","0199d0a7-d8dc-7f36-85cd-47bc9147cfb3","0199d096-ba1e-7664-9b18-6b0b7f11fd27","","null","<div style=""display: flex; justify-content: center; align-items: center;"">
                     <img src=""images/causal/causal_series_9/causal_series_9_d.png"" style=""width: 300px; height: 300px;"" />
                   </div>","null","",""
"","","","","","survey-likert","10","63808","0.0-10.0","9C1D96388F4948BBBBAD48D00B5E17EA","0199d0a7-d8dc-7f36-85cd-47bc9147cfb3","0199d096-ba1e-7664-9b18-6b0b7f11fd27","","5834","","{""Q0"":3}","","[0]"
"","","","","","survey-likert","11","68823","0.0-11.0","9C1D96388F4948BBBBAD48D00B5E17EA","0199d0a7-d8dc-7f36-85cd-47bc9147cfb3","0199d096-ba1e-7664-9b18-6b0b7f11fd27","","5014","","{""Q0"":3}","","[0]"
"","","","","","html-keyboard-response","12","75826","0.0-12.0","9C1D96388F4948BBBBAD48D00B5E17EA","0199d0a7-d8dc-7f36-85cd-47bc9147cfb3","0199d096-ba1e-7664-9b18-6b0b7f11fd27","","null","<div style=""display: flex; justify-content: center; align-items: center;"">
                     <img src=""images/other/blank.png"" style=""width: 300px; height: 300px;"" />
                   </div>","null","",""
"","","","","","html-keyboard-response","13","82829","0.0-13.0","9C1D96388F4948BBBBAD48D00B5E17EA","0199d0a7-d8dc-7f36-85cd-47bc9147cfb3","0199d096-ba1e-7664-9b18-6b0b7f11fd27","","null","<div style=""display: flex; justify-content: center; align-items: center;"">
                     <img src=""images/causal/causal_series_6/causal_series_6_a.png"" style=""width: 300px; height: 300px;"" />
                   </div>","null","",""
"","","","","","html-keyboard-response","14","89833","0.0-14.0","9C1D96388F4948BBBBAD48D00B5E17EA","0199d0a7-d8dc-7f36-85cd-47bc9147cfb3","0199d096-ba1e-7664-9b18-6b0b7f11fd27","","null","<div style=""display: flex; justify-content: center; align-items: center;"">
                     <img src=""images/causal/causal_series_6/causal_series_6_b.png"" style=""width: 300px; height: 300px;"" />
                   </div>","null","",""
"","","","","","html-keyboard-response","15","96837","0.0-15.0","9C1D96388F4948BBBBAD48D00B5E17EA","0199d0a7-d8dc-7f36-85cd-47bc9147cfb3","0199d096-ba1e-7664-9b18-6b0b7f11fd27","","null","<div style=""display: flex; justify-content: center; align-items: center;"">
                     <img src=""images/causal/causal_series_6/causal_series_6_c.png"" style=""width: 300px; height: 300px;"" />
                   </div>","null","",""
"","","","","","html-button-response","16","100827","0.0-16.0","9C1D96388F4948BBBBAD48D00B5E17EA","0199d0a7-d8dc-7f36-85cd-47bc9147cfb3","0199d096-ba1e-7664-9b18-6b0b7f11fd27","","3988","
        <div style=""display: flex; justify-content: center; align-items: center;"">
          <img src=""images/red_deck_2.png"" style=""width: 300px; height: 300px; margin-right: 10px;"" />
          <img src=""images/blue_deck_1.png"" style=""width: 300px; height: 300px;"" />
        </div>","0","0",""
"","","","","","html-keyboard-response","17","107829","0.0-17.0-0.0-0.0","9C1D96388F4948BBBBAD48D00B5E17EA","0199d0a7-d8dc-7f36-85cd-47bc9147cfb3","0199d096-ba1e-7664-9b18-6b0b7f11fd27","","null","<div style=""display: flex; justify-content: center; align-items: center;"">
                     <img src=""images/causal/causal_series_6/causal_series_6_d.png"" style=""width: 300px; height: 300px;"" />
                   </div>","null","",""
"","","","","","survey-likert","18","114162","0.0-18.0","9C1D96388F4948BBBBAD48D00B5E17EA","0199d0a7-d8dc-7f36-85cd-47bc9147cfb3","0199d096-ba1e-7664-9b18-6b0b7f11fd27","","6331","","{""Q0"":2}","","[0]"
"","","","","","survey-likert","19","117832","0.0-19.0","9C1D96388F4948BBBBAD48D00B5E17EA","0199d0a7-d8dc-7f36-85cd-47bc9147cfb3","0199d096-ba1e-7664-9b18-6b0b7f11fd27","","3667","","{""Q0"":1}","","[0]"
"","","","","","html-keyboard-response","20","124835","0.0-20.0","9C1D96388F4948BBBBAD48D00B5E17EA","0199d0a7-d8dc-7f36-85cd-47bc9147cfb3","0199d096-ba1e-7664-9b18-6b0b7f11fd27","","null","<div style=""display: flex; justify-content: center; align-items: center;"">
                     <img src=""images/other/blank.png"" style=""width: 300px; height: 300px;"" />
                   </div>","null","",""
"","","","","","html-keyboard-response","21","131838","0.0-21.0","9C1D96388F4948BBBBAD48D00B5E17EA","0199d0a7-d8dc-7f36-85cd-47bc9147cfb3","0199d096-ba1e-7664-9b18-6b0b7f11fd27","","null","<div style=""display: flex; justify-content: center; align-items: center;"">
                     <img src=""images/causal/causal_series_10/causal_series_10_a.png"" style=""width: 300px; height: 300px;"" />
                   </div>","null","",""
"","","","","","html-keyboard-response","22","138841","0.0-22.0","9C1D96388F4948BBBBAD48D00B5E17EA","0199d0a7-d8dc-7f36-85cd-47bc9147cfb3","0199d096-ba1e-7664-9b18-6b0b7f11fd27","","null","<div style=""display: flex; justify-content: center; align-items: center;"">
                     <img src=""images/causal/causal_series_10/causal_series_10_b.png"" style=""width: 300px; height: 300px;"" />
                   </div>","null","",""
"","","","","","html-keyboard-response","23","145844","0.0-23.0","9C1D96388F4948BBBBAD48D00B5E17EA","0199d0a7-d8dc-7f36-85cd-47bc9147cfb3","0199d096-ba1e-7664-9b18-6b0b7f11fd27","","null","<div style=""display: flex; justify-content: center; align-items: center;"">
                     <img src=""images/causal/causal_series_10/causal_series_10_c.png"" style=""width: 300px; height: 300px;"" />
                   </div>","null","",""
"","","","","","html-button-response","24","148006","0.0-24.0","9C1D96388F4948BBBBAD48D00B5E17EA","0199d0a7-d8dc-7f36-85cd-47bc9147cfb3","0199d096-ba1e-7664-9b18-6b0b7f11fd27","","2160","
        <div style=""display: flex; justify-content: center; align-items: center;"">
          <img src=""images/red_deck_2.png"" style=""width: 300px; height: 300px; margin-right: 10px;"" />
          <img src=""images/blue_deck_1.png"" style=""width: 300px; height: 300px;"" />
        </div>","1","1",""
"","","","","","html-keyboard-response","25","155009","0.0-25.0-1.0-0.0","9C1D96388F4948BBBBAD48D00B5E17EA","0199d0a7-d8dc-7f36-85cd-47bc9147cfb3","0199d096-ba1e-7664-9b18-6b0b7f11fd27","","null","<div style=""display: flex; justify-content: center; align-items: center;"">
                     <img src=""images/semantic/semantic_series_10/semantic_series_10_d.png"" style=""width: 300px; height: 300px;"" />
                   </div>","null","",""
"","","","","","survey-likert","26","160032","0.0-26.0","9C1D96388F4948BBBBAD48D00B5E17EA","0199d0a7-d8dc-7f36-85cd-47bc9147cfb3","0199d096-ba1e-7664-9b18-6b0b7f11fd27","","5022","","{""Q0"":2}","","[0]"
"","","","","","survey-likert","27","163387","0.0-27.0","9C1D96388F4948BBBBAD48D00B5E17EA","0199d0a7-d8dc-7f36-85cd-47bc9147cfb3","0199d096-ba1e-7664-9b18-6b0b7f11fd27","","3354","","{""Q0"":1}","","[0]"
"","","","","","html-keyboard-response","28","170390","0.0-28.0","9C1D96388F4948BBBBAD48D00B5E17EA","0199d0a7-d8dc-7f36-85cd-47bc9147cfb3","0199d096-ba1e-7664-9b18-6b0b7f11fd27","","null","<div style=""display: flex; justify-content: center; align-items: center;"">
                     <img src=""images/other/blank.png"" style=""width: 300px; height: 300px;"" />
                   </div>","null","",""
"","","","","","html-keyboard-response","29","177393","0.0-29.0","9C1D96388F4948BBBBAD48D00B5E17EA","0199d0a7-d8dc-7f36-85cd-47bc9147cfb3","0199d096-ba1e-7664-9b18-6b0b7f11fd27","","null","<div style=""display: flex; justify-content: center; align-items: center;"">
                     <img src=""images/causal/causal_series_2/causal_series_2_a.png"" style=""width: 300px; height: 300px;"" />
                   </div>","null","",""
"","","","","","html-keyboard-response","30","184396","0.0-30.0","9C1D96388F4948BBBBAD48D00B5E17EA","0199d0a7-d8dc-7f36-85cd-47bc9147cfb3","0199d096-ba1e-7664-9b18-6b0b7f11fd27","","null","<div style=""display: flex; justify-content: center; align-items: center;"">
                     <img src=""images/causal/causal_series_2/causal_series_2_b.png"" style=""width: 300px; height: 300px;"" />
                   </div>","null","",""
"","","","","","html-keyboard-response","31","191398","0.0-31.0","9C1D96388F4948BBBBAD48D00B5E17EA","0199d0a7-d8dc-7f36-85cd-47bc9147cfb3","0199d096-ba1e-7664-9b18-6b0b7f11fd27","","null","<div style=""display: flex; justify-content: center; align-items: center;"">
                     <img src=""images/causal/causal_series_2/causal_series_2_c.png"" style=""width: 300px; height: 300px;"" />
                   </div>","null","",""
"","","","","","html-button-response","32","195223","0.0-32.0","9C1D96388F4948BBBBAD48D00B5E17EA","0199d0a7-d8dc-7f36-85cd-47bc9147cfb3","0199d096-ba1e-7664-9b18-6b0b7f11fd27","","3823","
        <div style=""display: flex; justify-content: center; align-items: center;"">
          <img src=""images/red_deck_2.png"" style=""width: 300px; height: 300px; margin-right: 10px;"" />
          <img src=""images/blue_deck_1.png"" style=""width: 300px; height: 300px;"" />
        </div>","0","0",""
"","","","","","html-keyboard-response","33","202226","0.0-33.0-0.0-0.0","9C1D96388F4948BBBBAD48D00B5E17EA","0199d0a7-d8dc-7f36-85cd-47bc9147cfb3","0199d096-ba1e-7664-9b18-6b0b7f11fd27","","null","<div style=""display: flex; justify-content: center; align-items: center;"">
                     <img src=""images/causal/causal_series_2/causal_series_2_d.png"" style=""width: 300px; height: 300px;"" />
                   </div>","null","",""
"","","","","","survey-likert","34","205232","0.0-34.0","9C1D96388F4948BBBBAD48D00B5E17EA","0199d0a7-d8dc-7f36-85cd-47bc9147cfb3","0199d096-ba1e-7664-9b18-6b0b7f11fd27","","3005","","{""Q0"":3}","","[0]"
"","","","","","survey-likert","35","210307","0.0-35.0","9C1D96388F4948BBBBAD48D00B5E17EA","0199d0a7-d8dc-7f36-85cd-47bc9147cfb3","0199d096-ba1e-7664-9b18-6b0b7f11fd27","","5073","","{""Q0"":3}","","[0]"
"","","","","","html-keyboard-response","36","217310","0.0-36.0","9C1D96388F4948BBBBAD48D00B5E17EA","0199d0a7-d8dc-7f36-85cd-47bc9147cfb3","0199d096-ba1e-7664-9b18-6b0b7f11fd27","","null","<div style=""display: flex; justify-content: center; align-items: center;"">
                     <img src=""images/other/blank.png"" style=""width: 300px; height: 300px;"" />
                   </div>","null","",""
"","","","","","html-keyboard-response","37","224314","0.0-37.0","9C1D96388F4948BBBBAD48D00B5E17EA","0199d0a7-d8dc-7f36-85cd-47bc9147cfb3","0199d096-ba1e-7664-9b18-6b0b7f11fd27","","null","<div style=""display: flex; justify-content: center; align-items: center;"">
                     <img src=""images/causal/causal_series_4/causal_series_4_a.png"" style=""width: 300px; height: 300px;"" />
                   </div>","null","",""
"","","","","","html-keyboard-response","38","231317","0.0-38.0","9C1D96388F4948BBBBAD48D00B5E17EA","0199d0a7-d8dc-7f36-85cd-47bc9147cfb3","0199d096-ba1e-7664-9b18-6b0b7f11fd27","","null","<div style=""display: flex; justify-content: center; align-items: center;"">
                     <img src=""images/causal/causal_series_4/causal_series_4_b.png"" style=""width: 300px; height: 300px;"" />
                   </div>","null","",""
"","","","","","html-keyboard-response","39","238321","0.0-39.0","9C1D96388F4948BBBBAD48D00B5E17EA","0199d0a7-d8dc-7f36-85cd-47bc9147cfb3","0199d096-ba1e-7664-9b18-6b0b7f11fd27","","null","<div style=""display: flex; justify-content: center; align-items: center;"">
                     <img src=""images/causal/causal_series_4/causal_series_4_c.png"" style=""width: 300px; height: 300px;"" />
                   </div>","null","",""
"","","","","","html-button-response","40","240241","0.0-40.0","9C1D96388F4948BBBBAD48D00B5E17EA","0199d0a7-d8dc-7f36-85cd-47bc9147cfb3","0199d096-ba1e-7664-9b18-6b0b7f11fd27","","1918","
        <div style=""display: flex; justify-content: center; align-items: center;"">
          <img src=""images/red_deck_2.png"" style=""width: 300px; height: 300px; margin-right: 10px;"" />
          <img src=""images/blue_deck_1.png"" style=""width: 300px; height: 300px;"" />
        </div>","1","1",""
"","","","","","html-keyboard-response","41","247245","0.0-41.0-1.0-0.0","9C1D96388F4948BBBBAD48D00B5E17EA","0199d0a7-d8dc-7f36-85cd-47bc9147cfb3","0199d096-ba1e-7664-9b18-6b0b7f11fd27","","null","<div style=""display: flex; justify-content: center; align-items: center;"">
                     <img src=""images/semantic/semantic_series_4/semantic_series_4_d.png"" style=""width: 300px; height: 300px;"" />
                   </div>","null","",""
"","","","","","survey-likert","42","250319","0.0-42.0","9C1D96388F4948BBBBAD48D00B5E17EA","0199d0a7-d8dc-7f36-85cd-47bc9147cfb3","0199d096-ba1e-7664-9b18-6b0b7f11fd27","","3072","","{""Q0"":1}","","[0]"
"","","","","","survey-likert","43","253152","0.0-43.0","9C1D96388F4948BBBBAD48D00B5E17EA","0199d0a7-d8dc-7f36-85cd-47bc9147cfb3","0199d096-ba1e-7664-9b18-6b0b7f11fd27","","2831","","{""Q0"":1}","","[0]"
"","","","","","html-keyboard-response","44","260155","0.0-44.0","9C1D96388F4948BBBBAD48D00B5E17EA","0199d0a7-d8dc-7f36-85cd-47bc9147cfb3","0199d096-ba1e-7664-9b18-6b0b7f11fd27","","null","<div style=""display: flex; justify-content: center; align-items: center;"">
                     <img src=""images/other/blank.png"" style=""width: 300px; height: 300px;"" />
                   </div>","null","",""
"","","","","","html-keyboard-response","45","267157","0.0-45.0","9C1D96388F4948BBBBAD48D00B5E17EA","0199d0a7-d8dc-7f36-85cd-47bc9147cfb3","0199d096-ba1e-7664-9b18-6b0b7f11fd27","","null","<div style=""display: flex; justify-content: center; align-items: center;"">
                     <img src=""images/causal/causal_series_5/causal_series_5_a.png"" style=""width: 300px; height: 300px;"" />
                   </div>","null","",""
"","","","","","html-keyboard-response","46","274160","0.0-46.0","9C1D96388F4948BBBBAD48D00B5E17EA","0199d0a7-d8dc-7f36-85cd-47bc9147cfb3","0199d096-ba1e-7664-9b18-6b0b7f11fd27","","null","<div style=""display: flex; justify-content: center; align-items: center;"">
                     <img src=""images/causal/causal_series_5/causal_series_5_b.png"" style=""width: 300px; height: 300px;"" />
                   </div>","null","",""
"","","","","","html-keyboard-response","47","281163","0.0-47.0","9C1D96388F4948BBBBAD48D00B5E17EA","0199d0a7-d8dc-7f36-85cd-47bc9147cfb3","0199d096-ba1e-7664-9b18-6b0b7f11fd27","","null","<div style=""display: flex; justify-content: center; align-items: center;"">
                     <img src=""images/causal/causal_series_5/causal_series_5_c.png"" style=""width: 300px; height: 300px;"" />
                   </div>","null","",""
"","","","","","html-button-response","48","283039","0.0-48.0","9C1D96388F4948BBBBAD48D00B5E17EA","0199d0a7-d8dc-7f36-85cd-47bc9147cfb3","0199d096-ba1e-7664-9b18-6b0b7f11fd27","","1873","
        <div style=""display: flex; justify-content: center; align-items: center;"">
          <img src=""images/red_deck_2.png"" style=""width: 300px; height: 300px; margin-right: 10px;"" />
          <img src=""images/blue_deck_1.png"" style=""width: 300px; height: 300px;"" />
        </div>","0","0",""
"","","","","","html-keyboard-response","49","290041","0.0-49.0-0.0-0.0","9C1D96388F4948BBBBAD48D00B5E17EA","0199d0a7-d8dc-7f36-85cd-47bc9147cfb3","0199d096-ba1e-7664-9b18-6b0b7f11fd27","","null","<div style=""display: flex; justify-content: center; align-items: center;"">
                     <img src=""images/causal/causal_series_5/causal_series_5_d.png"" style=""width: 300px; height: 300px;"" />
                   </div>","null","",""
"","","","","","survey-likert","50","292052","0.0-50.0","9C1D96388F4948BBBBAD48D00B5E17EA","0199d0a7-d8dc-7f36-85cd-47bc9147cfb3","0199d096-ba1e-7664-9b18-6b0b7f11fd27","","2010","","{""Q0"":2}","","[0]"
"","","","","","survey-likert","51","294952","0.0-51.0","9C1D96388F4948BBBBAD48D00B5E17EA","0199d0a7-d8dc-7f36-85cd-47bc9147cfb3","0199d096-ba1e-7664-9b18-6b0b7f11fd27","","2898","","{""Q0"":1}","","[0]"
"","","","","","html-keyboard-response","52","301955","0.0-52.0","9C1D96388F4948BBBBAD48D00B5E17EA","0199d0a7-d8dc-7f36-85cd-47bc9147cfb3","0199d096-ba1e-7664-9b18-6b0b7f11fd27","","null","<div style=""display: flex; justify-content: center; align-items: center;"">
                     <img src=""images/other/blank.png"" style=""width: 300px; height: 300px;"" />
                   </div>","null","",""
"","","","","","html-keyboard-response","53","308959","0.0-53.0","9C1D96388F4948BBBBAD48D00B5E17EA","0199d0a7-d8dc-7f36-85cd-47bc9147cfb3","0199d096-ba1e-7664-9b18-6b0b7f11fd27","","null","<div style=""display: flex; justify-content: center; align-items: center;"">
                     <img src=""images/causal/causal_series_7/causal_series_7_a.png"" style=""width: 300px; height: 300px;"" />
                   </div>","null","",""
"","","","","","html-keyboard-response","54","315962","0.0-54.0","9C1D96388F4948BBBBAD48D00B5E17EA","0199d0a7-d8dc-7f36-85cd-47bc9147cfb3","0199d096-ba1e-7664-9b18-6b0b7f11fd27","","null","<div style=""display: flex; justify-content: center; align-items: center;"">
                     <img src=""images/causal/causal_series_7/causal_series_7_b.png"" style=""width: 300px; height: 300px;"" />
                   </div>","null","",""
"","","","","","html-keyboard-response","55","322965","0.0-55.0","9C1D96388F4948BBBBAD48D00B5E17EA","0199d0a7-d8dc-7f36-85cd-47bc9147cfb3","0199d096-ba1e-7664-9b18-6b0b7f11fd27","","null","<div style=""display: flex; justify-content: center; align-items: center;"">
                     <img src=""images/causal/causal_series_7/causal_series_7_c.png"" style=""width: 300px; height: 300px;"" />
                   </div>","null","",""
"","","","","","html-button-response","56","325478","0.0-56.0","9C1D96388F4948BBBBAD48D00B5E17EA","0199d0a7-d8dc-7f36-85cd-47bc9147cfb3","0199d096-ba1e-7664-9b18-6b0b7f11fd27","","2511","
        <div style=""display: flex; justify-content: center; align-items: center;"">
          <img src=""images/red_deck_2.png"" style=""width: 300px; height: 300px; margin-right: 10px;"" />
          <img src=""images/blue_deck_1.png"" style=""width: 300px; height: 300px;"" />
        </div>","1","1",""
"","","","","","html-keyboard-response","57","332481","0.0-57.0-1.0-0.0","9C1D96388F4948BBBBAD48D00B5E17EA","0199d0a7-d8dc-7f36-85cd-47bc9147cfb3","0199d096-ba1e-7664-9b18-6b0b7f11fd27","","null","<div style=""display: flex; justify-content: center; align-items: center;"">
                     <img src=""images/semantic/semantic_series_7/semantic_series_7_d.png"" style=""width: 300px; height: 300px;"" />
                   </div>","null","",""
"","","","","","survey-likert","58","337499","0.0-58.0","9C1D96388F4948BBBBAD48D00B5E17EA","0199d0a7-d8dc-7f36-85cd-47bc9147cfb3","0199d096-ba1e-7664-9b18-6b0b7f11fd27","","5015","","{""Q0"":2}","","[0]"
"","","","","","survey-likert","59","338965","0.0-59.0","9C1D96388F4948BBBBAD48D00B5E17EA","0199d0a7-d8dc-7f36-85cd-47bc9147cfb3","0199d096-ba1e-7664-9b18-6b0b7f11fd27","","1465","","{""Q0"":2}","","[0]"
"","","","","","html-keyboard-response","60","345969","0.0-60.0","9C1D96388F4948BBBBAD48D00B5E17EA","0199d0a7-d8dc-7f36-85cd-47bc9147cfb3","0199d096-ba1e-7664-9b18-6b0b7f11fd27","","null","<div style=""display: flex; justify-content: center; align-items: center;"">
                     <img src=""images/other/blank.png"" style=""width: 300px; height: 300px;"" />
                   </div>","null","",""
"","","","","","html-keyboard-response","61","352973","0.0-61.0","9C1D96388F4948BBBBAD48D00B5E17EA","0199d0a7-d8dc-7f36-85cd-47bc9147cfb3","0199d096-ba1e-7664-9b18-6b0b7f11fd27","","null","<div style=""display: flex; justify-content: center; align-items: center;"">
                     <img src=""images/causal/causal_series_8/causal_series_8_a.png"" style=""width: 300px; height: 300px;"" />
                   </div>","null","",""
"","","","","","html-keyboard-response","62","359976","0.0-62.0","9C1D96388F4948BBBBAD48D00B5E17EA","0199d0a7-d8dc-7f36-85cd-47bc9147cfb3","0199d096-ba1e-7664-9b18-6b0b7f11fd27","","null","<div style=""display: flex; justify-content: center; align-items: center;"">
                     <img src=""images/causal/causal_series_8/causal_series_8_b.png"" style=""width: 300px; height: 300px;"" />
                   </div>","null","",""
"","","","","","html-keyboard-response","63","366979","0.0-63.0","9C1D96388F4948BBBBAD48D00B5E17EA","0199d0a7-d8dc-7f36-85cd-47bc9147cfb3","0199d096-ba1e-7664-9b18-6b0b7f11fd27","","null","<div style=""display: flex; justify-content: center; align-items: center;"">
                     <img src=""images/causal/causal_series_8/causal_series_8_c.png"" style=""width: 300px; height: 300px;"" />
                   </div>","null","",""
"","","","","","html-button-response","64","369006","0.0-64.0","9C1D96388F4948BBBBAD48D00B5E17EA","0199d0a7-d8dc-7f36-85cd-47bc9147cfb3","0199d096-ba1e-7664-9b18-6b0b7f11fd27","","2025","
        <div style=""display: flex; justify-content: center; align-items: center;"">
          <img src=""images/red_deck_2.png"" style=""width: 300px; height: 300px; margin-right: 10px;"" />
          <img src=""images/blue_deck_1.png"" style=""width: 300px; height: 300px;"" />
        </div>","1","1",""
"","","","","","html-keyboard-response","65","376007","0.0-65.0-1.0-0.0","9C1D96388F4948BBBBAD48D00B5E17EA","0199d0a7-d8dc-7f36-85cd-47bc9147cfb3","0199d096-ba1e-7664-9b18-6b0b7f11fd27","","null","<div style=""display: flex; justify-content: center; align-items: center;"">
                     <img src=""images/semantic/semantic_series_8/semantic_series_8_d.png"" style=""width: 300px; height: 300px;"" />
                   </div>","null","",""
"","","","","","survey-likert","66","377782","0.0-66.0","9C1D96388F4948BBBBAD48D00B5E17EA","0199d0a7-d8dc-7f36-85cd-47bc9147cfb3","0199d096-ba1e-7664-9b18-6b0b7f11fd27","","1773","","{""Q0"":1}","","[0]"
"","","","","","survey-likert","67","379354","0.0-67.0","9C1D96388F4948BBBBAD48D00B5E17EA","0199d0a7-d8dc-7f36-85cd-47bc9147cfb3","0199d096-ba1e-7664-9b18-6b0b7f11fd27","","1569","","{""Q0"":1}","","[0]"
"","","","","","html-keyboard-response","68","386356","0.0-68.0","9C1D96388F4948BBBBAD48D00B5E17EA","0199d0a7-d8dc-7f36-85cd-47bc9147cfb3","0199d096-ba1e-7664-9b18-6b0b7f11fd27","","null","<div style=""display: flex; justify-content: center; align-items: center;"">
                     <img src=""images/other/blank.png"" style=""width: 300px; height: 300px;"" />
                   </div>","null","",""
"","","","","","html-keyboard-response","69","393358","0.0-69.0","9C1D96388F4948BBBBAD48D00B5E17EA","0199d0a7-d8dc-7f36-85cd-47bc9147cfb3","0199d096-ba1e-7664-9b18-6b0b7f11fd27","","null","<div style=""display: flex; justify-content: center; align-items: center;"">
                     <img src=""images/causal/causal_series_3/causal_series_3_a.png"" style=""width: 300px; height: 300px;"" />
                   </div>","null","",""
"","","","","","html-keyboard-response","70","400362","0.0-70.0","9C1D96388F4948BBBBAD48D00B5E17EA","0199d0a7-d8dc-7f36-85cd-47bc9147cfb3","0199d096-ba1e-7664-9b18-6b0b7f11fd27","","null","<div style=""display: flex; justify-content: center; align-items: center;"">
                     <img src=""images/causal/causal_series_3/causal_series_3_b.png"" style=""width: 300px; height: 300px;"" />
                   </div>","null","",""
"","","","","","html-keyboard-response","71","407365","0.0-71.0","9C1D96388F4948BBBBAD48D00B5E17EA","0199d0a7-d8dc-7f36-85cd-47bc9147cfb3","0199d096-ba1e-7664-9b18-6b0b7f11fd27","","null","<div style=""display: flex; justify-content: center; align-items: center;"">
                     <img src=""images/causal/causal_series_3/causal_series_3_c.png"" style=""width: 300px; height: 300px;"" />
                   </div>","null","",""
"","","","","","html-button-response","72","408925","0.0-72.0","9C1D96388F4948BBBBAD48D00B5E17EA","0199d0a7-d8dc-7f36-85cd-47bc9147cfb3","0199d096-ba1e-7664-9b18-6b0b7f11fd27","","1557","
        <div style=""display: flex; justify-content: center; align-items: center;"">
          <img src=""images/red_deck_2.png"" style=""width: 300px; height: 300px; margin-right: 10px;"" />
          <img src=""images/blue_deck_1.png"" style=""width: 300px; height: 300px;"" />
        </div>","0","0",""
"","","","","","html-keyboard-response","73","415927","0.0-73.0-0.0-0.0","9C1D96388F4948BBBBAD48D00B5E17EA","0199d0a7-d8dc-7f36-85cd-47bc9147cfb3","0199d096-ba1e-7664-9b18-6b0b7f11fd27","","null","<div style=""display: flex; justify-content: center; align-items: center;"">
                     <img src=""images/causal/causal_series_3/causal_series_3_d.png"" style=""width: 300px; height: 300px;"" />
                   </div>","null","",""
"","","","","","survey-likert","74","418137","0.0-74.0","9C1D96388F4948BBBBAD48D00B5E17EA","0199d0a7-d8dc-7f36-85cd-47bc9147cfb3","0199d096-ba1e-7664-9b18-6b0b7f11fd27","","2207","","{""Q0"":2}","","[0]"
"","","","","","survey-likert","75","420850","0.0-75.0","9C1D96388F4948BBBBAD48D00B5E17EA","0199d0a7-d8dc-7f36-85cd-47bc9147cfb3","0199d096-ba1e-7664-9b18-6b0b7f11fd27","","2711","","{""Q0"":3}","","[0]"
"","","","","","html-keyboard-response","76","427853","0.0-76.0","9C1D96388F4948BBBBAD48D00B5E17EA","0199d0a7-d8dc-7f36-85cd-47bc9147cfb3","0199d096-ba1e-7664-9b18-6b0b7f11fd27","","null","<div style=""display: flex; justify-content: center; align-items: center;"">
                     <img src=""images/other/blank.png"" style=""width: 300px; height: 300px;"" />
                   </div>","null","",""
"","","","","","html-keyboard-response","77","434855","0.0-77.0","9C1D96388F4948BBBBAD48D00B5E17EA","0199d0a7-d8dc-7f36-85cd-47bc9147cfb3","0199d096-ba1e-7664-9b18-6b0b7f11fd27","","null","<div style=""display: flex; justify-content: center; align-items: center;"">
                     <img src=""images/causal/causal_series_1/causal_series_1_a.png"" style=""width: 300px; height: 300px;"" />
                   </div>","null","",""
"","","","","","html-keyboard-response","78","441857","0.0-78.0","9C1D96388F4948BBBBAD48D00B5E17EA","0199d0a7-d8dc-7f36-85cd-47bc9147cfb3","0199d096-ba1e-7664-9b18-6b0b7f11fd27","","null","<div style=""display: flex; justify-content: center; align-items: center;"">
                     <img src=""images/causal/causal_series_1/causal_series_1_b.png"" style=""width: 300px; height: 300px;"" />
                   </div>","null","",""
"","","","","","html-keyboard-response","79","448860","0.0-79.0","9C1D96388F4948BBBBAD48D00B5E17EA","0199d0a7-d8dc-7f36-85cd-47bc9147cfb3","0199d096-ba1e-7664-9b18-6b0b7f11fd27","","null","<div style=""display: flex; justify-content: center; align-items: center;"">
                     <img src=""images/causal/causal_series_1/causal_series_1_c.png"" style=""width: 300px; height: 300px;"" />
                   </div>","null","",""
"","","","","","html-button-response","80","450041","0.0-80.0","9C1D96388F4948BBBBAD48D00B5E17EA","0199d0a7-d8dc-7f36-85cd-47bc9147cfb3","0199d096-ba1e-7664-9b18-6b0b7f11fd27","","1178","
        <div style=""display: flex; justify-content: center; align-items: center;"">
          <img src=""images/red_deck_2.png"" style=""width: 300px; height: 300px; margin-right: 10px;"" />
          <img src=""images/blue_deck_1.png"" style=""width: 300px; height: 300px;"" />
        </div>","0","0",""
"","","","","","html-keyboard-response","81","457044","0.0-81.0-0.0-0.0","9C1D96388F4948BBBBAD48D00B5E17EA","0199d0a7-d8dc-7f36-85cd-47bc9147cfb3","0199d096-ba1e-7664-9b18-6b0b7f11fd27","","null","<div style=""display: flex; justify-content: center; align-items: center;"">
                     <img src=""images/causal/causal_series_1/causal_series_1_d.png"" style=""width: 300px; height: 300px;"" />
                   </div>","null","",""
"","","","","","survey-likert","82","461750","0.0-82.0","9C1D96388F4948BBBBAD48D00B5E17EA","0199d0a7-d8dc-7f36-85cd-47bc9147cfb3","0199d096-ba1e-7664-9b18-6b0b7f11fd27","","4703","","{""Q0"":2}","","[0]"
"","","","","","survey-likert","83","464342","0.0-83.0","9C1D96388F4948BBBBAD48D00B5E17EA","0199d0a7-d8dc-7f36-85cd-47bc9147cfb3","0199d096-ba1e-7664-9b18-6b0b7f11fd27","","2590","","{""Q0"":1}","","[0]"
"","","","","","html-keyboard-response","84","471345","0.0-84.0","9C1D96388F4948BBBBAD48D00B5E17EA","0199d0a7-d8dc-7f36-85cd-47bc9147cfb3","0199d096-ba1e-7664-9b18-6b0b7f11fd27","","null","<div style=""display: flex; justify-content: center; align-items: center;"">
                     <img src=""images/other/blank.png"" style=""width: 300px; height: 300px;"" />
                   </div>","null","",""
"","","","","","survey-text","85","499378","0.0-85.0","9C1D96388F4948BBBBAD48D00B5E17EA","0199d0a7-d8dc-7f36-85cd-47bc9147cfb3","0199d096-ba1e-7664-9b18-6b0b7f11fd27","","28027","","{""Q0"":""Red was more humorous situations/outrageous vs blue was more realistic.""}","",""
"","","","","","html-button-response","86","507623","0.0-86.0","9C1D96388F4948BBBBAD48D00B5E17EA","0199d0a7-d8dc-7f36-85cd-47bc9147cfb3","0199d096-ba1e-7664-9b18-6b0b7f11fd27","","8244","Which color deck do the following images continue the story from?","0","",""
"","","","","","html-button-response","87","509444","0.0-87.0","9C1D96388F4948BBBBAD48D00B5E17EA","0199d0a7-d8dc-7f36-85cd-47bc9147cfb3","0199d096-ba1e-7664-9b18-6b0b7f11fd27","","1819","Which color deck do the following images NOT follow the story from?","1","",""
"","","","","","html-button-response","88","514840","0.0-88.0","9C1D96388F4948BBBBAD48D00B5E17EA","0199d0a7-d8dc-7f36-85cd-47bc9147cfb3","0199d096-ba1e-7664-9b18-6b0b7f11fd27","","5394","Which type of deck did you prefer overall?","0","",""
"","","","","","survey-text","89","520301","0.0-89.0","9C1D96388F4948BBBBAD48D00B5E17EA","0199d0a7-d8dc-7f36-85cd-47bc9147cfb3","0199d096-ba1e-7664-9b18-6b0b7f11fd27","","5459","","{""Q0"":""Female"",""Q1"":""27""}","",""
"","","","","","instructions","90","524428","0.0-90.0","9C1D96388F4948BBBBAD48D00B5E17EA","0199d0a7-d8dc-7f36-85cd-47bc9147cfb3","0199d096-ba1e-7664-9b18-6b0b7f11fd27","[{""page_index"":0,""viewing_time"":4125}]","4126","","","",""
