"success","timeout","failed_images","failed_audio","failed_video","trial_type","trial_index","time_elapsed","internal_node_id","subject_id","study_id","session_id","view_history","rt","stimulus","response","series","repetition","phase","choice","question_order"
"true","false","[]","[]","[]","preload","0","306","0.0-0.0","17C340CB21144C2EAE767EAF1BB9688C","0199d680-1cf6-7b58-8d91-018255097781","0199d675-8795-765b-adc2-c813de8cd3d1","","","","","","","","",""
"","","","","","instructions","1","5539","0.0-1.0","17C340CB21144C2EAE767EAF1BB9688C","0199d680-1cf6-7b58-8d91-018255097781","0199d675-8795-765b-adc2-c813de8cd3d1","[{""page_index"":0,""viewing_time"":5230}]","5230","","","","","","",""
"","","","","","instructions","2","8537","0.0-2.0","17C340CB21144C2EAE767EAF1BB9688C","0199d680-1cf6-7b58-8d91-018255097781","0199d675-8795-765b-adc2-c813de8cd3d1","[{""page_index"":0,""viewing_time"":2998}]","2998","","","","","","",""
"true","","","","","fullscreen","3","11018","0.0-3.0","17C340CB21144C2EAE767EAF1BB9688C","0199d680-1cf6-7b58-8d91-018255097781","0199d675-8795-765b-adc2-c813de8cd3d1","","1477","","","","","","",""
"","","","","","instructions","4","132584","0.0-4.0","17C340CB21144C2EAE767EAF1BB9688C","0199d680-1cf6-7b58-8d91-018255097781","0199d675-8795-765b-adc2-c813de8cd3d1","[{""page_index"":0,""viewing_time"":121565}]","121565","","","","","","",""
"","","","","","html-keyboard-response","5","138595","0.0-5.0","17C340CB21144C2EAE767EAF1BB9688C","0199d680-1cf6-7b58-8d91-018255097781","0199d675-8795-765b-adc2-c813de8cd3d1","","null","<div style=""display: flex; justify-content: center; align-items: center;"">
                     <img src=""images/causal/causal_series_1/causal_series_1_a.png"" style=""width: 300px; height: 300px;"" />
                   </div>","null","1","1","A","",""
"","","","","","html-button-response","6","143593","0.0-6.0","17C340CB21144C2EAE767EAF1BB9688C","0199d680-1cf6-7b58-8d91-018255097781","0199d675-8795-765b-adc2-c813de8cd3d1","","4996","
        <div style=""display: flex; justify-content: center; align-items: center;"">
          <img src=""images/red_deck_2.png"" style=""width: 300px; height: 300px; margin-right: 10px;"" />
          <img src=""images/blue_deck_1.png"" style=""width: 300px; height: 300px;"" />
        </div>","0","1","1","choice","0",""
"","","","","","html-keyboard-response","7","149599","0.0-7.0-0.0-0.0","17C340CB21144C2EAE767EAF1BB9688C","0199d680-1cf6-7b58-8d91-018255097781","0199d675-8795-765b-adc2-c813de8cd3d1","","null","<div style=""display: flex; justify-content: center; align-items: center;"">
                     <img src=""images/causal/causal_series_1/causal_series_1_b.png"" style=""width: 300px; height: 300px;"" />
                   </div>","null","1","1","B","",""
"","","","","","html-keyboard-response","8","155610","0.0-7.0-0.0-1.0","17C340CB21144C2EAE767EAF1BB9688C","0199d680-1cf6-7b58-8d91-018255097781","0199d675-8795-765b-adc2-c813de8cd3d1","","null","<div style=""display: flex; justify-content: center; align-items: center;"">
                     <img src=""images/causal/causal_series_1/causal_series_1_c.png"" style=""width: 300px; height: 300px;"" />
                   </div>","null","1","1","C","",""
"","","","","","html-keyboard-response","9","161615","0.0-7.0-0.0-2.0","17C340CB21144C2EAE767EAF1BB9688C","0199d680-1cf6-7b58-8d91-018255097781","0199d675-8795-765b-adc2-c813de8cd3d1","","null","<div style=""display: flex; justify-content: center; align-items: center;"">
                     <img src=""images/causal/causal_series_1/causal_series_1_d.png"" style=""width: 300px; height: 300px;"" />
                   </div>","null","1","1","D","",""
"","","","","","survey-likert","10","166391","0.0-8.0","17C340CB21144C2EAE767EAF1BB9688C","0199d680-1cf6-7b58-8d91-018255097781","0199d675-8795-765b-adc2-c813de8cd3d1","","4773","","{""Q0"":4}","1","1","surprise_rating","","[0]"
"","","","","","survey-likert","11","172139","0.0-9.0","17C340CB21144C2EAE767EAF1BB9688C","0199d680-1cf6-7b58-8d91-018255097781","0199d675-8795-765b-adc2-c813de8cd3d1","","5748","","{""Q0"":4}","1","1","enjoyment_rating","","[0]"
"","","","","","html-keyboard-response","12","178157","0.0-10.0","17C340CB21144C2EAE767EAF1BB9688C","0199d680-1cf6-7b58-8d91-018255097781","0199d675-8795-765b-adc2-c813de8cd3d1","","null","<div style=""display: flex; justify-content: center; align-items: center;"">
                     <img src=""images/other/blank.png"" style=""width: 300px; height: 300px;"" />
                   </div>","null","0","0","blank","",""
"","","","","","html-keyboard-response","13","184164","0.0-11.0","17C340CB21144C2EAE767EAF1BB9688C","0199d680-1cf6-7b58-8d91-018255097781","0199d675-8795-765b-adc2-c813de8cd3d1","","null","<div style=""display: flex; justify-content: center; align-items: center;"">
                     <img src=""images/causal/causal_series_6/causal_series_6_a.png"" style=""width: 300px; height: 300px;"" />
                   </div>","null","6","1","A","",""
"","","","","","html-button-response","14","186727","0.0-12.0","17C340CB21144C2EAE767EAF1BB9688C","0199d680-1cf6-7b58-8d91-018255097781","0199d675-8795-765b-adc2-c813de8cd3d1","","2562","
        <div style=""display: flex; justify-content: center; align-items: center;"">
          <img src=""images/red_deck_2.png"" style=""width: 300px; height: 300px; margin-right: 10px;"" />
          <img src=""images/blue_deck_1.png"" style=""width: 300px; height: 300px;"" />
        </div>","1","6","1","choice","1",""
"","","","","","html-keyboard-response","15","192742","0.0-13.0-1.0-0.0","17C340CB21144C2EAE767EAF1BB9688C","0199d680-1cf6-7b58-8d91-018255097781","0199d675-8795-765b-adc2-c813de8cd3d1","","null","<div style=""display: flex; justify-content: center; align-items: center;"">
                     <img src=""images/semantic/semantic_series_6/semantic_series_6_b.png"" style=""width: 300px; height: 300px;"" />
                   </div>","null","6","1","B","",""
"","","","","","html-keyboard-response","16","198755","0.0-13.0-1.0-1.0","17C340CB21144C2EAE767EAF1BB9688C","0199d680-1cf6-7b58-8d91-018255097781","0199d675-8795-765b-adc2-c813de8cd3d1","","null","<div style=""display: flex; justify-content: center; align-items: center;"">
                     <img src=""images/semantic/semantic_series_6/semantic_series_6_c.png"" style=""width: 300px; height: 300px;"" />
                   </div>","null","6","1","C","",""
"","","","","","html-keyboard-response","17","204771","0.0-13.0-1.0-2.0","17C340CB21144C2EAE767EAF1BB9688C","0199d680-1cf6-7b58-8d91-018255097781","0199d675-8795-765b-adc2-c813de8cd3d1","","null","<div style=""display: flex; justify-content: center; align-items: center;"">
                     <img src=""images/semantic/semantic_series_6/semantic_series_6_d.png"" style=""width: 300px; height: 300px;"" />
                   </div>","null","6","1","D","",""
"","","","","","survey-likert","18","214343","0.0-14.0","17C340CB21144C2EAE767EAF1BB9688C","0199d680-1cf6-7b58-8d91-018255097781","0199d675-8795-765b-adc2-c813de8cd3d1","","9571","","{""Q0"":2}","6","1","surprise_rating","","[0]"
"","","","","","survey-likert","19","217355","0.0-15.0","17C340CB21144C2EAE767EAF1BB9688C","0199d680-1cf6-7b58-8d91-018255097781","0199d675-8795-765b-adc2-c813de8cd3d1","","3011","","{""Q0"":1}","6","1","enjoyment_rating","","[0]"
"","","","","","html-keyboard-response","20","223361","0.0-16.0","17C340CB21144C2EAE767EAF1BB9688C","0199d680-1cf6-7b58-8d91-018255097781","0199d675-8795-765b-adc2-c813de8cd3d1","","null","<div style=""display: flex; justify-content: center; align-items: center;"">
                     <img src=""images/other/blank.png"" style=""width: 300px; height: 300px;"" />
                   </div>","null","0","0","blank","",""
"","","","","","html-keyboard-response","21","229378","0.0-17.0","17C340CB21144C2EAE767EAF1BB9688C","0199d680-1cf6-7b58-8d91-018255097781","0199d675-8795-765b-adc2-c813de8cd3d1","","null","<div style=""display: flex; justify-content: center; align-items: center;"">
                     <img src=""images/causal/causal_series_7/causal_series_7_a.png"" style=""width: 300px; height: 300px;"" />
                   </div>","null","7","2","A","",""
"","","","","","html-button-response","22","231233","0.0-18.0","17C340CB21144C2EAE767EAF1BB9688C","0199d680-1cf6-7b58-8d91-018255097781","0199d675-8795-765b-adc2-c813de8cd3d1","","1854","
        <div style=""display: flex; justify-content: center; align-items: center;"">
          <img src=""images/red_deck_2.png"" style=""width: 300px; height: 300px; margin-right: 10px;"" />
          <img src=""images/blue_deck_1.png"" style=""width: 300px; height: 300px;"" />
        </div>","0","7","2","choice","0",""
"","","","","","html-keyboard-response","23","237237","0.0-19.0-0.0-0.0","17C340CB21144C2EAE767EAF1BB9688C","0199d680-1cf6-7b58-8d91-018255097781","0199d675-8795-765b-adc2-c813de8cd3d1","","null","<div style=""display: flex; justify-content: center; align-items: center;"">
                     <img src=""images/causal/causal_series_7/causal_series_7_b.png"" style=""width: 300px; height: 300px;"" />
                   </div>","null","7","2","B","",""
"","","","","","html-keyboard-response","24","243254","0.0-19.0-0.0-1.0","17C340CB21144C2EAE767EAF1BB9688C","0199d680-1cf6-7b58-8d91-018255097781","0199d675-8795-765b-adc2-c813de8cd3d1","","null","<div style=""display: flex; justify-content: center; align-items: center;"">
                     <img src=""images/causal/causal_series_7/causal_series_7_c.png"" style=""width: 300px; height: 300px;"" />
                   </div>","null","7","2","C","",""
"","","","","","html-keyboard-response","25","249267","0.0-19.0-0.0-2.0","17C340CB21144C2EAE767EAF1BB9688C","0199d680-1cf6-7b58-8d91-018255097781","0199d675-8795-765b-adc2-c813de8cd3d1","","null","<div style=""display: flex; justify-content: center; align-items: center;"">
                     <img src=""images/causal/causal_series_7/causal_series_7_d.png"" style=""width: 300px; height: 300px;"" />
                   </div>","null","7","2","D","",""
"","","","","","survey-likert","26","254122","0.0-20.0","17C340CB21144C2EAE767EAF1BB9688C","0199d680-1cf6-7b58-8d91-018255097781","0199d675-8795-765b-adc2-c813de8cd3d1","","4854","","{""Q0"":0}","7","2","surprise_rating","","[0]"
"","","","","","survey-likert","27","258718","0.0-21.0","17C340CB21144C2EAE767EAF1BB9688C","0199d680-1cf6-7b58-8d91-018255097781","0199d675-8795-765b-adc2-c813de8cd3d1","","4596","","{""Q0"":3}","7","2","enjoyment_rating","","[0]"
"","","","","","html-keyboard-response","28","264727","0.0-22.0","17C340CB21144C2EAE767EAF1BB9688C","0199d680-1cf6-7b58-8d91-018255097781","0199d675-8795-765b-adc2-c813de8cd3d1","","null","<div style=""display: flex; justify-content: center; align-items: center;"">
                     <img src=""images/other/blank.png"" style=""width: 300px; height: 300px;"" />
                   </div>","null","0","0","blank","",""
"","","","","","html-keyboard-response","29","270730","0.0-23.0","17C340CB21144C2EAE767EAF1BB9688C","0199d680-1cf6-7b58-8d91-018255097781","0199d675-8795-765b-adc2-c813de8cd3d1","","null","<div style=""display: flex; justify-content: center; align-items: center;"">
                     <img src=""images/causal/causal_series_9/causal_series_9_a.png"" style=""width: 300px; height: 300px;"" />
                   </div>","null","9","2","A","",""
"","","","","","html-button-response","30","273469","0.0-24.0","17C340CB21144C2EAE767EAF1BB9688C","0199d680-1cf6-7b58-8d91-018255097781","0199d675-8795-765b-adc2-c813de8cd3d1","","2738","
        <div style=""display: flex; justify-content: center; align-items: center;"">
          <img src=""images/red_deck_2.png"" style=""width: 300px; height: 300px; margin-right: 10px;"" />
          <img src=""images/blue_deck_1.png"" style=""width: 300px; height: 300px;"" />
        </div>","1","9","2","choice","1",""
"","","","","","html-keyboard-response","31","279471","0.0-25.0-1.0-0.0","17C340CB21144C2EAE767EAF1BB9688C","0199d680-1cf6-7b58-8d91-018255097781","0199d675-8795-765b-adc2-c813de8cd3d1","","null","<div style=""display: flex; justify-content: center; align-items: center;"">
                     <img src=""images/semantic/semantic_series_9/semantic_series_9_b.png"" style=""width: 300px; height: 300px;"" />
                   </div>","null","9","2","B","",""
"","","","","","html-keyboard-response","32","285476","0.0-25.0-1.0-1.0","17C340CB21144C2EAE767EAF1BB9688C","0199d680-1cf6-7b58-8d91-018255097781","0199d675-8795-765b-adc2-c813de8cd3d1","","null","<div style=""display: flex; justify-content: center; align-items: center;"">
                     <img src=""images/semantic/semantic_series_9/semantic_series_9_c.png"" style=""width: 300px; height: 300px;"" />
                   </div>","null","9","2","C","",""
"","","","","","html-keyboard-response","33","291491","0.0-25.0-1.0-2.0","17C340CB21144C2EAE767EAF1BB9688C","0199d680-1cf6-7b58-8d91-018255097781","0199d675-8795-765b-adc2-c813de8cd3d1","","null","<div style=""display: flex; justify-content: center; align-items: center;"">
                     <img src=""images/semantic/semantic_series_9/semantic_series_9_d.png"" style=""width: 300px; height: 300px;"" />
                   </div>","null","9","2","D","",""
"","","","","","survey-likert","34","295650","0.0-26.0","17C340CB21144C2EAE767EAF1BB9688C","0199d680-1cf6-7b58-8d91-018255097781","0199d675-8795-765b-adc2-c813de8cd3d1","","4159","","{""Q0"":3}","9","2","surprise_rating","","[0]"
"","","","","","survey-likert","35","298668","0.0-27.0","17C340CB21144C2EAE767EAF1BB9688C","0199d680-1cf6-7b58-8d91-018255097781","0199d675-8795-765b-adc2-c813de8cd3d1","","3016","","{""Q0"":4}","9","2","enjoyment_rating","","[0]"
"","","","","","html-keyboard-response","36","304676","0.0-28.0","17C340CB21144C2EAE767EAF1BB9688C","0199d680-1cf6-7b58-8d91-018255097781","0199d675-8795-765b-adc2-c813de8cd3d1","","null","<div style=""display: flex; justify-content: center; align-items: center;"">
                     <img src=""images/other/blank.png"" style=""width: 300px; height: 300px;"" />
                   </div>","null","0","0","blank","",""
"","","","","","html-keyboard-response","37","310680","0.0-29.0","17C340CB21144C2EAE767EAF1BB9688C","0199d680-1cf6-7b58-8d91-018255097781","0199d675-8795-765b-adc2-c813de8cd3d1","","null","<div style=""display: flex; justify-content: center; align-items: center;"">
                     <img src=""images/causal/causal_series_4/causal_series_4_a.png"" style=""width: 300px; height: 300px;"" />
                   </div>","null","4","2","A","",""
"","","","","","html-button-response","38","314518","0.0-30.0","17C340CB21144C2EAE767EAF1BB9688C","0199d680-1cf6-7b58-8d91-018255097781","0199d675-8795-765b-adc2-c813de8cd3d1","","3835","
        <div style=""display: flex; justify-content: center; align-items: center;"">
          <img src=""images/red_deck_2.png"" style=""width: 300px; height: 300px; margin-right: 10px;"" />
          <img src=""images/blue_deck_1.png"" style=""width: 300px; height: 300px;"" />
        </div>","1","4","2","choice","1",""
"","","","","","html-keyboard-response","39","320528","0.0-31.0-1.0-0.0","17C340CB21144C2EAE767EAF1BB9688C","0199d680-1cf6-7b58-8d91-018255097781","0199d675-8795-765b-adc2-c813de8cd3d1","","null","<div style=""display: flex; justify-content: center; align-items: center;"">
                     <img src=""images/semantic/semantic_series_4/semantic_series_4_b.png"" style=""width: 300px; height: 300px;"" />
                   </div>","null","4","2","B","",""
"","","","","","html-keyboard-response","40","326529","0.0-31.0-1.0-1.0","17C340CB21144C2EAE767EAF1BB9688C","0199d680-1cf6-7b58-8d91-018255097781","0199d675-8795-765b-adc2-c813de8cd3d1","","null","<div style=""display: flex; justify-content: center; align-items: center;"">
                     <img src=""images/semantic/semantic_series_4/semantic_series_4_c.png"" style=""width: 300px; height: 300px;"" />
                   </div>","null","4","2","C","",""
"","","","","","html-keyboard-response","41","332540","0.0-31.0-1.0-2.0","17C340CB21144C2EAE767EAF1BB9688C","0199d680-1cf6-7b58-8d91-018255097781","0199d675-8795-765b-adc2-c813de8cd3d1","","null","<div style=""display: flex; justify-content: center; align-items: center;"">
                     <img src=""images/semantic/semantic_series_4/semantic_series_4_d.png"" style=""width: 300px; height: 300px;"" />
                   </div>","null","4","2","D","",""
"","","","","","survey-likert","42","336012","0.0-32.0","17C340CB21144C2EAE767EAF1BB9688C","0199d680-1cf6-7b58-8d91-018255097781","0199d675-8795-765b-adc2-c813de8cd3d1","","3472","","{""Q0"":4}","4","2","surprise_rating","","[0]"
"","","","","","survey-likert","43","340189","0.0-33.0","17C340CB21144C2EAE767EAF1BB9688C","0199d680-1cf6-7b58-8d91-018255097781","0199d675-8795-765b-adc2-c813de8cd3d1","","4175","","{""Q0"":2}","4","2","enjoyment_rating","","[0]"
"","","","","","html-keyboard-response","44","346200","0.0-34.0","17C340CB21144C2EAE767EAF1BB9688C","0199d680-1cf6-7b58-8d91-018255097781","0199d675-8795-765b-adc2-c813de8cd3d1","","null","<div style=""display: flex; justify-content: center; align-items: center;"">
                     <img src=""images/other/blank.png"" style=""width: 300px; height: 300px;"" />
                   </div>","null","0","0","blank","",""
"","","","","","html-keyboard-response","45","352203","0.0-35.0","17C340CB21144C2EAE767EAF1BB9688C","0199d680-1cf6-7b58-8d91-018255097781","0199d675-8795-765b-adc2-c813de8cd3d1","","null","<div style=""display: flex; justify-content: center; align-items: center;"">
                     <img src=""images/causal/causal_series_2/causal_series_2_a.png"" style=""width: 300px; height: 300px;"" />
                   </div>","null","2","2","A","",""
"","","","","","html-button-response","46","354403","0.0-36.0","17C340CB21144C2EAE767EAF1BB9688C","0199d680-1cf6-7b58-8d91-018255097781","0199d675-8795-765b-adc2-c813de8cd3d1","","2199","
        <div style=""display: flex; justify-content: center; align-items: center;"">
          <img src=""images/red_deck_2.png"" style=""width: 300px; height: 300px; margin-right: 10px;"" />
          <img src=""images/blue_deck_1.png"" style=""width: 300px; height: 300px;"" />
        </div>","0","2","2","choice","0",""
"","","","","","html-keyboard-response","47","360420","0.0-37.0-0.0-0.0","17C340CB21144C2EAE767EAF1BB9688C","0199d680-1cf6-7b58-8d91-018255097781","0199d675-8795-765b-adc2-c813de8cd3d1","","null","<div style=""display: flex; justify-content: center; align-items: center;"">
                     <img src=""images/causal/causal_series_2/causal_series_2_b.png"" style=""width: 300px; height: 300px;"" />
                   </div>","null","2","2","B","",""
"","","","","","html-keyboard-response","48","366429","0.0-37.0-0.0-1.0","17C340CB21144C2EAE767EAF1BB9688C","0199d680-1cf6-7b58-8d91-018255097781","0199d675-8795-765b-adc2-c813de8cd3d1","","null","<div style=""display: flex; justify-content: center; align-items: center;"">
                     <img src=""images/causal/causal_series_2/causal_series_2_c.png"" style=""width: 300px; height: 300px;"" />
                   </div>","null","2","2","C","",""
"","","","","","html-keyboard-response","49","372444","0.0-37.0-0.0-2.0","17C340CB21144C2EAE767EAF1BB9688C","0199d680-1cf6-7b58-8d91-018255097781","0199d675-8795-765b-adc2-c813de8cd3d1","","null","<div style=""display: flex; justify-content: center; align-items: center;"">
                     <img src=""images/causal/causal_series_2/causal_series_2_d.png"" style=""width: 300px; height: 300px;"" />
                   </div>","null","2","2","D","",""
"","","","","","survey-likert","50","378974","0.0-38.0","17C340CB21144C2EAE767EAF1BB9688C","0199d680-1cf6-7b58-8d91-018255097781","0199d675-8795-765b-adc2-c813de8cd3d1","","6528","","{""Q0"":1}","2","2","surprise_rating","","[0]"
"","","","","","survey-likert","51","382566","0.0-39.0","17C340CB21144C2EAE767EAF1BB9688C","0199d680-1cf6-7b58-8d91-018255097781","0199d675-8795-765b-adc2-c813de8cd3d1","","3591","","{""Q0"":2}","2","2","enjoyment_rating","","[0]"
"","","","","","html-keyboard-response","52","388574","0.0-40.0","17C340CB21144C2EAE767EAF1BB9688C","0199d680-1cf6-7b58-8d91-018255097781","0199d675-8795-765b-adc2-c813de8cd3d1","","null","<div style=""display: flex; justify-content: center; align-items: center;"">
                     <img src=""images/other/blank.png"" style=""width: 300px; height: 300px;"" />
                   </div>","null","0","0","blank","",""
"","","","","","html-keyboard-response","53","394589","0.0-41.0","17C340CB21144C2EAE767EAF1BB9688C","0199d680-1cf6-7b58-8d91-018255097781","0199d675-8795-765b-adc2-c813de8cd3d1","","null","<div style=""display: flex; justify-content: center; align-items: center;"">
                     <img src=""images/causal/causal_series_8/causal_series_8_a.png"" style=""width: 300px; height: 300px;"" />
                   </div>","null","8","2","A","",""
"","","","","","html-button-response","54","395864","0.0-42.0","17C340CB21144C2EAE767EAF1BB9688C","0199d680-1cf6-7b58-8d91-018255097781","0199d675-8795-765b-adc2-c813de8cd3d1","","1273","
        <div style=""display: flex; justify-content: center; align-items: center;"">
          <img src=""images/red_deck_2.png"" style=""width: 300px; height: 300px; margin-right: 10px;"" />
          <img src=""images/blue_deck_1.png"" style=""width: 300px; height: 300px;"" />
        </div>","0","8","2","choice","0",""
"","","","","","html-keyboard-response","55","401879","0.0-43.0-0.0-0.0","17C340CB21144C2EAE767EAF1BB9688C","0199d680-1cf6-7b58-8d91-018255097781","0199d675-8795-765b-adc2-c813de8cd3d1","","null","<div style=""display: flex; justify-content: center; align-items: center;"">
                     <img src=""images/causal/causal_series_8/causal_series_8_b.png"" style=""width: 300px; height: 300px;"" />
                   </div>","null","8","2","B","",""
"","","","","","html-keyboard-response","56","407892","0.0-43.0-0.0-1.0","17C340CB21144C2EAE767EAF1BB9688C","0199d680-1cf6-7b58-8d91-018255097781","0199d675-8795-765b-adc2-c813de8cd3d1","","null","<div style=""display: flex; justify-content: center; align-items: center;"">
                     <img src=""images/causal/causal_series_8/causal_series_8_c.png"" style=""width: 300px; height: 300px;"" />
                   </div>","null","8","2","C","",""
"","","","","","html-keyboard-response","57","413904","0.0-43.0-0.0-2.0","17C340CB21144C2EAE767EAF1BB9688C","0199d680-1cf6-7b58-8d91-018255097781","0199d675-8795-765b-adc2-c813de8cd3d1","","null","<div style=""display: flex; justify-content: center; align-items: center;"">
                     <img src=""images/causal/causal_series_8/causal_series_8_d.png"" style=""width: 300px; height: 300px;"" />
                   </div>","null","8","2","D","",""
"","","","","","survey-likert","58","418350","0.0-44.0","17C340CB21144C2EAE767EAF1BB9688C","0199d680-1cf6-7b58-8d91-018255097781","0199d675-8795-765b-adc2-c813de8cd3d1","","4446","","{""Q0"":2}","8","2","surprise_rating","","[0]"
"","","","","","survey-likert","59","420865","0.0-45.0","17C340CB21144C2EAE767EAF1BB9688C","0199d680-1cf6-7b58-8d91-018255097781","0199d675-8795-765b-adc2-c813de8cd3d1","","2513","","{""Q0"":0}","8","2","enjoyment_rating","","[0]"
"","","","","","html-keyboard-response","60","426872","0.0-46.0","17C340CB21144C2EAE767EAF1BB9688C","0199d680-1cf6-7b58-8d91-018255097781","0199d675-8795-765b-adc2-c813de8cd3d1","","null","<div style=""display: flex; justify-content: center; align-items: center;"">
                     <img src=""images/other/blank.png"" style=""width: 300px; height: 300px;"" />
                   </div>","null","0","0","blank","",""
"","","","","","html-keyboard-response","61","432882","0.0-47.0","17C340CB21144C2EAE767EAF1BB9688C","0199d680-1cf6-7b58-8d91-018255097781","0199d675-8795-765b-adc2-c813de8cd3d1","","null","<div style=""display: flex; justify-content: center; align-items: center;"">
                     <img src=""images/causal/causal_series_10/causal_series_10_a.png"" style=""width: 300px; height: 300px;"" />
                   </div>","null","10","1","A","",""
"","","","","","html-button-response","62","433997","0.0-48.0","17C340CB21144C2EAE767EAF1BB9688C","0199d680-1cf6-7b58-8d91-018255097781","0199d675-8795-765b-adc2-c813de8cd3d1","","1115","
        <div style=""display: flex; justify-content: center; align-items: center;"">
          <img src=""images/red_deck_2.png"" style=""width: 300px; height: 300px; margin-right: 10px;"" />
          <img src=""images/blue_deck_1.png"" style=""width: 300px; height: 300px;"" />
        </div>","0","10","1","choice","0",""
"","","","","","html-keyboard-response","63","440007","0.0-49.0-0.0-0.0","17C340CB21144C2EAE767EAF1BB9688C","0199d680-1cf6-7b58-8d91-018255097781","0199d675-8795-765b-adc2-c813de8cd3d1","","null","<div style=""display: flex; justify-content: center; align-items: center;"">
                     <img src=""images/causal/causal_series_10/causal_series_10_b.png"" style=""width: 300px; height: 300px;"" />
                   </div>","null","10","1","B","",""
"","","","","","html-keyboard-response","64","446013","0.0-49.0-0.0-1.0","17C340CB21144C2EAE767EAF1BB9688C","0199d680-1cf6-7b58-8d91-018255097781","0199d675-8795-765b-adc2-c813de8cd3d1","","null","<div style=""display: flex; justify-content: center; align-items: center;"">
                     <img src=""images/causal/causal_series_10/causal_series_10_c.png"" style=""width: 300px; height: 300px;"" />
                   </div>","null","10","1","C","",""
"","","","","","html-keyboard-response","65","452022","0.0-49.0-0.0-2.0","17C340CB21144C2EAE767EAF1BB9688C","0199d680-1cf6-7b58-8d91-018255097781","0199d675-8795-765b-adc2-c813de8cd3d1","","null","<div style=""display: flex; justify-content: center; align-items: center;"">
                     <img src=""images/causal/causal_series_10/causal_series_10_d.png"" style=""width: 300px; height: 300px;"" />
                   </div>","null","10","1","D","",""
"","","","","","survey-likert","66","457659","0.0-50.0","17C340CB21144C2EAE767EAF1BB9688C","0199d680-1cf6-7b58-8d91-018255097781","0199d675-8795-765b-adc2-c813de8cd3d1","","5635","","{""Q0"":0}","10","1","surprise_rating","","[0]"
"","","","","","survey-likert","67","461574","0.0-51.0","17C340CB21144C2EAE767EAF1BB9688C","0199d680-1cf6-7b58-8d91-018255097781","0199d675-8795-765b-adc2-c813de8cd3d1","","3914","","{""Q0"":0}","10","1","enjoyment_rating","","[0]"
"","","","","","html-keyboard-response","68","467580","0.0-52.0","17C340CB21144C2EAE767EAF1BB9688C","0199d680-1cf6-7b58-8d91-018255097781","0199d675-8795-765b-adc2-c813de8cd3d1","","null","<div style=""display: flex; justify-content: center; align-items: center;"">
                     <img src=""images/other/blank.png"" style=""width: 300px; height: 300px;"" />
                   </div>","null","0","0","blank","",""
"","","","","","html-keyboard-response","69","473587","0.0-53.0","17C340CB21144C2EAE767EAF1BB9688C","0199d680-1cf6-7b58-8d91-018255097781","0199d675-8795-765b-adc2-c813de8cd3d1","","null","<div style=""display: flex; justify-content: center; align-items: center;"">
                     <img src=""images/causal/causal_series_4/causal_series_4_a.png"" style=""width: 300px; height: 300px;"" />
                   </div>","null","4","1","A","",""
"","","","","","html-button-response","70","477618","0.0-54.0","17C340CB21144C2EAE767EAF1BB9688C","0199d680-1cf6-7b58-8d91-018255097781","0199d675-8795-765b-adc2-c813de8cd3d1","","4029","
        <div style=""display: flex; justify-content: center; align-items: center;"">
          <img src=""images/red_deck_2.png"" style=""width: 300px; height: 300px; margin-right: 10px;"" />
          <img src=""images/blue_deck_1.png"" style=""width: 300px; height: 300px;"" />
        </div>","1","4","1","choice","1",""
"","","","","","html-keyboard-response","71","483629","0.0-55.0-1.0-0.0","17C340CB21144C2EAE767EAF1BB9688C","0199d680-1cf6-7b58-8d91-018255097781","0199d675-8795-765b-adc2-c813de8cd3d1","","null","<div style=""display: flex; justify-content: center; align-items: center;"">
                     <img src=""images/semantic/semantic_series_4/semantic_series_4_b.png"" style=""width: 300px; height: 300px;"" />
                   </div>","null","4","1","B","",""
"","","","","","html-keyboard-response","72","489645","0.0-55.0-1.0-1.0","17C340CB21144C2EAE767EAF1BB9688C","0199d680-1cf6-7b58-8d91-018255097781","0199d675-8795-765b-adc2-c813de8cd3d1","","null","<div style=""display: flex; justify-content: center; align-items: center;"">
                     <img src=""images/semantic/semantic_series_4/semantic_series_4_c.png"" style=""width: 300px; height: 300px;"" />
                   </div>","null","4","1","C","",""
"","","","","","html-keyboard-response","73","495656","0.0-55.0-1.0-2.0","17C340CB21144C2EAE767EAF1BB9688C","0199d680-1cf6-7b58-8d91-018255097781","0199d675-8795-765b-adc2-c813de8cd3d1","","null","<div style=""display: flex; justify-content: center; align-items: center;"">
                     <img src=""images/semantic/semantic_series_4/semantic_series_4_d.png"" style=""width: 300px; height: 300px;"" />
                   </div>","null","4","1","D","",""
"","","","","","survey-likert","74","497716","0.0-56.0","17C340CB21144C2EAE767EAF1BB9688C","0199d680-1cf6-7b58-8d91-018255097781","0199d675-8795-765b-adc2-c813de8cd3d1","","2059","","{""Q0"":3}","4","1","surprise_rating","","[0]"
"","","","","","survey-likert","75","502646","0.0-57.0","17C340CB21144C2EAE767EAF1BB9688C","0199d680-1cf6-7b58-8d91-018255097781","0199d675-8795-765b-adc2-c813de8cd3d1","","4929","","{""Q0"":2}","4","1","enjoyment_rating","","[0]"
"","","","","","html-keyboard-response","76","508658","0.0-58.0","17C340CB21144C2EAE767EAF1BB9688C","0199d680-1cf6-7b58-8d91-018255097781","0199d675-8795-765b-adc2-c813de8cd3d1","","null","<div style=""display: flex; justify-content: center; align-items: center;"">
                     <img src=""images/other/blank.png"" style=""width: 300px; height: 300px;"" />
                   </div>","null","0","0","blank","",""
"","","","","","html-keyboard-response","77","514661","0.0-59.0","17C340CB21144C2EAE767EAF1BB9688C","0199d680-1cf6-7b58-8d91-018255097781","0199d675-8795-765b-adc2-c813de8cd3d1","","null","<div style=""display: flex; justify-content: center; align-items: center;"">
                     <img src=""images/causal/causal_series_1/causal_series_1_a.png"" style=""width: 300px; height: 300px;"" />
                   </div>","null","1","2","A","",""
"","","","","","html-button-response","78","517000","0.0-60.0","17C340CB21144C2EAE767EAF1BB9688C","0199d680-1cf6-7b58-8d91-018255097781","0199d675-8795-765b-adc2-c813de8cd3d1","","2338","
        <div style=""display: flex; justify-content: center; align-items: center;"">
          <img src=""images/red_deck_2.png"" style=""width: 300px; height: 300px; margin-right: 10px;"" />
          <img src=""images/blue_deck_1.png"" style=""width: 300px; height: 300px;"" />
        </div>","1","1","2","choice","1",""
"","","","","","html-keyboard-response","79","523007","0.0-61.0-1.0-0.0","17C340CB21144C2EAE767EAF1BB9688C","0199d680-1cf6-7b58-8d91-018255097781","0199d675-8795-765b-adc2-c813de8cd3d1","","null","<div style=""display: flex; justify-content: center; align-items: center;"">
                     <img src=""images/semantic/semantic_series_1/semantic_series_1_b.png"" style=""width: 300px; height: 300px;"" />
                   </div>","null","1","2","B","",""
"","","","","","html-keyboard-response","80","529016","0.0-61.0-1.0-1.0","17C340CB21144C2EAE767EAF1BB9688C","0199d680-1cf6-7b58-8d91-018255097781","0199d675-8795-765b-adc2-c813de8cd3d1","","null","<div style=""display: flex; justify-content: center; align-items: center;"">
                     <img src=""images/semantic/semantic_series_1/semantic_series_1_c.png"" style=""width: 300px; height: 300px;"" />
                   </div>","null","1","2","C","",""
"","","","","","html-keyboard-response","81","535020","0.0-61.0-1.0-2.0","17C340CB21144C2EAE767EAF1BB9688C","0199d680-1cf6-7b58-8d91-018255097781","0199d675-8795-765b-adc2-c813de8cd3d1","","null","<div style=""display: flex; justify-content: center; align-items: center;"">
                     <img src=""images/semantic/semantic_series_1/semantic_series_1_d.png"" style=""width: 300px; height: 300px;"" />
                   </div>","null","1","2","D","",""
"","","","","","survey-likert","82","546270","0.0-62.0","17C340CB21144C2EAE767EAF1BB9688C","0199d680-1cf6-7b58-8d91-018255097781","0199d675-8795-765b-adc2-c813de8cd3d1","","11250","","{""Q0"":2}","1","2","surprise_rating","","[0]"
"","","","","","survey-likert","83","547957","0.0-63.0","17C340CB21144C2EAE767EAF1BB9688C","0199d680-1cf6-7b58-8d91-018255097781","0199d675-8795-765b-adc2-c813de8cd3d1","","1685","","{""Q0"":0}","1","2","enjoyment_rating","","[0]"
"","","","","","html-keyboard-response","84","553960","0.0-64.0","17C340CB21144C2EAE767EAF1BB9688C","0199d680-1cf6-7b58-8d91-018255097781","0199d675-8795-765b-adc2-c813de8cd3d1","","null","<div style=""display: flex; justify-content: center; align-items: center;"">
                     <img src=""images/other/blank.png"" style=""width: 300px; height: 300px;"" />
                   </div>","null","0","0","blank","",""
"","","","","","html-keyboard-response","85","559976","0.0-65.0","17C340CB21144C2EAE767EAF1BB9688C","0199d680-1cf6-7b58-8d91-018255097781","0199d675-8795-765b-adc2-c813de8cd3d1","","null","<div style=""display: flex; justify-content: center; align-items: center;"">
                     <img src=""images/causal/causal_series_2/causal_series_2_a.png"" style=""width: 300px; height: 300px;"" />
                   </div>","null","2","1","A","",""
"","","","","","html-button-response","86","571447","0.0-66.0","17C340CB21144C2EAE767EAF1BB9688C","0199d680-1cf6-7b58-8d91-018255097781","0199d675-8795-765b-adc2-c813de8cd3d1","","11469","
        <div style=""display: flex; justify-content: center; align-items: center;"">
          <img src=""images/red_deck_2.png"" style=""width: 300px; height: 300px; margin-right: 10px;"" />
          <img src=""images/blue_deck_1.png"" style=""width: 300px; height: 300px;"" />
        </div>","1","2","1","choice","1",""
"","","","","","html-keyboard-response","87","577461","0.0-67.0-1.0-0.0","17C340CB21144C2EAE767EAF1BB9688C","0199d680-1cf6-7b58-8d91-018255097781","0199d675-8795-765b-adc2-c813de8cd3d1","","null","<div style=""display: flex; justify-content: center; align-items: center;"">
                     <img src=""images/semantic/semantic_series_2/semantic_series_2_b.png"" style=""width: 300px; height: 300px;"" />
                   </div>","null","2","1","B","",""
"","","","","","html-keyboard-response","88","583475","0.0-67.0-1.0-1.0","17C340CB21144C2EAE767EAF1BB9688C","0199d680-1cf6-7b58-8d91-018255097781","0199d675-8795-765b-adc2-c813de8cd3d1","","null","<div style=""display: flex; justify-content: center; align-items: center;"">
                     <img src=""images/semantic/semantic_series_2/semantic_series_2_c.png"" style=""width: 300px; height: 300px;"" />
                   </div>","null","2","1","C","",""
"","","","","","html-keyboard-response","89","589478","0.0-67.0-1.0-2.0","17C340CB21144C2EAE767EAF1BB9688C","0199d680-1cf6-7b58-8d91-018255097781","0199d675-8795-765b-adc2-c813de8cd3d1","","null","<div style=""display: flex; justify-content: center; align-items: center;"">
                     <img src=""images/semantic/semantic_series_2/semantic_series_2_d.png"" style=""width: 300px; height: 300px;"" />
                   </div>","null","2","1","D","",""
"","","","","","survey-likert","90","594287","0.0-68.0","17C340CB21144C2EAE767EAF1BB9688C","0199d680-1cf6-7b58-8d91-018255097781","0199d675-8795-765b-adc2-c813de8cd3d1","","4808","","{""Q0"":1}","2","1","surprise_rating","","[0]"
"","","","","","survey-likert","91","598256","0.0-69.0","17C340CB21144C2EAE767EAF1BB9688C","0199d680-1cf6-7b58-8d91-018255097781","0199d675-8795-765b-adc2-c813de8cd3d1","","3968","","{""Q0"":0}","2","1","enjoyment_rating","","[0]"
"","","","","","html-keyboard-response","92","604258","0.0-70.0","17C340CB21144C2EAE767EAF1BB9688C","0199d680-1cf6-7b58-8d91-018255097781","0199d675-8795-765b-adc2-c813de8cd3d1","","null","<div style=""display: flex; justify-content: center; align-items: center;"">
                     <img src=""images/other/blank.png"" style=""width: 300px; height: 300px;"" />
                   </div>","null","0","0","blank","",""
"","","","","","html-keyboard-response","93","610269","0.0-71.0","17C340CB21144C2EAE767EAF1BB9688C","0199d680-1cf6-7b58-8d91-018255097781","0199d675-8795-765b-adc2-c813de8cd3d1","","null","<div style=""display: flex; justify-content: center; align-items: center;"">
                     <img src=""images/causal/causal_series_3/causal_series_3_a.png"" style=""width: 300px; height: 300px;"" />
                   </div>","null","3","2","A","",""
"","","","","","html-button-response","94","611521","0.0-72.0","17C340CB21144C2EAE767EAF1BB9688C","0199d680-1cf6-7b58-8d91-018255097781","0199d675-8795-765b-adc2-c813de8cd3d1","","1250","
        <div style=""display: flex; justify-content: center; align-items: center;"">
          <img src=""images/red_deck_2.png"" style=""width: 300px; height: 300px; margin-right: 10px;"" />
          <img src=""images/blue_deck_1.png"" style=""width: 300px; height: 300px;"" />
        </div>","0","3","2","choice","0",""
"","","","","","html-keyboard-response","95","617528","0.0-73.0-0.0-0.0","17C340CB21144C2EAE767EAF1BB9688C","0199d680-1cf6-7b58-8d91-018255097781","0199d675-8795-765b-adc2-c813de8cd3d1","","null","<div style=""display: flex; justify-content: center; align-items: center;"">
                     <img src=""images/causal/causal_series_3/causal_series_3_b.png"" style=""width: 300px; height: 300px;"" />
                   </div>","null","3","2","B","",""
"","","","","","html-keyboard-response","96","623530","0.0-73.0-0.0-1.0","17C340CB21144C2EAE767EAF1BB9688C","0199d680-1cf6-7b58-8d91-018255097781","0199d675-8795-765b-adc2-c813de8cd3d1","","null","<div style=""display: flex; justify-content: center; align-items: center;"">
                     <img src=""images/causal/causal_series_3/causal_series_3_c.png"" style=""width: 300px; height: 300px;"" />
                   </div>","null","3","2","C","",""
"","","","","","html-keyboard-response","97","629532","0.0-73.0-0.0-2.0","17C340CB21144C2EAE767EAF1BB9688C","0199d680-1cf6-7b58-8d91-018255097781","0199d675-8795-765b-adc2-c813de8cd3d1","","null","<div style=""display: flex; justify-content: center; align-items: center;"">
                     <img src=""images/causal/causal_series_3/causal_series_3_d.png"" style=""width: 300px; height: 300px;"" />
                   </div>","null","3","2","D","",""
"","","","","","survey-likert","98","637038","0.0-74.0","17C340CB21144C2EAE767EAF1BB9688C","0199d680-1cf6-7b58-8d91-018255097781","0199d675-8795-765b-adc2-c813de8cd3d1","","7505","","{""Q0"":4}","3","2","surprise_rating","","[0]"
"","","","","","survey-likert","99","639760","0.0-75.0","17C340CB21144C2EAE767EAF1BB9688C","0199d680-1cf6-7b58-8d91-018255097781","0199d675-8795-765b-adc2-c813de8cd3d1","","2720","","{""Q0"":3}","3","2","enjoyment_rating","","[0]"
"","","","","","html-keyboard-response","100","645766","0.0-76.0","17C340CB21144C2EAE767EAF1BB9688C","0199d680-1cf6-7b58-8d91-018255097781","0199d675-8795-765b-adc2-c813de8cd3d1","","null","<div style=""display: flex; justify-content: center; align-items: center;"">
                     <img src=""images/other/blank.png"" style=""width: 300px; height: 300px;"" />
                   </div>","null","0","0","blank","",""
"","","","","","html-keyboard-response","101","651773","0.0-77.0","17C340CB21144C2EAE767EAF1BB9688C","0199d680-1cf6-7b58-8d91-018255097781","0199d675-8795-765b-adc2-c813de8cd3d1","","null","<div style=""display: flex; justify-content: center; align-items: center;"">
                     <img src=""images/causal/causal_series_5/causal_series_5_a.png"" style=""width: 300px; height: 300px;"" />
                   </div>","null","5","1","A","",""
"","","","","","html-button-response","102","652762","0.0-78.0","17C340CB21144C2EAE767EAF1BB9688C","0199d680-1cf6-7b58-8d91-018255097781","0199d675-8795-765b-adc2-c813de8cd3d1","","988","
        <div style=""display: flex; justify-content: center; align-items: center;"">
          <img src=""images/red_deck_2.png"" style=""width: 300px; height: 300px; margin-right: 10px;"" />
          <img src=""images/blue_deck_1.png"" style=""width: 300px; height: 300px;"" />
        </div>","1","5","1","choice","1",""
"","","","","","html-keyboard-response","103","658764","0.0-79.0-1.0-0.0","17C340CB21144C2EAE767EAF1BB9688C","0199d680-1cf6-7b58-8d91-018255097781","0199d675-8795-765b-adc2-c813de8cd3d1","","null","<div style=""display: flex; justify-content: center; align-items: center;"">
                     <img src=""images/semantic/semantic_series_5/semantic_series_5_b.png"" style=""width: 300px; height: 300px;"" />
                   </div>","null","5","1","B","",""
"","","","","","html-keyboard-response","104","664779","0.0-79.0-1.0-1.0","17C340CB21144C2EAE767EAF1BB9688C","0199d680-1cf6-7b58-8d91-018255097781","0199d675-8795-765b-adc2-c813de8cd3d1","","null","<div style=""display: flex; justify-content: center; align-items: center;"">
                     <img src=""images/semantic/semantic_series_5/semantic_series_5_c.png"" style=""width: 300px; height: 300px;"" />
                   </div>","null","5","1","C","",""
"","","","","","html-keyboard-response","105","670795","0.0-79.0-1.0-2.0","17C340CB21144C2EAE767EAF1BB9688C","0199d680-1cf6-7b58-8d91-018255097781","0199d675-8795-765b-adc2-c813de8cd3d1","","null","<div style=""display: flex; justify-content: center; align-items: center;"">
                     <img src=""images/semantic/semantic_series_5/semantic_series_5_d.png"" style=""width: 300px; height: 300px;"" />
                   </div>","null","5","1","D","",""
"","","","","","survey-likert","106","676159","0.0-80.0","17C340CB21144C2EAE767EAF1BB9688C","0199d680-1cf6-7b58-8d91-018255097781","0199d675-8795-765b-adc2-c813de8cd3d1","","5362","","{""Q0"":4}","5","1","surprise_rating","","[0]"
"","","","","","survey-likert","107","679555","0.0-81.0","17C340CB21144C2EAE767EAF1BB9688C","0199d680-1cf6-7b58-8d91-018255097781","0199d675-8795-765b-adc2-c813de8cd3d1","","3395","","{""Q0"":2}","5","1","enjoyment_rating","","[0]"
"","","","","","html-keyboard-response","108","685557","0.0-82.0","17C340CB21144C2EAE767EAF1BB9688C","0199d680-1cf6-7b58-8d91-018255097781","0199d675-8795-765b-adc2-c813de8cd3d1","","null","<div style=""display: flex; justify-content: center; align-items: center;"">
                     <img src=""images/other/blank.png"" style=""width: 300px; height: 300px;"" />
                   </div>","null","0","0","blank","",""
"","","","","","html-keyboard-response","109","691559","0.0-83.0","17C340CB21144C2EAE767EAF1BB9688C","0199d680-1cf6-7b58-8d91-018255097781","0199d675-8795-765b-adc2-c813de8cd3d1","","null","<div style=""display: flex; justify-content: center; align-items: center;"">
                     <img src=""images/causal/causal_series_3/causal_series_3_a.png"" style=""width: 300px; height: 300px;"" />
                   </div>","null","3","1","A","",""
"","","","","","html-button-response","110","701857","0.0-84.0","17C340CB21144C2EAE767EAF1BB9688C","0199d680-1cf6-7b58-8d91-018255097781","0199d675-8795-765b-adc2-c813de8cd3d1","","10297","
        <div style=""display: flex; justify-content: center; align-items: center;"">
          <img src=""images/red_deck_2.png"" style=""width: 300px; height: 300px; margin-right: 10px;"" />
          <img src=""images/blue_deck_1.png"" style=""width: 300px; height: 300px;"" />
        </div>","1","3","1","choice","1",""
"","","","","","html-keyboard-response","111","707870","0.0-85.0-1.0-0.0","17C340CB21144C2EAE767EAF1BB9688C","0199d680-1cf6-7b58-8d91-018255097781","0199d675-8795-765b-adc2-c813de8cd3d1","","null","<div style=""display: flex; justify-content: center; align-items: center;"">
                     <img src=""images/semantic/semantic_series_3/semantic_series_3_b.png"" style=""width: 300px; height: 300px;"" />
                   </div>","null","3","1","B","",""
"","","","","","html-keyboard-response","112","713880","0.0-85.0-1.0-1.0","17C340CB21144C2EAE767EAF1BB9688C","0199d680-1cf6-7b58-8d91-018255097781","0199d675-8795-765b-adc2-c813de8cd3d1","","null","<div style=""display: flex; justify-content: center; align-items: center;"">
                     <img src=""images/semantic/semantic_series_3/semantic_series_3_c.png"" style=""width: 300px; height: 300px;"" />
                   </div>","null","3","1","C","",""
"","","","","","html-keyboard-response","113","719896","0.0-85.0-1.0-2.0","17C340CB21144C2EAE767EAF1BB9688C","0199d680-1cf6-7b58-8d91-018255097781","0199d675-8795-765b-adc2-c813de8cd3d1","","null","<div style=""display: flex; justify-content: center; align-items: center;"">
                     <img src=""images/semantic/semantic_series_3/semantic_series_3_d.png"" style=""width: 300px; height: 300px;"" />
                   </div>","null","3","1","D","",""
"","","","","","survey-likert","114","729201","0.0-86.0","17C340CB21144C2EAE767EAF1BB9688C","0199d680-1cf6-7b58-8d91-018255097781","0199d675-8795-765b-adc2-c813de8cd3d1","","9304","","{""Q0"":2}","3","1","surprise_rating","","[0]"
"","","","","","survey-likert","115","732139","0.0-87.0","17C340CB21144C2EAE767EAF1BB9688C","0199d680-1cf6-7b58-8d91-018255097781","0199d675-8795-765b-adc2-c813de8cd3d1","","2937","","{""Q0"":2}","3","1","enjoyment_rating","","[0]"
"","","","","","html-keyboard-response","116","738147","0.0-88.0","17C340CB21144C2EAE767EAF1BB9688C","0199d680-1cf6-7b58-8d91-018255097781","0199d675-8795-765b-adc2-c813de8cd3d1","","null","<div style=""display: flex; justify-content: center; align-items: center;"">
                     <img src=""images/other/blank.png"" style=""width: 300px; height: 300px;"" />
                   </div>","null","0","0","blank","",""
"","","","","","html-keyboard-response","117","744158","0.0-89.0","17C340CB21144C2EAE767EAF1BB9688C","0199d680-1cf6-7b58-8d91-018255097781","0199d675-8795-765b-adc2-c813de8cd3d1","","null","<div style=""display: flex; justify-content: center; align-items: center;"">
                     <img src=""images/causal/causal_series_6/causal_series_6_a.png"" style=""width: 300px; height: 300px;"" />
                   </div>","null","6","2","A","",""
"","","","","","html-button-response","118","746109","0.0-90.0","17C340CB21144C2EAE767EAF1BB9688C","0199d680-1cf6-7b58-8d91-018255097781","0199d675-8795-765b-adc2-c813de8cd3d1","","1950","
        <div style=""display: flex; justify-content: center; align-items: center;"">
          <img src=""images/red_deck_2.png"" style=""width: 300px; height: 300px; margin-right: 10px;"" />
          <img src=""images/blue_deck_1.png"" style=""width: 300px; height: 300px;"" />
        </div>","0","6","2","choice","0",""
"","","","","","html-keyboard-response","119","752113","0.0-91.0-0.0-0.0","17C340CB21144C2EAE767EAF1BB9688C","0199d680-1cf6-7b58-8d91-018255097781","0199d675-8795-765b-adc2-c813de8cd3d1","","null","<div style=""display: flex; justify-content: center; align-items: center;"">
                     <img src=""images/causal/causal_series_6/causal_series_6_b.png"" style=""width: 300px; height: 300px;"" />
                   </div>","null","6","2","B","",""
"","","","","","html-keyboard-response","120","758125","0.0-91.0-0.0-1.0","17C340CB21144C2EAE767EAF1BB9688C","0199d680-1cf6-7b58-8d91-018255097781","0199d675-8795-765b-adc2-c813de8cd3d1","","null","<div style=""display: flex; justify-content: center; align-items: center;"">
                     <img src=""images/causal/causal_series_6/causal_series_6_c.png"" style=""width: 300px; height: 300px;"" />
                   </div>","null","6","2","C","",""
"","","","","","html-keyboard-response","121","764136","0.0-91.0-0.0-2.0","17C340CB21144C2EAE767EAF1BB9688C","0199d680-1cf6-7b58-8d91-018255097781","0199d675-8795-765b-adc2-c813de8cd3d1","","null","<div style=""display: flex; justify-content: center; align-items: center;"">
                     <img src=""images/causal/causal_series_6/causal_series_6_d.png"" style=""width: 300px; height: 300px;"" />
                   </div>","null","6","2","D","",""
"","","","","","survey-likert","122","767443","0.0-92.0","17C340CB21144C2EAE767EAF1BB9688C","0199d680-1cf6-7b58-8d91-018255097781","0199d675-8795-765b-adc2-c813de8cd3d1","","3305","","{""Q0"":1}","6","2","surprise_rating","","[0]"
"","","","","","survey-likert","123","771167","0.0-93.0","17C340CB21144C2EAE767EAF1BB9688C","0199d680-1cf6-7b58-8d91-018255097781","0199d675-8795-765b-adc2-c813de8cd3d1","","3722","","{""Q0"":1}","6","2","enjoyment_rating","","[0]"
"","","","","","html-keyboard-response","124","777184","0.0-94.0","17C340CB21144C2EAE767EAF1BB9688C","0199d680-1cf6-7b58-8d91-018255097781","0199d675-8795-765b-adc2-c813de8cd3d1","","null","<div style=""display: flex; justify-content: center; align-items: center;"">
                     <img src=""images/other/blank.png"" style=""width: 300px; height: 300px;"" />
                   </div>","null","0","0","blank","",""
"","","","","","html-keyboard-response","125","783185","0.0-95.0","17C340CB21144C2EAE767EAF1BB9688C","0199d680-1cf6-7b58-8d91-018255097781","0199d675-8795-765b-adc2-c813de8cd3d1","","null","<div style=""display: flex; justify-content: center; align-items: center;"">
                     <img src=""images/causal/causal_series_7/causal_series_7_a.png"" style=""width: 300px; height: 300px;"" />
                   </div>","null","7","1","A","",""
"","","","","","html-button-response","126","784441","0.0-96.0","17C340CB21144C2EAE767EAF1BB9688C","0199d680-1cf6-7b58-8d91-018255097781","0199d675-8795-765b-adc2-c813de8cd3d1","","1254","
        <div style=""display: flex; justify-content: center; align-items: center;"">
          <img src=""images/red_deck_2.png"" style=""width: 300px; height: 300px; margin-right: 10px;"" />
          <img src=""images/blue_deck_1.png"" style=""width: 300px; height: 300px;"" />
        </div>","1","7","1","choice","1",""
"","","","","","html-keyboard-response","127","790443","0.0-97.0-1.0-0.0","17C340CB21144C2EAE767EAF1BB9688C","0199d680-1cf6-7b58-8d91-018255097781","0199d675-8795-765b-adc2-c813de8cd3d1","","null","<div style=""display: flex; justify-content: center; align-items: center;"">
                     <img src=""images/semantic/semantic_series_7/semantic_series_7_b.png"" style=""width: 300px; height: 300px;"" />
                   </div>","null","7","1","B","",""
"","","","","","html-keyboard-response","128","796458","0.0-97.0-1.0-1.0","17C340CB21144C2EAE767EAF1BB9688C","0199d680-1cf6-7b58-8d91-018255097781","0199d675-8795-765b-adc2-c813de8cd3d1","","null","<div style=""display: flex; justify-content: center; align-items: center;"">
                     <img src=""images/semantic/semantic_series_7/semantic_series_7_c.png"" style=""width: 300px; height: 300px;"" />
                   </div>","null","7","1","C","",""
"","","","","","html-keyboard-response","129","802469","0.0-97.0-1.0-2.0","17C340CB21144C2EAE767EAF1BB9688C","0199d680-1cf6-7b58-8d91-018255097781","0199d675-8795-765b-adc2-c813de8cd3d1","","null","<div style=""display: flex; justify-content: center; align-items: center;"">
                     <img src=""images/semantic/semantic_series_7/semantic_series_7_d.png"" style=""width: 300px; height: 300px;"" />
                   </div>","null","7","1","D","",""
"","","","","","survey-likert","130","808572","0.0-98.0","17C340CB21144C2EAE767EAF1BB9688C","0199d680-1cf6-7b58-8d91-018255097781","0199d675-8795-765b-adc2-c813de8cd3d1","","6102","","{""Q0"":3}","7","1","surprise_rating","","[0]"
"","","","","","survey-likert","131","816333","0.0-99.0","17C340CB21144C2EAE767EAF1BB9688C","0199d680-1cf6-7b58-8d91-018255097781","0199d675-8795-765b-adc2-c813de8cd3d1","","7760","","{""Q0"":1}","7","1","enjoyment_rating","","[0]"
"","","","","","html-keyboard-response","132","822342","0.0-100.0","17C340CB21144C2EAE767EAF1BB9688C","0199d680-1cf6-7b58-8d91-018255097781","0199d675-8795-765b-adc2-c813de8cd3d1","","null","<div style=""display: flex; justify-content: center; align-items: center;"">
                     <img src=""images/other/blank.png"" style=""width: 300px; height: 300px;"" />
                   </div>","null","0","0","blank","",""
"","","","","","html-keyboard-response","133","828353","0.0-101.0","17C340CB21144C2EAE767EAF1BB9688C","0199d680-1cf6-7b58-8d91-018255097781","0199d675-8795-765b-adc2-c813de8cd3d1","","null","<div style=""display: flex; justify-content: center; align-items: center;"">
                     <img src=""images/causal/causal_series_9/causal_series_9_a.png"" style=""width: 300px; height: 300px;"" />
                   </div>","null","9","1","A","",""
"","","","","","html-button-response","134","830762","0.0-102.0","17C340CB21144C2EAE767EAF1BB9688C","0199d680-1cf6-7b58-8d91-018255097781","0199d675-8795-765b-adc2-c813de8cd3d1","","2408","
        <div style=""display: flex; justify-content: center; align-items: center;"">
          <img src=""images/red_deck_2.png"" style=""width: 300px; height: 300px; margin-right: 10px;"" />
          <img src=""images/blue_deck_1.png"" style=""width: 300px; height: 300px;"" />
        </div>","0","9","1","choice","0",""
"","","","","","html-keyboard-response","135","836767","0.0-103.0-0.0-0.0","17C340CB21144C2EAE767EAF1BB9688C","0199d680-1cf6-7b58-8d91-018255097781","0199d675-8795-765b-adc2-c813de8cd3d1","","null","<div style=""display: flex; justify-content: center; align-items: center;"">
                     <img src=""images/causal/causal_series_9/causal_series_9_b.png"" style=""width: 300px; height: 300px;"" />
                   </div>","null","9","1","B","",""
"","","","","","html-keyboard-response","136","842772","0.0-103.0-0.0-1.0","17C340CB21144C2EAE767EAF1BB9688C","0199d680-1cf6-7b58-8d91-018255097781","0199d675-8795-765b-adc2-c813de8cd3d1","","null","<div style=""display: flex; justify-content: center; align-items: center;"">
                     <img src=""images/causal/causal_series_9/causal_series_9_c.png"" style=""width: 300px; height: 300px;"" />
                   </div>","null","9","1","C","",""
"","","","","","html-keyboard-response","137","848774","0.0-103.0-0.0-2.0","17C340CB21144C2EAE767EAF1BB9688C","0199d680-1cf6-7b58-8d91-018255097781","0199d675-8795-765b-adc2-c813de8cd3d1","","null","<div style=""display: flex; justify-content: center; align-items: center;"">
                     <img src=""images/causal/causal_series_9/causal_series_9_d.png"" style=""width: 300px; height: 300px;"" />
                   </div>","null","9","1","D","",""
"","","","","","survey-likert","138","852493","0.0-104.0","17C340CB21144C2EAE767EAF1BB9688C","0199d680-1cf6-7b58-8d91-018255097781","0199d675-8795-765b-adc2-c813de8cd3d1","","3718","","{""Q0"":3}","9","1","surprise_rating","","[0]"
"","","","","","survey-likert","139","857520","0.0-105.0","17C340CB21144C2EAE767EAF1BB9688C","0199d680-1cf6-7b58-8d91-018255097781","0199d675-8795-765b-adc2-c813de8cd3d1","","5026","","{""Q0"":1}","9","1","enjoyment_rating","","[0]"
"","","","","","html-keyboard-response","140","863535","0.0-106.0","17C340CB21144C2EAE767EAF1BB9688C","0199d680-1cf6-7b58-8d91-018255097781","0199d675-8795-765b-adc2-c813de8cd3d1","","null","<div style=""display: flex; justify-content: center; align-items: center;"">
                     <img src=""images/other/blank.png"" style=""width: 300px; height: 300px;"" />
                   </div>","null","0","0","blank","",""
"","","","","","html-keyboard-response","141","869550","0.0-107.0","17C340CB21144C2EAE767EAF1BB9688C","0199d680-1cf6-7b58-8d91-018255097781","0199d675-8795-765b-adc2-c813de8cd3d1","","null","<div style=""display: flex; justify-content: center; align-items: center;"">
                     <img src=""images/causal/causal_series_5/causal_series_5_a.png"" style=""width: 300px; height: 300px;"" />
                   </div>","null","5","2","A","",""
"","","","","","html-button-response","142","870677","0.0-108.0","17C340CB21144C2EAE767EAF1BB9688C","0199d680-1cf6-7b58-8d91-018255097781","0199d675-8795-765b-adc2-c813de8cd3d1","","1126","
        <div style=""display: flex; justify-content: center; align-items: center;"">
          <img src=""images/red_deck_2.png"" style=""width: 300px; height: 300px; margin-right: 10px;"" />
          <img src=""images/blue_deck_1.png"" style=""width: 300px; height: 300px;"" />
        </div>","0","5","2","choice","0",""
"","","","","","html-keyboard-response","143","876680","0.0-109.0-0.0-0.0","17C340CB21144C2EAE767EAF1BB9688C","0199d680-1cf6-7b58-8d91-018255097781","0199d675-8795-765b-adc2-c813de8cd3d1","","null","<div style=""display: flex; justify-content: center; align-items: center;"">
                     <img src=""images/causal/causal_series_5/causal_series_5_b.png"" style=""width: 300px; height: 300px;"" />
                   </div>","null","5","2","B","",""
"","","","","","html-keyboard-response","144","882683","0.0-109.0-0.0-1.0","17C340CB21144C2EAE767EAF1BB9688C","0199d680-1cf6-7b58-8d91-018255097781","0199d675-8795-765b-adc2-c813de8cd3d1","","null","<div style=""display: flex; justify-content: center; align-items: center;"">
                     <img src=""images/causal/causal_series_5/causal_series_5_c.png"" style=""width: 300px; height: 300px;"" />
                   </div>","null","5","2","C","",""
"","","","","","html-keyboard-response","145","888688","0.0-109.0-0.0-2.0","17C340CB21144C2EAE767EAF1BB9688C","0199d680-1cf6-7b58-8d91-018255097781","0199d675-8795-765b-adc2-c813de8cd3d1","","null","<div style=""display: flex; justify-content: center; align-items: center;"">
                     <img src=""images/causal/causal_series_5/causal_series_5_d.png"" style=""width: 300px; height: 300px;"" />
                   </div>","null","5","2","D","",""
"","","","","","survey-likert","146","891587","0.0-110.0","17C340CB21144C2EAE767EAF1BB9688C","0199d680-1cf6-7b58-8d91-018255097781","0199d675-8795-765b-adc2-c813de8cd3d1","","2898","","{""Q0"":0}","5","2","surprise_rating","","[0]"
"","","","","","survey-likert","147","894589","0.0-111.0","17C340CB21144C2EAE767EAF1BB9688C","0199d680-1cf6-7b58-8d91-018255097781","0199d675-8795-765b-adc2-c813de8cd3d1","","3000","","{""Q0"":0}","5","2","enjoyment_rating","","[0]"
"","","","","","html-keyboard-response","148","900603","0.0-112.0","17C340CB21144C2EAE767EAF1BB9688C","0199d680-1cf6-7b58-8d91-018255097781","0199d675-8795-765b-adc2-c813de8cd3d1","","null","<div style=""display: flex; justify-content: center; align-items: center;"">
                     <img src=""images/other/blank.png"" style=""width: 300px; height: 300px;"" />
                   </div>","null","0","0","blank","",""
"","","","","","html-keyboard-response","149","906624","0.0-113.0","17C340CB21144C2EAE767EAF1BB9688C","0199d680-1cf6-7b58-8d91-018255097781","0199d675-8795-765b-adc2-c813de8cd3d1","","null","<div style=""display: flex; justify-content: center; align-items: center;"">
                     <img src=""images/causal/causal_series_8/causal_series_8_a.png"" style=""width: 300px; height: 300px;"" />
                   </div>","null","8","1","A","",""
"","","","","","html-button-response","150","907483","0.0-114.0","17C340CB21144C2EAE767EAF1BB9688C","0199d680-1cf6-7b58-8d91-018255097781","0199d675-8795-765b-adc2-c813de8cd3d1","","858","
        <div style=""display: flex; justify-content: center; align-items: center;"">
          <img src=""images/red_deck_2.png"" style=""width: 300px; height: 300px; margin-right: 10px;"" />
          <img src=""images/blue_deck_1.png"" style=""width: 300px; height: 300px;"" />
        </div>","1","8","1","choice","1",""
"","","","","","html-keyboard-response","151","913485","0.0-115.0-1.0-0.0","17C340CB21144C2EAE767EAF1BB9688C","0199d680-1cf6-7b58-8d91-018255097781","0199d675-8795-765b-adc2-c813de8cd3d1","","null","<div style=""display: flex; justify-content: center; align-items: center;"">
                     <img src=""images/semantic/semantic_series_8/semantic_series_8_b.png"" style=""width: 300px; height: 300px;"" />
                   </div>","null","8","1","B","",""
"","","","","","html-keyboard-response","152","919490","0.0-115.0-1.0-1.0","17C340CB21144C2EAE767EAF1BB9688C","0199d680-1cf6-7b58-8d91-018255097781","0199d675-8795-765b-adc2-c813de8cd3d1","","null","<div style=""display: flex; justify-content: center; align-items: center;"">
                     <img src=""images/semantic/semantic_series_8/semantic_series_8_c.png"" style=""width: 300px; height: 300px;"" />
                   </div>","null","8","1","C","",""
"","","","","","html-keyboard-response","153","925506","0.0-115.0-1.0-2.0","17C340CB21144C2EAE767EAF1BB9688C","0199d680-1cf6-7b58-8d91-018255097781","0199d675-8795-765b-adc2-c813de8cd3d1","","null","<div style=""display: flex; justify-content: center; align-items: center;"">
                     <img src=""images/semantic/semantic_series_8/semantic_series_8_d.png"" style=""width: 300px; height: 300px;"" />
                   </div>","null","8","1","D","",""
"","","","","","survey-likert","154","931001","0.0-116.0","17C340CB21144C2EAE767EAF1BB9688C","0199d680-1cf6-7b58-8d91-018255097781","0199d675-8795-765b-adc2-c813de8cd3d1","","5494","","{""Q0"":3}","8","1","surprise_rating","","[0]"
"","","","","","survey-likert","155","933613","0.0-117.0","17C340CB21144C2EAE767EAF1BB9688C","0199d680-1cf6-7b58-8d91-018255097781","0199d675-8795-765b-adc2-c813de8cd3d1","","2611","","{""Q0"":1}","8","1","enjoyment_rating","","[0]"
"","","","","","html-keyboard-response","156","939627","0.0-118.0","17C340CB21144C2EAE767EAF1BB9688C","0199d680-1cf6-7b58-8d91-018255097781","0199d675-8795-765b-adc2-c813de8cd3d1","","null","<div style=""display: flex; justify-content: center; align-items: center;"">
                     <img src=""images/other/blank.png"" style=""width: 300px; height: 300px;"" />
                   </div>","null","0","0","blank","",""
"","","","","","html-keyboard-response","157","945638","0.0-119.0","17C340CB21144C2EAE767EAF1BB9688C","0199d680-1cf6-7b58-8d91-018255097781","0199d675-8795-765b-adc2-c813de8cd3d1","","null","<div style=""display: flex; justify-content: center; align-items: center;"">
                     <img src=""images/causal/causal_series_10/causal_series_10_a.png"" style=""width: 300px; height: 300px;"" />
                   </div>","null","10","2","A","",""
"","","","","","html-button-response","158","947969","0.0-120.0","17C340CB21144C2EAE767EAF1BB9688C","0199d680-1cf6-7b58-8d91-018255097781","0199d675-8795-765b-adc2-c813de8cd3d1","","2330","
        <div style=""display: flex; justify-content: center; align-items: center;"">
          <img src=""images/red_deck_2.png"" style=""width: 300px; height: 300px; margin-right: 10px;"" />
          <img src=""images/blue_deck_1.png"" style=""width: 300px; height: 300px;"" />
        </div>","1","10","2","choice","1",""
"","","","","","html-keyboard-response","159","953974","0.0-121.0-1.0-0.0","17C340CB21144C2EAE767EAF1BB9688C","0199d680-1cf6-7b58-8d91-018255097781","0199d675-8795-765b-adc2-c813de8cd3d1","","null","<div style=""display: flex; justify-content: center; align-items: center;"">
                     <img src=""images/semantic/semantic_series_10/semantic_series_10_b.png"" style=""width: 300px; height: 300px;"" />
                   </div>","null","10","2","B","",""
"","","","","","html-keyboard-response","160","959981","0.0-121.0-1.0-1.0","17C340CB21144C2EAE767EAF1BB9688C","0199d680-1cf6-7b58-8d91-018255097781","0199d675-8795-765b-adc2-c813de8cd3d1","","null","<div style=""display: flex; justify-content: center; align-items: center;"">
                     <img src=""images/semantic/semantic_series_10/semantic_series_10_c.png"" style=""width: 300px; height: 300px;"" />
                   </div>","null","10","2","C","",""
"","","","","","html-keyboard-response","161","965985","0.0-121.0-1.0-2.0","17C340CB21144C2EAE767EAF1BB9688C","0199d680-1cf6-7b58-8d91-018255097781","0199d675-8795-765b-adc2-c813de8cd3d1","","null","<div style=""display: flex; justify-content: center; align-items: center;"">
                     <img src=""images/semantic/semantic_series_10/semantic_series_10_d.png"" style=""width: 300px; height: 300px;"" />
                   </div>","null","10","2","D","",""
"","","","","","survey-likert","162","973276","0.0-122.0","17C340CB21144C2EAE767EAF1BB9688C","0199d680-1cf6-7b58-8d91-018255097781","0199d675-8795-765b-adc2-c813de8cd3d1","","7290","","{""Q0"":4}","10","2","surprise_rating","","[0]"
"","","","","","survey-likert","163","980633","0.0-123.0","17C340CB21144C2EAE767EAF1BB9688C","0199d680-1cf6-7b58-8d91-018255097781","0199d675-8795-765b-adc2-c813de8cd3d1","","7356","","{""Q0"":1}","10","2","enjoyment_rating","","[0]"
"","","","","","html-keyboard-response","164","986644","0.0-124.0","17C340CB21144C2EAE767EAF1BB9688C","0199d680-1cf6-7b58-8d91-018255097781","0199d675-8795-765b-adc2-c813de8cd3d1","","null","<div style=""display: flex; justify-content: center; align-items: center;"">
                     <img src=""images/other/blank.png"" style=""width: 300px; height: 300px;"" />
                   </div>","null","0","0","blank","",""
"","","","","","survey-text","165","1075519","0.0-125.0","17C340CB21144C2EAE767EAF1BB9688C","0199d680-1cf6-7b58-8d91-018255097781","0199d675-8795-765b-adc2-c813de8cd3d1","","88869","","{""Q0"":""The blue one told a story related to the person it was about. The red one would mention other strangers that are out there.""}","","","","",""
"","","","","","html-button-response","166","1077790","0.0-126.0","17C340CB21144C2EAE767EAF1BB9688C","0199d680-1cf6-7b58-8d91-018255097781","0199d675-8795-765b-adc2-c813de8cd3d1","","2270","Which color deck do the following sentences continue the story from?","0","","","","",""
"","","","","","html-button-response","167","1082856","0.0-127.0","17C340CB21144C2EAE767EAF1BB9688C","0199d680-1cf6-7b58-8d91-018255097781","0199d675-8795-765b-adc2-c813de8cd3d1","","5065","Which color deck do the following sentences NOT follow the story from?","1","","","","",""
"","","","","","html-button-response","168","1086928","0.0-128.0","17C340CB21144C2EAE767EAF1BB9688C","0199d680-1cf6-7b58-8d91-018255097781","0199d675-8795-765b-adc2-c813de8cd3d1","","4071","Which type of deck did you prefer overall?","1","","","","",""
"","","","","","survey-text","169","1098564","0.0-129.0","17C340CB21144C2EAE767EAF1BB9688C","0199d680-1cf6-7b58-8d91-018255097781","0199d675-8795-765b-adc2-c813de8cd3d1","","11630","","{""Q0"":""FEMALE"",""Q1"":""20""}","","","","",""
"","","","","","instructions","170","1103982","0.0-130.0","17C340CB21144C2EAE767EAF1BB9688C","0199d680-1cf6-7b58-8d91-018255097781","0199d675-8795-765b-adc2-c813de8cd3d1","[{""page_index"":0,""viewing_time"":5416}]","5416","","","","","","",""
