"success","timeout","failed_images","failed_audio","failed_video","trial_type","trial_index","time_elapsed","internal_node_id","subject_id","study_id","session_id","view_history","rt","stimulus","response","choice"
"true","false","[]","[]","[]","preload","0","7170","0.0-0.0","E8E092CB5A8543C39FED48E4A17B996C","37173a5e-b6d0-4483-b7a4-7d6efdaadeda","23db58b9-63b0-4bce-8714-07ce439e665e","","","","",""
"","","","","","instructions","1","9424","0.0-1.0","E8E092CB5A8543C39FED48E4A17B996C","37173a5e-b6d0-4483-b7a4-7d6efdaadeda","23db58b9-63b0-4bce-8714-07ce439e665e","[{""page_index"":0,""viewing_time"":2253}]","2253","","",""
"","","","","","instructions","2","38724","0.0-2.0","E8E092CB5A8543C39FED48E4A17B996C","37173a5e-b6d0-4483-b7a4-7d6efdaadeda","23db58b9-63b0-4bce-8714-07ce439e665e","[{""page_index"":0,""viewing_time"":29300}]","29301","","",""
"true","","","","","fullscreen","3","44395","0.0-3.0","E8E092CB5A8543C39FED48E4A17B996C","37173a5e-b6d0-4483-b7a4-7d6efdaadeda","23db58b9-63b0-4bce-8714-07ce439e665e","","4669","","",""
"","","","","","instructions","4","55860","0.0-4.0","E8E092CB5A8543C39FED48E4A17B996C","37173a5e-b6d0-4483-b7a4-7d6efdaadeda","23db58b9-63b0-4bce-8714-07ce439e665e","[{""page_index"":0,""viewing_time"":11464}]","11465","","",""
"","","","","","html-keyboard-response","5","58863","0.0-5.0","E8E092CB5A8543C39FED48E4A17B996C","37173a5e-b6d0-4483-b7a4-7d6efdaadeda","23db58b9-63b0-4bce-8714-07ce439e665e","","null","<div style=""display: flex; justify-content: center; align-items: center;"">
                <img src=""images/causal/causal_series_7/causal_series_7_a.jpg"" style=""width: 300px; height: 300px;"" />
              </div>","null",""
"","","","","","html-button-response","6","60928","0.0-6.0","E8E092CB5A8543C39FED48E4A17B996C","37173a5e-b6d0-4483-b7a4-7d6efdaadeda","23db58b9-63b0-4bce-8714-07ce439e665e","","2064","
    <div style=""display: flex; justify-content: center; align-items: center;"">
      <img src=""images/red_deck_2.png"" style=""width: 300px; height: 300px; margin-right: 10px;"" />
      <img src=""images/blue_deck_1.png"" style=""width: 300px; height: 300px;"" />
    </div>","0","0"
"","","","","","html-keyboard-response","7","63930","0.0-7.0-0.0-0.0","E8E092CB5A8543C39FED48E4A17B996C","37173a5e-b6d0-4483-b7a4-7d6efdaadeda","23db58b9-63b0-4bce-8714-07ce439e665e","","null","<div style=""display: flex; justify-content: center; align-items: center;"">
                <img src=""images/causal/causal_series_7/causal_series_7_b.jpg"" style=""width: 300px; height: 300px;"" />
              </div>","null",""
"","","","","","html-keyboard-response","8","66931","0.0-7.0-0.0-1.0","E8E092CB5A8543C39FED48E4A17B996C","37173a5e-b6d0-4483-b7a4-7d6efdaadeda","23db58b9-63b0-4bce-8714-07ce439e665e","","null","<div style=""display: flex; justify-content: center; align-items: center;"">
                <img src=""images/causal/causal_series_7/causal_series_7_c.jpg"" style=""width: 300px; height: 300px;"" />
              </div>","null",""
"","","","","","html-keyboard-response","9","69933","0.0-7.0-0.0-2.0","E8E092CB5A8543C39FED48E4A17B996C","37173a5e-b6d0-4483-b7a4-7d6efdaadeda","23db58b9-63b0-4bce-8714-07ce439e665e","","null","<div style=""display: flex; justify-content: center; align-items: center;"">
                <img src=""images/causal/causal_series_7/causal_series_7_d.jpg"" style=""width: 300px; height: 300px;"" />
              </div>","null",""
"","","","","","html-keyboard-response","10","72934","0.0-8.0","E8E092CB5A8543C39FED48E4A17B996C","37173a5e-b6d0-4483-b7a4-7d6efdaadeda","23db58b9-63b0-4bce-8714-07ce439e665e","","null","<div style=""display: flex; justify-content: center; align-items: center;"">
                <img src=""images/other/blank.jpg"" style=""width: 300px; height: 300px;"" />
              </div>","null",""
"","","","","","html-keyboard-response","11","75936","0.0-9.0","E8E092CB5A8543C39FED48E4A17B996C","37173a5e-b6d0-4483-b7a4-7d6efdaadeda","23db58b9-63b0-4bce-8714-07ce439e665e","","null","<div style=""display: flex; justify-content: center; align-items: center;"">
                <img src=""images/causal/causal_series_12/causal_series_12_a.jpg"" style=""width: 300px; height: 300px;"" />
              </div>","null",""
"","","","","","html-button-response","12","77658","0.0-10.0","E8E092CB5A8543C39FED48E4A17B996C","37173a5e-b6d0-4483-b7a4-7d6efdaadeda","23db58b9-63b0-4bce-8714-07ce439e665e","","1721","
    <div style=""display: flex; justify-content: center; align-items: center;"">
      <img src=""images/red_deck_2.png"" style=""width: 300px; height: 300px; margin-right: 10px;"" />
      <img src=""images/blue_deck_1.png"" style=""width: 300px; height: 300px;"" />
    </div>","0","0"
"","","","","","html-keyboard-response","13","80660","0.0-11.0-0.0-0.0","E8E092CB5A8543C39FED48E4A17B996C","37173a5e-b6d0-4483-b7a4-7d6efdaadeda","23db58b9-63b0-4bce-8714-07ce439e665e","","null","<div style=""display: flex; justify-content: center; align-items: center;"">
                <img src=""images/causal/causal_series_12/causal_series_12_b.jpg"" style=""width: 300px; height: 300px;"" />
              </div>","null",""
"","","","","","html-keyboard-response","14","83662","0.0-11.0-0.0-1.0","E8E092CB5A8543C39FED48E4A17B996C","37173a5e-b6d0-4483-b7a4-7d6efdaadeda","23db58b9-63b0-4bce-8714-07ce439e665e","","null","<div style=""display: flex; justify-content: center; align-items: center;"">
                <img src=""images/causal/causal_series_12/causal_series_12_c.jpg"" style=""width: 300px; height: 300px;"" />
              </div>","null",""
"","","","","","html-keyboard-response","15","86664","0.0-11.0-0.0-2.0","E8E092CB5A8543C39FED48E4A17B996C","37173a5e-b6d0-4483-b7a4-7d6efdaadeda","23db58b9-63b0-4bce-8714-07ce439e665e","","null","<div style=""display: flex; justify-content: center; align-items: center;"">
                <img src=""images/causal/causal_series_12/causal_series_12_d.jpg"" style=""width: 300px; height: 300px;"" />
              </div>","null",""
"","","","","","html-keyboard-response","16","89666","0.0-12.0","E8E092CB5A8543C39FED48E4A17B996C","37173a5e-b6d0-4483-b7a4-7d6efdaadeda","23db58b9-63b0-4bce-8714-07ce439e665e","","null","<div style=""display: flex; justify-content: center; align-items: center;"">
                <img src=""images/other/blank.jpg"" style=""width: 300px; height: 300px;"" />
              </div>","null",""
"","","","","","html-keyboard-response","17","92667","0.0-13.0","E8E092CB5A8543C39FED48E4A17B996C","37173a5e-b6d0-4483-b7a4-7d6efdaadeda","23db58b9-63b0-4bce-8714-07ce439e665e","","null","<div style=""display: flex; justify-content: center; align-items: center;"">
                <img src=""images/causal/causal_series_3/causal_series_3_a.jpg"" style=""width: 300px; height: 300px;"" />
              </div>","null",""
"","","","","","html-button-response","18","94632","0.0-14.0","E8E092CB5A8543C39FED48E4A17B996C","37173a5e-b6d0-4483-b7a4-7d6efdaadeda","23db58b9-63b0-4bce-8714-07ce439e665e","","1963","
    <div style=""display: flex; justify-content: center; align-items: center;"">
      <img src=""images/red_deck_2.png"" style=""width: 300px; height: 300px; margin-right: 10px;"" />
      <img src=""images/blue_deck_1.png"" style=""width: 300px; height: 300px;"" />
    </div>","0","0"
"","","","","","html-keyboard-response","19","97633","0.0-15.0-0.0-0.0","E8E092CB5A8543C39FED48E4A17B996C","37173a5e-b6d0-4483-b7a4-7d6efdaadeda","23db58b9-63b0-4bce-8714-07ce439e665e","","null","<div style=""display: flex; justify-content: center; align-items: center;"">
                <img src=""images/causal/causal_series_3/causal_series_3_b.jpg"" style=""width: 300px; height: 300px;"" />
              </div>","null",""
"","","","","","html-keyboard-response","20","100635","0.0-15.0-0.0-1.0","E8E092CB5A8543C39FED48E4A17B996C","37173a5e-b6d0-4483-b7a4-7d6efdaadeda","23db58b9-63b0-4bce-8714-07ce439e665e","","null","<div style=""display: flex; justify-content: center; align-items: center;"">
                <img src=""images/causal/causal_series_3/causal_series_3_c.jpg"" style=""width: 300px; height: 300px;"" />
              </div>","null",""
"","","","","","html-keyboard-response","21","103637","0.0-15.0-0.0-2.0","E8E092CB5A8543C39FED48E4A17B996C","37173a5e-b6d0-4483-b7a4-7d6efdaadeda","23db58b9-63b0-4bce-8714-07ce439e665e","","null","<div style=""display: flex; justify-content: center; align-items: center;"">
                <img src=""images/causal/causal_series_3/causal_series_3_d.jpg"" style=""width: 300px; height: 300px;"" />
              </div>","null",""
"","","","","","html-keyboard-response","22","106639","0.0-16.0","E8E092CB5A8543C39FED48E4A17B996C","37173a5e-b6d0-4483-b7a4-7d6efdaadeda","23db58b9-63b0-4bce-8714-07ce439e665e","","null","<div style=""display: flex; justify-content: center; align-items: center;"">
                <img src=""images/other/blank.jpg"" style=""width: 300px; height: 300px;"" />
              </div>","null",""
"","","","","","html-keyboard-response","23","109640","0.0-17.0","E8E092CB5A8543C39FED48E4A17B996C","37173a5e-b6d0-4483-b7a4-7d6efdaadeda","23db58b9-63b0-4bce-8714-07ce439e665e","","null","<div style=""display: flex; justify-content: center; align-items: center;"">
                <img src=""images/causal/causal_series_18/causal_series_18_a.jpg"" style=""width: 300px; height: 300px;"" />
              </div>","null",""
"","","","","","html-button-response","24","112399","0.0-18.0","E8E092CB5A8543C39FED48E4A17B996C","37173a5e-b6d0-4483-b7a4-7d6efdaadeda","23db58b9-63b0-4bce-8714-07ce439e665e","","2757","
    <div style=""display: flex; justify-content: center; align-items: center;"">
      <img src=""images/red_deck_2.png"" style=""width: 300px; height: 300px; margin-right: 10px;"" />
      <img src=""images/blue_deck_1.png"" style=""width: 300px; height: 300px;"" />
    </div>","1","1"
"","","","","","html-keyboard-response","25","115400","0.0-19.0-1.0-0.0","E8E092CB5A8543C39FED48E4A17B996C","37173a5e-b6d0-4483-b7a4-7d6efdaadeda","23db58b9-63b0-4bce-8714-07ce439e665e","","null","<div style=""display: flex; justify-content: center; align-items: center;"">
                <img src=""images/semantic/semantic_series_15/semantic_series_15_d.jpg"" style=""width: 300px; height: 300px;"" />
              </div>","null",""
"","","","","","html-keyboard-response","26","118401","0.0-19.0-1.0-1.0","E8E092CB5A8543C39FED48E4A17B996C","37173a5e-b6d0-4483-b7a4-7d6efdaadeda","23db58b9-63b0-4bce-8714-07ce439e665e","","null","<div style=""display: flex; justify-content: center; align-items: center;"">
                <img src=""images/semantic/semantic_series_16/semantic_series_16_d.jpg"" style=""width: 300px; height: 300px;"" />
              </div>","null",""
"","","","","","html-keyboard-response","27","121403","0.0-19.0-1.0-2.0","E8E092CB5A8543C39FED48E4A17B996C","37173a5e-b6d0-4483-b7a4-7d6efdaadeda","23db58b9-63b0-4bce-8714-07ce439e665e","","null","<div style=""display: flex; justify-content: center; align-items: center;"">
                <img src=""images/semantic/semantic_series_17/semantic_series_17_d.jpg"" style=""width: 300px; height: 300px;"" />
              </div>","null",""
"","","","","","html-keyboard-response","28","124405","0.0-20.0","E8E092CB5A8543C39FED48E4A17B996C","37173a5e-b6d0-4483-b7a4-7d6efdaadeda","23db58b9-63b0-4bce-8714-07ce439e665e","","null","<div style=""display: flex; justify-content: center; align-items: center;"">
                <img src=""images/other/blank.jpg"" style=""width: 300px; height: 300px;"" />
              </div>","null",""
"","","","","","html-keyboard-response","29","127407","0.0-21.0","E8E092CB5A8543C39FED48E4A17B996C","37173a5e-b6d0-4483-b7a4-7d6efdaadeda","23db58b9-63b0-4bce-8714-07ce439e665e","","null","<div style=""display: flex; justify-content: center; align-items: center;"">
                <img src=""images/causal/causal_series_1/causal_series_1_a.jpg"" style=""width: 300px; height: 300px;"" />
              </div>","null",""
"","","","","","html-button-response","30","130047","0.0-22.0","E8E092CB5A8543C39FED48E4A17B996C","37173a5e-b6d0-4483-b7a4-7d6efdaadeda","23db58b9-63b0-4bce-8714-07ce439e665e","","2639","
    <div style=""display: flex; justify-content: center; align-items: center;"">
      <img src=""images/red_deck_2.png"" style=""width: 300px; height: 300px; margin-right: 10px;"" />
      <img src=""images/blue_deck_1.png"" style=""width: 300px; height: 300px;"" />
    </div>","0","0"
"","","","","","html-keyboard-response","31","133049","0.0-23.0-0.0-0.0","E8E092CB5A8543C39FED48E4A17B996C","37173a5e-b6d0-4483-b7a4-7d6efdaadeda","23db58b9-63b0-4bce-8714-07ce439e665e","","null","<div style=""display: flex; justify-content: center; align-items: center;"">
                <img src=""images/causal/causal_series_1/causal_series_1_b.jpg"" style=""width: 300px; height: 300px;"" />
              </div>","null",""
"","","","","","html-keyboard-response","32","136051","0.0-23.0-0.0-1.0","E8E092CB5A8543C39FED48E4A17B996C","37173a5e-b6d0-4483-b7a4-7d6efdaadeda","23db58b9-63b0-4bce-8714-07ce439e665e","","null","<div style=""display: flex; justify-content: center; align-items: center;"">
                <img src=""images/causal/causal_series_1/causal_series_1_c.jpg"" style=""width: 300px; height: 300px;"" />
              </div>","null",""
"","","","","","html-keyboard-response","33","139052","0.0-23.0-0.0-2.0","E8E092CB5A8543C39FED48E4A17B996C","37173a5e-b6d0-4483-b7a4-7d6efdaadeda","23db58b9-63b0-4bce-8714-07ce439e665e","","null","<div style=""display: flex; justify-content: center; align-items: center;"">
                <img src=""images/causal/causal_series_1/causal_series_1_d.jpg"" style=""width: 300px; height: 300px;"" />
              </div>","null",""
"","","","","","html-keyboard-response","34","142054","0.0-24.0","E8E092CB5A8543C39FED48E4A17B996C","37173a5e-b6d0-4483-b7a4-7d6efdaadeda","23db58b9-63b0-4bce-8714-07ce439e665e","","null","<div style=""display: flex; justify-content: center; align-items: center;"">
                <img src=""images/other/blank.jpg"" style=""width: 300px; height: 300px;"" />
              </div>","null",""
"","","","","","html-keyboard-response","35","145055","0.0-25.0","E8E092CB5A8543C39FED48E4A17B996C","37173a5e-b6d0-4483-b7a4-7d6efdaadeda","23db58b9-63b0-4bce-8714-07ce439e665e","","null","<div style=""display: flex; justify-content: center; align-items: center;"">
                <img src=""images/causal/causal_series_14/causal_series_14_a.jpg"" style=""width: 300px; height: 300px;"" />
              </div>","null",""
"","","","","","html-button-response","36","146482","0.0-26.0","E8E092CB5A8543C39FED48E4A17B996C","37173a5e-b6d0-4483-b7a4-7d6efdaadeda","23db58b9-63b0-4bce-8714-07ce439e665e","","1425","
    <div style=""display: flex; justify-content: center; align-items: center;"">
      <img src=""images/red_deck_2.png"" style=""width: 300px; height: 300px; margin-right: 10px;"" />
      <img src=""images/blue_deck_1.png"" style=""width: 300px; height: 300px;"" />
    </div>","0","0"
"","","","","","html-keyboard-response","37","149484","0.0-27.0-0.0-0.0","E8E092CB5A8543C39FED48E4A17B996C","37173a5e-b6d0-4483-b7a4-7d6efdaadeda","23db58b9-63b0-4bce-8714-07ce439e665e","","null","<div style=""display: flex; justify-content: center; align-items: center;"">
                <img src=""images/causal/causal_series_14/causal_series_14_b.jpg"" style=""width: 300px; height: 300px;"" />
              </div>","null",""
"","","","","","html-keyboard-response","38","152486","0.0-27.0-0.0-1.0","E8E092CB5A8543C39FED48E4A17B996C","37173a5e-b6d0-4483-b7a4-7d6efdaadeda","23db58b9-63b0-4bce-8714-07ce439e665e","","null","<div style=""display: flex; justify-content: center; align-items: center;"">
                <img src=""images/causal/causal_series_14/causal_series_14_c.jpg"" style=""width: 300px; height: 300px;"" />
              </div>","null",""
"","","","","","html-keyboard-response","39","155487","0.0-27.0-0.0-2.0","E8E092CB5A8543C39FED48E4A17B996C","37173a5e-b6d0-4483-b7a4-7d6efdaadeda","23db58b9-63b0-4bce-8714-07ce439e665e","","null","<div style=""display: flex; justify-content: center; align-items: center;"">
                <img src=""images/causal/causal_series_14/causal_series_14_d.jpg"" style=""width: 300px; height: 300px;"" />
              </div>","null",""
"","","","","","html-keyboard-response","40","158488","0.0-28.0","E8E092CB5A8543C39FED48E4A17B996C","37173a5e-b6d0-4483-b7a4-7d6efdaadeda","23db58b9-63b0-4bce-8714-07ce439e665e","","null","<div style=""display: flex; justify-content: center; align-items: center;"">
                <img src=""images/other/blank.jpg"" style=""width: 300px; height: 300px;"" />
              </div>","null",""
"","","","","","html-keyboard-response","41","161490","0.0-29.0","E8E092CB5A8543C39FED48E4A17B996C","37173a5e-b6d0-4483-b7a4-7d6efdaadeda","23db58b9-63b0-4bce-8714-07ce439e665e","","null","<div style=""display: flex; justify-content: center; align-items: center;"">
                <img src=""images/causal/causal_series_9/causal_series_9_a.jpg"" style=""width: 300px; height: 300px;"" />
              </div>","null",""
"","","","","","html-button-response","42","162592","0.0-30.0","E8E092CB5A8543C39FED48E4A17B996C","37173a5e-b6d0-4483-b7a4-7d6efdaadeda","23db58b9-63b0-4bce-8714-07ce439e665e","","1102","
    <div style=""display: flex; justify-content: center; align-items: center;"">
      <img src=""images/red_deck_2.png"" style=""width: 300px; height: 300px; margin-right: 10px;"" />
      <img src=""images/blue_deck_1.png"" style=""width: 300px; height: 300px;"" />
    </div>","0","0"
"","","","","","html-keyboard-response","43","165594","0.0-31.0-0.0-0.0","E8E092CB5A8543C39FED48E4A17B996C","37173a5e-b6d0-4483-b7a4-7d6efdaadeda","23db58b9-63b0-4bce-8714-07ce439e665e","","null","<div style=""display: flex; justify-content: center; align-items: center;"">
                <img src=""images/causal/causal_series_9/causal_series_9_b.jpg"" style=""width: 300px; height: 300px;"" />
              </div>","null",""
"","","","","","html-keyboard-response","44","168596","0.0-31.0-0.0-1.0","E8E092CB5A8543C39FED48E4A17B996C","37173a5e-b6d0-4483-b7a4-7d6efdaadeda","23db58b9-63b0-4bce-8714-07ce439e665e","","null","<div style=""display: flex; justify-content: center; align-items: center;"">
                <img src=""images/causal/causal_series_9/causal_series_9_c.jpg"" style=""width: 300px; height: 300px;"" />
              </div>","null",""
"","","","","","html-keyboard-response","45","171597","0.0-31.0-0.0-2.0","E8E092CB5A8543C39FED48E4A17B996C","37173a5e-b6d0-4483-b7a4-7d6efdaadeda","23db58b9-63b0-4bce-8714-07ce439e665e","","null","<div style=""display: flex; justify-content: center; align-items: center;"">
                <img src=""images/causal/causal_series_9/causal_series_9_d.jpg"" style=""width: 300px; height: 300px;"" />
              </div>","null",""
"","","","","","html-keyboard-response","46","174600","0.0-32.0","E8E092CB5A8543C39FED48E4A17B996C","37173a5e-b6d0-4483-b7a4-7d6efdaadeda","23db58b9-63b0-4bce-8714-07ce439e665e","","null","<div style=""display: flex; justify-content: center; align-items: center;"">
                <img src=""images/other/blank.jpg"" style=""width: 300px; height: 300px;"" />
              </div>","null",""
"","","","","","html-keyboard-response","47","177601","0.0-33.0","E8E092CB5A8543C39FED48E4A17B996C","37173a5e-b6d0-4483-b7a4-7d6efdaadeda","23db58b9-63b0-4bce-8714-07ce439e665e","","null","<div style=""display: flex; justify-content: center; align-items: center;"">
                <img src=""images/causal/causal_series_4/causal_series_4_a.jpg"" style=""width: 300px; height: 300px;"" />
              </div>","null",""
"","","","","","html-button-response","48","258395","0.0-34.0","E8E092CB5A8543C39FED48E4A17B996C","37173a5e-b6d0-4483-b7a4-7d6efdaadeda","23db58b9-63b0-4bce-8714-07ce439e665e","","80795","
    <div style=""display: flex; justify-content: center; align-items: center;"">
      <img src=""images/red_deck_2.png"" style=""width: 300px; height: 300px; margin-right: 10px;"" />
      <img src=""images/blue_deck_1.png"" style=""width: 300px; height: 300px;"" />
    </div>","0","0"
"","","","","","html-keyboard-response","49","261397","0.0-35.0-0.0-0.0","E8E092CB5A8543C39FED48E4A17B996C","37173a5e-b6d0-4483-b7a4-7d6efdaadeda","23db58b9-63b0-4bce-8714-07ce439e665e","","null","<div style=""display: flex; justify-content: center; align-items: center;"">
                <img src=""images/causal/causal_series_4/causal_series_4_b.jpg"" style=""width: 300px; height: 300px;"" />
              </div>","null",""
"","","","","","html-keyboard-response","50","264398","0.0-35.0-0.0-1.0","E8E092CB5A8543C39FED48E4A17B996C","37173a5e-b6d0-4483-b7a4-7d6efdaadeda","23db58b9-63b0-4bce-8714-07ce439e665e","","null","<div style=""display: flex; justify-content: center; align-items: center;"">
                <img src=""images/causal/causal_series_4/causal_series_4_c.jpg"" style=""width: 300px; height: 300px;"" />
              </div>","null",""
"","","","","","html-keyboard-response","51","267400","0.0-35.0-0.0-2.0","E8E092CB5A8543C39FED48E4A17B996C","37173a5e-b6d0-4483-b7a4-7d6efdaadeda","23db58b9-63b0-4bce-8714-07ce439e665e","","null","<div style=""display: flex; justify-content: center; align-items: center;"">
                <img src=""images/causal/causal_series_4/causal_series_4_d.jpg"" style=""width: 300px; height: 300px;"" />
              </div>","null",""
"","","","","","html-keyboard-response","52","270401","0.0-36.0","E8E092CB5A8543C39FED48E4A17B996C","37173a5e-b6d0-4483-b7a4-7d6efdaadeda","23db58b9-63b0-4bce-8714-07ce439e665e","","null","<div style=""display: flex; justify-content: center; align-items: center;"">
                <img src=""images/other/blank.jpg"" style=""width: 300px; height: 300px;"" />
              </div>","null",""
"","","","","","html-keyboard-response","53","273403","0.0-37.0","E8E092CB5A8543C39FED48E4A17B996C","37173a5e-b6d0-4483-b7a4-7d6efdaadeda","23db58b9-63b0-4bce-8714-07ce439e665e","","null","<div style=""display: flex; justify-content: center; align-items: center;"">
                <img src=""images/causal/causal_series_11/causal_series_11_a.jpg"" style=""width: 300px; height: 300px;"" />
              </div>","null",""
"","","","","","html-button-response","54","275149","0.0-38.0","E8E092CB5A8543C39FED48E4A17B996C","37173a5e-b6d0-4483-b7a4-7d6efdaadeda","23db58b9-63b0-4bce-8714-07ce439e665e","","1745","
    <div style=""display: flex; justify-content: center; align-items: center;"">
      <img src=""images/red_deck_2.png"" style=""width: 300px; height: 300px; margin-right: 10px;"" />
      <img src=""images/blue_deck_1.png"" style=""width: 300px; height: 300px;"" />
    </div>","1","1"
"","","","","","html-keyboard-response","55","278151","0.0-39.0-1.0-0.0","E8E092CB5A8543C39FED48E4A17B996C","37173a5e-b6d0-4483-b7a4-7d6efdaadeda","23db58b9-63b0-4bce-8714-07ce439e665e","","null","<div style=""display: flex; justify-content: center; align-items: center;"">
                <img src=""images/semantic/semantic_series_12/semantic_series_12_d.jpg"" style=""width: 300px; height: 300px;"" />
              </div>","null",""
"","","","","","html-keyboard-response","56","281153","0.0-39.0-1.0-1.0","E8E092CB5A8543C39FED48E4A17B996C","37173a5e-b6d0-4483-b7a4-7d6efdaadeda","23db58b9-63b0-4bce-8714-07ce439e665e","","null","<div style=""display: flex; justify-content: center; align-items: center;"">
                <img src=""images/semantic/semantic_series_13/semantic_series_13_d.jpg"" style=""width: 300px; height: 300px;"" />
              </div>","null",""
"","","","","","html-keyboard-response","57","284154","0.0-39.0-1.0-2.0","E8E092CB5A8543C39FED48E4A17B996C","37173a5e-b6d0-4483-b7a4-7d6efdaadeda","23db58b9-63b0-4bce-8714-07ce439e665e","","null","<div style=""display: flex; justify-content: center; align-items: center;"">
                <img src=""images/semantic/semantic_series_14/semantic_series_14_d.jpg"" style=""width: 300px; height: 300px;"" />
              </div>","null",""
"","","","","","html-keyboard-response","58","287156","0.0-40.0","E8E092CB5A8543C39FED48E4A17B996C","37173a5e-b6d0-4483-b7a4-7d6efdaadeda","23db58b9-63b0-4bce-8714-07ce439e665e","","null","<div style=""display: flex; justify-content: center; align-items: center;"">
                <img src=""images/other/blank.jpg"" style=""width: 300px; height: 300px;"" />
              </div>","null",""
"","","","","","html-keyboard-response","59","290158","0.0-41.0","E8E092CB5A8543C39FED48E4A17B996C","37173a5e-b6d0-4483-b7a4-7d6efdaadeda","23db58b9-63b0-4bce-8714-07ce439e665e","","null","<div style=""display: flex; justify-content: center; align-items: center;"">
                <img src=""images/causal/causal_series_15/causal_series_15_a.jpg"" style=""width: 300px; height: 300px;"" />
              </div>","null",""
"","","","","","html-button-response","60","291380","0.0-42.0","E8E092CB5A8543C39FED48E4A17B996C","37173a5e-b6d0-4483-b7a4-7d6efdaadeda","23db58b9-63b0-4bce-8714-07ce439e665e","","1221","
    <div style=""display: flex; justify-content: center; align-items: center;"">
      <img src=""images/red_deck_2.png"" style=""width: 300px; height: 300px; margin-right: 10px;"" />
      <img src=""images/blue_deck_1.png"" style=""width: 300px; height: 300px;"" />
    </div>","1","1"
"","","","","","html-keyboard-response","61","294382","0.0-43.0-1.0-0.0","E8E092CB5A8543C39FED48E4A17B996C","37173a5e-b6d0-4483-b7a4-7d6efdaadeda","23db58b9-63b0-4bce-8714-07ce439e665e","","null","<div style=""display: flex; justify-content: center; align-items: center;"">
                <img src=""images/semantic/semantic_series_6/semantic_series_6_d.jpg"" style=""width: 300px; height: 300px;"" />
              </div>","null",""
"","","","","","html-keyboard-response","62","297384","0.0-43.0-1.0-1.0","E8E092CB5A8543C39FED48E4A17B996C","37173a5e-b6d0-4483-b7a4-7d6efdaadeda","23db58b9-63b0-4bce-8714-07ce439e665e","","null","<div style=""display: flex; justify-content: center; align-items: center;"">
                <img src=""images/semantic/semantic_series_7/semantic_series_7_d.jpg"" style=""width: 300px; height: 300px;"" />
              </div>","null",""
"","","","","","html-keyboard-response","63","300386","0.0-43.0-1.0-2.0","E8E092CB5A8543C39FED48E4A17B996C","37173a5e-b6d0-4483-b7a4-7d6efdaadeda","23db58b9-63b0-4bce-8714-07ce439e665e","","null","<div style=""display: flex; justify-content: center; align-items: center;"">
                <img src=""images/semantic/semantic_series_8/semantic_series_8_d.jpg"" style=""width: 300px; height: 300px;"" />
              </div>","null",""
"","","","","","html-keyboard-response","64","303387","0.0-44.0","E8E092CB5A8543C39FED48E4A17B996C","37173a5e-b6d0-4483-b7a4-7d6efdaadeda","23db58b9-63b0-4bce-8714-07ce439e665e","","null","<div style=""display: flex; justify-content: center; align-items: center;"">
                <img src=""images/other/blank.jpg"" style=""width: 300px; height: 300px;"" />
              </div>","null",""
"","","","","","html-keyboard-response","65","306388","0.0-45.0","E8E092CB5A8543C39FED48E4A17B996C","37173a5e-b6d0-4483-b7a4-7d6efdaadeda","23db58b9-63b0-4bce-8714-07ce439e665e","","null","<div style=""display: flex; justify-content: center; align-items: center;"">
                <img src=""images/causal/causal_series_17/causal_series_17_a.jpg"" style=""width: 300px; height: 300px;"" />
              </div>","null",""
"","","","","","html-button-response","66","308268","0.0-46.0","E8E092CB5A8543C39FED48E4A17B996C","37173a5e-b6d0-4483-b7a4-7d6efdaadeda","23db58b9-63b0-4bce-8714-07ce439e665e","","1879","
    <div style=""display: flex; justify-content: center; align-items: center;"">
      <img src=""images/red_deck_2.png"" style=""width: 300px; height: 300px; margin-right: 10px;"" />
      <img src=""images/blue_deck_1.png"" style=""width: 300px; height: 300px;"" />
    </div>","0","0"
"","","","","","html-keyboard-response","67","311270","0.0-47.0-0.0-0.0","E8E092CB5A8543C39FED48E4A17B996C","37173a5e-b6d0-4483-b7a4-7d6efdaadeda","23db58b9-63b0-4bce-8714-07ce439e665e","","null","<div style=""display: flex; justify-content: center; align-items: center;"">
                <img src=""images/causal/causal_series_17/causal_series_17_b.jpg"" style=""width: 300px; height: 300px;"" />
              </div>","null",""
"","","","","","html-keyboard-response","68","314273","0.0-47.0-0.0-1.0","E8E092CB5A8543C39FED48E4A17B996C","37173a5e-b6d0-4483-b7a4-7d6efdaadeda","23db58b9-63b0-4bce-8714-07ce439e665e","","null","<div style=""display: flex; justify-content: center; align-items: center;"">
                <img src=""images/causal/causal_series_17/causal_series_17_c.jpg"" style=""width: 300px; height: 300px;"" />
              </div>","null",""
"","","","","","html-keyboard-response","69","317275","0.0-47.0-0.0-2.0","E8E092CB5A8543C39FED48E4A17B996C","37173a5e-b6d0-4483-b7a4-7d6efdaadeda","23db58b9-63b0-4bce-8714-07ce439e665e","","null","<div style=""display: flex; justify-content: center; align-items: center;"">
                <img src=""images/causal/causal_series_17/causal_series_17_d.jpg"" style=""width: 300px; height: 300px;"" />
              </div>","null",""
"","","","","","html-keyboard-response","70","320277","0.0-48.0","E8E092CB5A8543C39FED48E4A17B996C","37173a5e-b6d0-4483-b7a4-7d6efdaadeda","23db58b9-63b0-4bce-8714-07ce439e665e","","null","<div style=""display: flex; justify-content: center; align-items: center;"">
                <img src=""images/other/blank.jpg"" style=""width: 300px; height: 300px;"" />
              </div>","null",""
"","","","","","html-keyboard-response","71","323278","0.0-49.0","E8E092CB5A8543C39FED48E4A17B996C","37173a5e-b6d0-4483-b7a4-7d6efdaadeda","23db58b9-63b0-4bce-8714-07ce439e665e","","null","<div style=""display: flex; justify-content: center; align-items: center;"">
                <img src=""images/causal/causal_series_10/causal_series_10_a.jpg"" style=""width: 300px; height: 300px;"" />
              </div>","null",""
"","","","","","html-button-response","72","342138","0.0-50.0","E8E092CB5A8543C39FED48E4A17B996C","37173a5e-b6d0-4483-b7a4-7d6efdaadeda","23db58b9-63b0-4bce-8714-07ce439e665e","","18859","
    <div style=""display: flex; justify-content: center; align-items: center;"">
      <img src=""images/red_deck_2.png"" style=""width: 300px; height: 300px; margin-right: 10px;"" />
      <img src=""images/blue_deck_1.png"" style=""width: 300px; height: 300px;"" />
    </div>","0","0"
"","","","","","html-keyboard-response","73","345140","0.0-51.0-0.0-0.0","E8E092CB5A8543C39FED48E4A17B996C","37173a5e-b6d0-4483-b7a4-7d6efdaadeda","23db58b9-63b0-4bce-8714-07ce439e665e","","null","<div style=""display: flex; justify-content: center; align-items: center;"">
                <img src=""images/causal/causal_series_10/causal_series_10_b.jpg"" style=""width: 300px; height: 300px;"" />
              </div>","null",""
"","","","","","html-keyboard-response","74","348143","0.0-51.0-0.0-1.0","E8E092CB5A8543C39FED48E4A17B996C","37173a5e-b6d0-4483-b7a4-7d6efdaadeda","23db58b9-63b0-4bce-8714-07ce439e665e","","null","<div style=""display: flex; justify-content: center; align-items: center;"">
                <img src=""images/causal/causal_series_10/causal_series_10_c.jpg"" style=""width: 300px; height: 300px;"" />
              </div>","null",""
"","","","","","html-keyboard-response","75","351144","0.0-51.0-0.0-2.0","E8E092CB5A8543C39FED48E4A17B996C","37173a5e-b6d0-4483-b7a4-7d6efdaadeda","23db58b9-63b0-4bce-8714-07ce439e665e","","null","<div style=""display: flex; justify-content: center; align-items: center;"">
                <img src=""images/causal/causal_series_10/causal_series_10_d.jpg"" style=""width: 300px; height: 300px;"" />
              </div>","null",""
"","","","","","html-keyboard-response","76","354146","0.0-52.0","E8E092CB5A8543C39FED48E4A17B996C","37173a5e-b6d0-4483-b7a4-7d6efdaadeda","23db58b9-63b0-4bce-8714-07ce439e665e","","null","<div style=""display: flex; justify-content: center; align-items: center;"">
                <img src=""images/other/blank.jpg"" style=""width: 300px; height: 300px;"" />
              </div>","null",""
"","","","","","html-keyboard-response","77","357147","0.0-53.0","E8E092CB5A8543C39FED48E4A17B996C","37173a5e-b6d0-4483-b7a4-7d6efdaadeda","23db58b9-63b0-4bce-8714-07ce439e665e","","null","<div style=""display: flex; justify-content: center; align-items: center;"">
                <img src=""images/causal/causal_series_16/causal_series_16_a.jpg"" style=""width: 300px; height: 300px;"" />
              </div>","null",""
"","","","","","html-button-response","78","360181","0.0-54.0","E8E092CB5A8543C39FED48E4A17B996C","37173a5e-b6d0-4483-b7a4-7d6efdaadeda","23db58b9-63b0-4bce-8714-07ce439e665e","","3033","
    <div style=""display: flex; justify-content: center; align-items: center;"">
      <img src=""images/red_deck_2.png"" style=""width: 300px; height: 300px; margin-right: 10px;"" />
      <img src=""images/blue_deck_1.png"" style=""width: 300px; height: 300px;"" />
    </div>","1","1"
"","","","","","html-keyboard-response","79","363182","0.0-55.0-1.0-0.0","E8E092CB5A8543C39FED48E4A17B996C","37173a5e-b6d0-4483-b7a4-7d6efdaadeda","23db58b9-63b0-4bce-8714-07ce439e665e","","null","<div style=""display: flex; justify-content: center; align-items: center;"">
                <img src=""images/semantic/semantic_series_9/semantic_series_9_d.jpg"" style=""width: 300px; height: 300px;"" />
              </div>","null",""
"","","","","","html-keyboard-response","80","366184","0.0-55.0-1.0-1.0","E8E092CB5A8543C39FED48E4A17B996C","37173a5e-b6d0-4483-b7a4-7d6efdaadeda","23db58b9-63b0-4bce-8714-07ce439e665e","","null","<div style=""display: flex; justify-content: center; align-items: center;"">
                <img src=""images/semantic/semantic_series_10/semantic_series_10_d.jpg"" style=""width: 300px; height: 300px;"" />
              </div>","null",""
"","","","","","html-keyboard-response","81","369185","0.0-55.0-1.0-2.0","E8E092CB5A8543C39FED48E4A17B996C","37173a5e-b6d0-4483-b7a4-7d6efdaadeda","23db58b9-63b0-4bce-8714-07ce439e665e","","null","<div style=""display: flex; justify-content: center; align-items: center;"">
                <img src=""images/semantic/semantic_series_11/semantic_series_11_d.jpg"" style=""width: 300px; height: 300px;"" />
              </div>","null",""
"","","","","","html-keyboard-response","82","372187","0.0-56.0","E8E092CB5A8543C39FED48E4A17B996C","37173a5e-b6d0-4483-b7a4-7d6efdaadeda","23db58b9-63b0-4bce-8714-07ce439e665e","","null","<div style=""display: flex; justify-content: center; align-items: center;"">
                <img src=""images/other/blank.jpg"" style=""width: 300px; height: 300px;"" />
              </div>","null",""
"","","","","","html-keyboard-response","83","375188","0.0-57.0","E8E092CB5A8543C39FED48E4A17B996C","37173a5e-b6d0-4483-b7a4-7d6efdaadeda","23db58b9-63b0-4bce-8714-07ce439e665e","","null","<div style=""display: flex; justify-content: center; align-items: center;"">
                <img src=""images/causal/causal_series_6/causal_series_6_a.jpg"" style=""width: 300px; height: 300px;"" />
              </div>","null",""
"","","","","","html-button-response","84","377194","0.0-58.0","E8E092CB5A8543C39FED48E4A17B996C","37173a5e-b6d0-4483-b7a4-7d6efdaadeda","23db58b9-63b0-4bce-8714-07ce439e665e","","2005","
    <div style=""display: flex; justify-content: center; align-items: center;"">
      <img src=""images/red_deck_2.png"" style=""width: 300px; height: 300px; margin-right: 10px;"" />
      <img src=""images/blue_deck_1.png"" style=""width: 300px; height: 300px;"" />
    </div>","1","1"
"","","","","","html-keyboard-response","85","380196","0.0-59.0-1.0-0.0","E8E092CB5A8543C39FED48E4A17B996C","37173a5e-b6d0-4483-b7a4-7d6efdaadeda","23db58b9-63b0-4bce-8714-07ce439e665e","","null","<div style=""display: flex; justify-content: center; align-items: center;"">
                <img src=""images/semantic/semantic_series_15/semantic_series_15_d.jpg"" style=""width: 300px; height: 300px;"" />
              </div>","null",""
"","","","","","html-keyboard-response","86","383199","0.0-59.0-1.0-1.0","E8E092CB5A8543C39FED48E4A17B996C","37173a5e-b6d0-4483-b7a4-7d6efdaadeda","23db58b9-63b0-4bce-8714-07ce439e665e","","null","<div style=""display: flex; justify-content: center; align-items: center;"">
                <img src=""images/semantic/semantic_series_16/semantic_series_16_d.jpg"" style=""width: 300px; height: 300px;"" />
              </div>","null",""
"","","","","","html-keyboard-response","87","386200","0.0-59.0-1.0-2.0","E8E092CB5A8543C39FED48E4A17B996C","37173a5e-b6d0-4483-b7a4-7d6efdaadeda","23db58b9-63b0-4bce-8714-07ce439e665e","","null","<div style=""display: flex; justify-content: center; align-items: center;"">
                <img src=""images/semantic/semantic_series_17/semantic_series_17_d.jpg"" style=""width: 300px; height: 300px;"" />
              </div>","null",""
"","","","","","html-keyboard-response","88","389201","0.0-60.0","E8E092CB5A8543C39FED48E4A17B996C","37173a5e-b6d0-4483-b7a4-7d6efdaadeda","23db58b9-63b0-4bce-8714-07ce439e665e","","null","<div style=""display: flex; justify-content: center; align-items: center;"">
                <img src=""images/other/blank.jpg"" style=""width: 300px; height: 300px;"" />
              </div>","null",""
"","","","","","html-keyboard-response","89","392203","0.0-61.0","E8E092CB5A8543C39FED48E4A17B996C","37173a5e-b6d0-4483-b7a4-7d6efdaadeda","23db58b9-63b0-4bce-8714-07ce439e665e","","null","<div style=""display: flex; justify-content: center; align-items: center;"">
                <img src=""images/causal/causal_series_8/causal_series_8_a.jpg"" style=""width: 300px; height: 300px;"" />
              </div>","null",""
"","","","","","html-button-response","90","399623","0.0-62.0","E8E092CB5A8543C39FED48E4A17B996C","37173a5e-b6d0-4483-b7a4-7d6efdaadeda","23db58b9-63b0-4bce-8714-07ce439e665e","","7419","
    <div style=""display: flex; justify-content: center; align-items: center;"">
      <img src=""images/red_deck_2.png"" style=""width: 300px; height: 300px; margin-right: 10px;"" />
      <img src=""images/blue_deck_1.png"" style=""width: 300px; height: 300px;"" />
    </div>","0","0"
"","","","","","html-keyboard-response","91","402624","0.0-63.0-0.0-0.0","E8E092CB5A8543C39FED48E4A17B996C","37173a5e-b6d0-4483-b7a4-7d6efdaadeda","23db58b9-63b0-4bce-8714-07ce439e665e","","null","<div style=""display: flex; justify-content: center; align-items: center;"">
                <img src=""images/causal/causal_series_8/causal_series_8_b.jpg"" style=""width: 300px; height: 300px;"" />
              </div>","null",""
"","","","","","html-keyboard-response","92","405626","0.0-63.0-0.0-1.0","E8E092CB5A8543C39FED48E4A17B996C","37173a5e-b6d0-4483-b7a4-7d6efdaadeda","23db58b9-63b0-4bce-8714-07ce439e665e","","null","<div style=""display: flex; justify-content: center; align-items: center;"">
                <img src=""images/causal/causal_series_8/causal_series_8_c.jpg"" style=""width: 300px; height: 300px;"" />
              </div>","null",""
"","","","","","html-keyboard-response","93","408627","0.0-63.0-0.0-2.0","E8E092CB5A8543C39FED48E4A17B996C","37173a5e-b6d0-4483-b7a4-7d6efdaadeda","23db58b9-63b0-4bce-8714-07ce439e665e","","null","<div style=""display: flex; justify-content: center; align-items: center;"">
                <img src=""images/causal/causal_series_8/causal_series_8_d.jpg"" style=""width: 300px; height: 300px;"" />
              </div>","null",""
"","","","","","html-keyboard-response","94","411629","0.0-64.0","E8E092CB5A8543C39FED48E4A17B996C","37173a5e-b6d0-4483-b7a4-7d6efdaadeda","23db58b9-63b0-4bce-8714-07ce439e665e","","null","<div style=""display: flex; justify-content: center; align-items: center;"">
                <img src=""images/other/blank.jpg"" style=""width: 300px; height: 300px;"" />
              </div>","null",""
"","","","","","html-keyboard-response","95","414630","0.0-65.0","E8E092CB5A8543C39FED48E4A17B996C","37173a5e-b6d0-4483-b7a4-7d6efdaadeda","23db58b9-63b0-4bce-8714-07ce439e665e","","null","<div style=""display: flex; justify-content: center; align-items: center;"">
                <img src=""images/causal/causal_series_2/causal_series_2_a.jpg"" style=""width: 300px; height: 300px;"" />
              </div>","null",""
"","","","","","html-button-response","96","417905","0.0-66.0","E8E092CB5A8543C39FED48E4A17B996C","37173a5e-b6d0-4483-b7a4-7d6efdaadeda","23db58b9-63b0-4bce-8714-07ce439e665e","","3274","
    <div style=""display: flex; justify-content: center; align-items: center;"">
      <img src=""images/red_deck_2.png"" style=""width: 300px; height: 300px; margin-right: 10px;"" />
      <img src=""images/blue_deck_1.png"" style=""width: 300px; height: 300px;"" />
    </div>","1","1"
"","","","","","html-keyboard-response","97","420907","0.0-67.0-1.0-0.0","E8E092CB5A8543C39FED48E4A17B996C","37173a5e-b6d0-4483-b7a4-7d6efdaadeda","23db58b9-63b0-4bce-8714-07ce439e665e","","null","<div style=""display: flex; justify-content: center; align-items: center;"">
                <img src=""images/semantic/semantic_series_3/semantic_series_3_d.jpg"" style=""width: 300px; height: 300px;"" />
              </div>","null",""
"","","","","","html-keyboard-response","98","423908","0.0-67.0-1.0-1.0","E8E092CB5A8543C39FED48E4A17B996C","37173a5e-b6d0-4483-b7a4-7d6efdaadeda","23db58b9-63b0-4bce-8714-07ce439e665e","","null","<div style=""display: flex; justify-content: center; align-items: center;"">
                <img src=""images/semantic/semantic_series_4/semantic_series_4_d.jpg"" style=""width: 300px; height: 300px;"" />
              </div>","null",""
"","","","","","html-keyboard-response","99","426910","0.0-67.0-1.0-2.0","E8E092CB5A8543C39FED48E4A17B996C","37173a5e-b6d0-4483-b7a4-7d6efdaadeda","23db58b9-63b0-4bce-8714-07ce439e665e","","null","<div style=""display: flex; justify-content: center; align-items: center;"">
                <img src=""images/semantic/semantic_series_5/semantic_series_5_d.jpg"" style=""width: 300px; height: 300px;"" />
              </div>","null",""
"","","","","","html-keyboard-response","100","429913","0.0-68.0","E8E092CB5A8543C39FED48E4A17B996C","37173a5e-b6d0-4483-b7a4-7d6efdaadeda","23db58b9-63b0-4bce-8714-07ce439e665e","","null","<div style=""display: flex; justify-content: center; align-items: center;"">
                <img src=""images/other/blank.jpg"" style=""width: 300px; height: 300px;"" />
              </div>","null",""
"","","","","","html-keyboard-response","101","432914","0.0-69.0","E8E092CB5A8543C39FED48E4A17B996C","37173a5e-b6d0-4483-b7a4-7d6efdaadeda","23db58b9-63b0-4bce-8714-07ce439e665e","","null","<div style=""display: flex; justify-content: center; align-items: center;"">
                <img src=""images/causal/causal_series_13/causal_series_13_a.jpg"" style=""width: 300px; height: 300px;"" />
              </div>","null",""
"","","","","","html-button-response","102","435028","0.0-70.0","E8E092CB5A8543C39FED48E4A17B996C","37173a5e-b6d0-4483-b7a4-7d6efdaadeda","23db58b9-63b0-4bce-8714-07ce439e665e","","2112","
    <div style=""display: flex; justify-content: center; align-items: center;"">
      <img src=""images/red_deck_2.png"" style=""width: 300px; height: 300px; margin-right: 10px;"" />
      <img src=""images/blue_deck_1.png"" style=""width: 300px; height: 300px;"" />
    </div>","0","0"
"","","","","","html-keyboard-response","103","438031","0.0-71.0-0.0-0.0","E8E092CB5A8543C39FED48E4A17B996C","37173a5e-b6d0-4483-b7a4-7d6efdaadeda","23db58b9-63b0-4bce-8714-07ce439e665e","","null","<div style=""display: flex; justify-content: center; align-items: center;"">
                <img src=""images/causal/causal_series_13/causal_series_13_b.jpg"" style=""width: 300px; height: 300px;"" />
              </div>","null",""
"","","","","","html-keyboard-response","104","441033","0.0-71.0-0.0-1.0","E8E092CB5A8543C39FED48E4A17B996C","37173a5e-b6d0-4483-b7a4-7d6efdaadeda","23db58b9-63b0-4bce-8714-07ce439e665e","","null","<div style=""display: flex; justify-content: center; align-items: center;"">
                <img src=""images/causal/causal_series_13/causal_series_13_c.jpg"" style=""width: 300px; height: 300px;"" />
              </div>","null",""
"","","","","","html-keyboard-response","105","444035","0.0-71.0-0.0-2.0","E8E092CB5A8543C39FED48E4A17B996C","37173a5e-b6d0-4483-b7a4-7d6efdaadeda","23db58b9-63b0-4bce-8714-07ce439e665e","","null","<div style=""display: flex; justify-content: center; align-items: center;"">
                <img src=""images/causal/causal_series_13/causal_series_13_d.jpg"" style=""width: 300px; height: 300px;"" />
              </div>","null",""
"","","","","","html-keyboard-response","106","447036","0.0-72.0","E8E092CB5A8543C39FED48E4A17B996C","37173a5e-b6d0-4483-b7a4-7d6efdaadeda","23db58b9-63b0-4bce-8714-07ce439e665e","","null","<div style=""display: flex; justify-content: center; align-items: center;"">
                <img src=""images/other/blank.jpg"" style=""width: 300px; height: 300px;"" />
              </div>","null",""
"","","","","","html-keyboard-response","107","450038","0.0-73.0","E8E092CB5A8543C39FED48E4A17B996C","37173a5e-b6d0-4483-b7a4-7d6efdaadeda","23db58b9-63b0-4bce-8714-07ce439e665e","","null","<div style=""display: flex; justify-content: center; align-items: center;"">
                <img src=""images/causal/causal_series_5/causal_series_5_a.jpg"" style=""width: 300px; height: 300px;"" />
              </div>","null",""
"","","","","","html-button-response","108","451783","0.0-74.0","E8E092CB5A8543C39FED48E4A17B996C","37173a5e-b6d0-4483-b7a4-7d6efdaadeda","23db58b9-63b0-4bce-8714-07ce439e665e","","1744","
    <div style=""display: flex; justify-content: center; align-items: center;"">
      <img src=""images/red_deck_2.png"" style=""width: 300px; height: 300px; margin-right: 10px;"" />
      <img src=""images/blue_deck_1.png"" style=""width: 300px; height: 300px;"" />
    </div>","0","0"
"","","","","","html-keyboard-response","109","454785","0.0-75.0-0.0-0.0","E8E092CB5A8543C39FED48E4A17B996C","37173a5e-b6d0-4483-b7a4-7d6efdaadeda","23db58b9-63b0-4bce-8714-07ce439e665e","","null","<div style=""display: flex; justify-content: center; align-items: center;"">
                <img src=""images/causal/causal_series_5/causal_series_5_b.jpg"" style=""width: 300px; height: 300px;"" />
              </div>","null",""
"","","","","","html-keyboard-response","110","457787","0.0-75.0-0.0-1.0","E8E092CB5A8543C39FED48E4A17B996C","37173a5e-b6d0-4483-b7a4-7d6efdaadeda","23db58b9-63b0-4bce-8714-07ce439e665e","","null","<div style=""display: flex; justify-content: center; align-items: center;"">
                <img src=""images/causal/causal_series_5/causal_series_5_c.jpg"" style=""width: 300px; height: 300px;"" />
              </div>","null",""
"","","","","","html-keyboard-response","111","460789","0.0-75.0-0.0-2.0","E8E092CB5A8543C39FED48E4A17B996C","37173a5e-b6d0-4483-b7a4-7d6efdaadeda","23db58b9-63b0-4bce-8714-07ce439e665e","","null","<div style=""display: flex; justify-content: center; align-items: center;"">
                <img src=""images/causal/causal_series_5/causal_series_5_d.jpg"" style=""width: 300px; height: 300px;"" />
              </div>","null",""
"","","","","","html-keyboard-response","112","463791","0.0-76.0","E8E092CB5A8543C39FED48E4A17B996C","37173a5e-b6d0-4483-b7a4-7d6efdaadeda","23db58b9-63b0-4bce-8714-07ce439e665e","","null","<div style=""display: flex; justify-content: center; align-items: center;"">
                <img src=""images/other/blank.jpg"" style=""width: 300px; height: 300px;"" />
              </div>","null",""
"","","","","","survey-text","113","478625","0.0-77.0","E8E092CB5A8543C39FED48E4A17B996C","37173a5e-b6d0-4483-b7a4-7d6efdaadeda","23db58b9-63b0-4bce-8714-07ce439e665e","","14831","","{""Q0"":""One is red and one is blue""}",""
"","","","","","survey-text","114","484546","0.0-78.0","E8E092CB5A8543C39FED48E4A17B996C","37173a5e-b6d0-4483-b7a4-7d6efdaadeda","23db58b9-63b0-4bce-8714-07ce439e665e","","5920","","{""Q0"":""red deck""}",""
"","","","","","html-button-response","115","496478","0.0-79.0","E8E092CB5A8543C39FED48E4A17B996C","37173a5e-b6d0-4483-b7a4-7d6efdaadeda","23db58b9-63b0-4bce-8714-07ce439e665e","","11932","Which color deck does the fourth image continue the story from the series?","1",""
"","","","","","html-button-response","116","501740","0.0-80.0","E8E092CB5A8543C39FED48E4A17B996C","37173a5e-b6d0-4483-b7a4-7d6efdaadeda","23db58b9-63b0-4bce-8714-07ce439e665e","","5261","Which color deck does the fourth image not follow the story from the series?","0",""
"","","","","","survey-text","117","510575","0.0-81.0","E8E092CB5A8543C39FED48E4A17B996C","37173a5e-b6d0-4483-b7a4-7d6efdaadeda","23db58b9-63b0-4bce-8714-07ce439e665e","","8833","","{""Q0"":""FEMALE"",""Q1"":""33""}",""
"","","","","","instructions","118","516582","0.0-82.0","E8E092CB5A8543C39FED48E4A17B996C","37173a5e-b6d0-4483-b7a4-7d6efdaadeda","23db58b9-63b0-4bce-8714-07ce439e665e","[{""page_index"":0,""viewing_time"":6006}]","6007","","",""
