"success","timeout","failed_images","failed_audio","failed_video","trial_type","trial_index","time_elapsed","internal_node_id","subject_id","study_id","session_id","view_history","rt","stimulus","response","choice"
"true","false","[]","[]","[]","preload","0","409","0.0-0.0","E65B42C4823145A08C693001C69CB03C","0199caa0-0202-7229-99ae-76265eba03d7","0199ca9a-24f6-7920-8e89-34de50b14c43","","","","",""
"","","","","","instructions","1","1873","0.0-1.0","E65B42C4823145A08C693001C69CB03C","0199caa0-0202-7229-99ae-76265eba03d7","0199ca9a-24f6-7920-8e89-34de50b14c43","[{""page_index"":0,""viewing_time"":1463}]","1463","","",""
"","","","","","instructions","2","5015","0.0-2.0","E65B42C4823145A08C693001C69CB03C","0199caa0-0202-7229-99ae-76265eba03d7","0199ca9a-24f6-7920-8e89-34de50b14c43","[{""page_index"":0,""viewing_time"":3142}]","3142","","",""
"true","","","","","fullscreen","3","7706","0.0-3.0","E65B42C4823145A08C693001C69CB03C","0199caa0-0202-7229-99ae-76265eba03d7","0199ca9a-24f6-7920-8e89-34de50b14c43","","1686","","",""
"","","","","","instructions","4","22512","0.0-4.0","E65B42C4823145A08C693001C69CB03C","0199caa0-0202-7229-99ae-76265eba03d7","0199ca9a-24f6-7920-8e89-34de50b14c43","[{""page_index"":0,""viewing_time"":14806}]","14806","","",""
"","","","","","html-keyboard-response","5","29527","0.0-5.0","E65B42C4823145A08C693001C69CB03C","0199caa0-0202-7229-99ae-76265eba03d7","0199ca9a-24f6-7920-8e89-34de50b14c43","","null","<div style=""display: flex; justify-content: center; align-items: center;"">
                     <img src=""images/causal/causal_series_10/causal_series_10_a.png"" style=""width: 300px; height: 300px;"" />
                   </div>","null",""
"","","","","","html-keyboard-response","6","36529","0.0-6.0","E65B42C4823145A08C693001C69CB03C","0199caa0-0202-7229-99ae-76265eba03d7","0199ca9a-24f6-7920-8e89-34de50b14c43","","null","<div style=""display: flex; justify-content: center; align-items: center;"">
                     <img src=""images/causal/causal_series_10/causal_series_10_b.png"" style=""width: 300px; height: 300px;"" />
                   </div>","null",""
"","","","","","html-keyboard-response","7","43542","0.0-7.0","E65B42C4823145A08C693001C69CB03C","0199caa0-0202-7229-99ae-76265eba03d7","0199ca9a-24f6-7920-8e89-34de50b14c43","","null","<div style=""display: flex; justify-content: center; align-items: center;"">
                     <img src=""images/causal/causal_series_10/causal_series_10_c.png"" style=""width: 300px; height: 300px;"" />
                   </div>","null",""
"","","","","","html-button-response","8","47083","0.0-8.0","E65B42C4823145A08C693001C69CB03C","0199caa0-0202-7229-99ae-76265eba03d7","0199ca9a-24f6-7920-8e89-34de50b14c43","","3541","
        <div style=""display: flex; justify-content: center; align-items: center;"">
          <img src=""images/red_deck_2.png"" style=""width: 300px; height: 300px; margin-right: 10px;"" />
          <img src=""images/blue_deck_1.png"" style=""width: 300px; height: 300px;"" />
        </div>","0","0"
"","","","","","html-keyboard-response","9","54099","0.0-9.0-0.0-0.0","E65B42C4823145A08C693001C69CB03C","0199caa0-0202-7229-99ae-76265eba03d7","0199ca9a-24f6-7920-8e89-34de50b14c43","","null","<div style=""display: flex; justify-content: center; align-items: center;"">
                     <img src=""images/causal/causal_series_10/causal_series_10_d.png"" style=""width: 300px; height: 300px;"" />
                   </div>","null",""
"","","","","","html-keyboard-response","10","61112","0.0-10.0","E65B42C4823145A08C693001C69CB03C","0199caa0-0202-7229-99ae-76265eba03d7","0199ca9a-24f6-7920-8e89-34de50b14c43","","null","<div style=""display: flex; justify-content: center; align-items: center;"">
                     <img src=""images/other/blank.png"" style=""width: 300px; height: 300px;"" />
                   </div>","null",""
"","","","","","html-keyboard-response","11","68122","0.0-11.0","E65B42C4823145A08C693001C69CB03C","0199caa0-0202-7229-99ae-76265eba03d7","0199ca9a-24f6-7920-8e89-34de50b14c43","","null","<div style=""display: flex; justify-content: center; align-items: center;"">
                     <img src=""images/causal/causal_series_8/causal_series_8_a.png"" style=""width: 300px; height: 300px;"" />
                   </div>","null",""
"","","","","","html-keyboard-response","12","75126","0.0-12.0","E65B42C4823145A08C693001C69CB03C","0199caa0-0202-7229-99ae-76265eba03d7","0199ca9a-24f6-7920-8e89-34de50b14c43","","null","<div style=""display: flex; justify-content: center; align-items: center;"">
                     <img src=""images/causal/causal_series_8/causal_series_8_b.png"" style=""width: 300px; height: 300px;"" />
                   </div>","null",""
"","","","","","html-keyboard-response","13","82130","0.0-13.0","E65B42C4823145A08C693001C69CB03C","0199caa0-0202-7229-99ae-76265eba03d7","0199ca9a-24f6-7920-8e89-34de50b14c43","","null","<div style=""display: flex; justify-content: center; align-items: center;"">
                     <img src=""images/causal/causal_series_8/causal_series_8_c.png"" style=""width: 300px; height: 300px;"" />
                   </div>","null",""
"","","","","","html-button-response","14","84440","0.0-14.0","E65B42C4823145A08C693001C69CB03C","0199caa0-0202-7229-99ae-76265eba03d7","0199ca9a-24f6-7920-8e89-34de50b14c43","","2310","
        <div style=""display: flex; justify-content: center; align-items: center;"">
          <img src=""images/red_deck_2.png"" style=""width: 300px; height: 300px; margin-right: 10px;"" />
          <img src=""images/blue_deck_1.png"" style=""width: 300px; height: 300px;"" />
        </div>","1","1"
"","","","","","html-keyboard-response","15","91447","0.0-15.0-1.0-0.0","E65B42C4823145A08C693001C69CB03C","0199caa0-0202-7229-99ae-76265eba03d7","0199ca9a-24f6-7920-8e89-34de50b14c43","","null","<div style=""display: flex; justify-content: center; align-items: center;"">
                     <img src=""images/semantic/semantic_series_8/semantic_series_8_d.png"" style=""width: 300px; height: 300px;"" />
                   </div>","null",""
"","","","","","html-keyboard-response","16","98455","0.0-16.0","E65B42C4823145A08C693001C69CB03C","0199caa0-0202-7229-99ae-76265eba03d7","0199ca9a-24f6-7920-8e89-34de50b14c43","","null","<div style=""display: flex; justify-content: center; align-items: center;"">
                     <img src=""images/other/blank.png"" style=""width: 300px; height: 300px;"" />
                   </div>","null",""
"","","","","","html-keyboard-response","17","105469","0.0-17.0","E65B42C4823145A08C693001C69CB03C","0199caa0-0202-7229-99ae-76265eba03d7","0199ca9a-24f6-7920-8e89-34de50b14c43","","null","<div style=""display: flex; justify-content: center; align-items: center;"">
                     <img src=""images/causal/causal_series_2/causal_series_2_a.png"" style=""width: 300px; height: 300px;"" />
                   </div>","null",""
"","","","","","html-keyboard-response","18","112482","0.0-18.0","E65B42C4823145A08C693001C69CB03C","0199caa0-0202-7229-99ae-76265eba03d7","0199ca9a-24f6-7920-8e89-34de50b14c43","","null","<div style=""display: flex; justify-content: center; align-items: center;"">
                     <img src=""images/causal/causal_series_2/causal_series_2_b.png"" style=""width: 300px; height: 300px;"" />
                   </div>","null",""
"","","","","","html-keyboard-response","19","119490","0.0-19.0","E65B42C4823145A08C693001C69CB03C","0199caa0-0202-7229-99ae-76265eba03d7","0199ca9a-24f6-7920-8e89-34de50b14c43","","null","<div style=""display: flex; justify-content: center; align-items: center;"">
                     <img src=""images/causal/causal_series_2/causal_series_2_c.png"" style=""width: 300px; height: 300px;"" />
                   </div>","null",""
"","","","","","html-button-response","20","121874","0.0-20.0","E65B42C4823145A08C693001C69CB03C","0199caa0-0202-7229-99ae-76265eba03d7","0199ca9a-24f6-7920-8e89-34de50b14c43","","2383","
        <div style=""display: flex; justify-content: center; align-items: center;"">
          <img src=""images/red_deck_2.png"" style=""width: 300px; height: 300px; margin-right: 10px;"" />
          <img src=""images/blue_deck_1.png"" style=""width: 300px; height: 300px;"" />
        </div>","0","0"
"","","","","","html-keyboard-response","21","128879","0.0-21.0-0.0-0.0","E65B42C4823145A08C693001C69CB03C","0199caa0-0202-7229-99ae-76265eba03d7","0199ca9a-24f6-7920-8e89-34de50b14c43","","null","<div style=""display: flex; justify-content: center; align-items: center;"">
                     <img src=""images/causal/causal_series_2/causal_series_2_d.png"" style=""width: 300px; height: 300px;"" />
                   </div>","null",""
"","","","","","html-keyboard-response","22","135885","0.0-22.0","E65B42C4823145A08C693001C69CB03C","0199caa0-0202-7229-99ae-76265eba03d7","0199ca9a-24f6-7920-8e89-34de50b14c43","","null","<div style=""display: flex; justify-content: center; align-items: center;"">
                     <img src=""images/other/blank.png"" style=""width: 300px; height: 300px;"" />
                   </div>","null",""
"","","","","","html-keyboard-response","23","142887","0.0-23.0","E65B42C4823145A08C693001C69CB03C","0199caa0-0202-7229-99ae-76265eba03d7","0199ca9a-24f6-7920-8e89-34de50b14c43","","null","<div style=""display: flex; justify-content: center; align-items: center;"">
                     <img src=""images/causal/causal_series_3/causal_series_3_a.png"" style=""width: 300px; height: 300px;"" />
                   </div>","null",""
"","","","","","html-keyboard-response","24","149887","0.0-24.0","E65B42C4823145A08C693001C69CB03C","0199caa0-0202-7229-99ae-76265eba03d7","0199ca9a-24f6-7920-8e89-34de50b14c43","","null","<div style=""display: flex; justify-content: center; align-items: center;"">
                     <img src=""images/causal/causal_series_3/causal_series_3_b.png"" style=""width: 300px; height: 300px;"" />
                   </div>","null",""
"","","","","","html-keyboard-response","25","156890","0.0-25.0","E65B42C4823145A08C693001C69CB03C","0199caa0-0202-7229-99ae-76265eba03d7","0199ca9a-24f6-7920-8e89-34de50b14c43","","null","<div style=""display: flex; justify-content: center; align-items: center;"">
                     <img src=""images/causal/causal_series_3/causal_series_3_c.png"" style=""width: 300px; height: 300px;"" />
                   </div>","null",""
"","","","","","html-button-response","26","158677","0.0-26.0","E65B42C4823145A08C693001C69CB03C","0199caa0-0202-7229-99ae-76265eba03d7","0199ca9a-24f6-7920-8e89-34de50b14c43","","1786","
        <div style=""display: flex; justify-content: center; align-items: center;"">
          <img src=""images/red_deck_2.png"" style=""width: 300px; height: 300px; margin-right: 10px;"" />
          <img src=""images/blue_deck_1.png"" style=""width: 300px; height: 300px;"" />
        </div>","0","0"
"","","","","","html-keyboard-response","27","165688","0.0-27.0-0.0-0.0","E65B42C4823145A08C693001C69CB03C","0199caa0-0202-7229-99ae-76265eba03d7","0199ca9a-24f6-7920-8e89-34de50b14c43","","null","<div style=""display: flex; justify-content: center; align-items: center;"">
                     <img src=""images/causal/causal_series_3/causal_series_3_d.png"" style=""width: 300px; height: 300px;"" />
                   </div>","null",""
"","","","","","html-keyboard-response","28","172701","0.0-28.0","E65B42C4823145A08C693001C69CB03C","0199caa0-0202-7229-99ae-76265eba03d7","0199ca9a-24f6-7920-8e89-34de50b14c43","","null","<div style=""display: flex; justify-content: center; align-items: center;"">
                     <img src=""images/other/blank.png"" style=""width: 300px; height: 300px;"" />
                   </div>","null",""
"","","","","","html-keyboard-response","29","179707","0.0-29.0","E65B42C4823145A08C693001C69CB03C","0199caa0-0202-7229-99ae-76265eba03d7","0199ca9a-24f6-7920-8e89-34de50b14c43","","null","<div style=""display: flex; justify-content: center; align-items: center;"">
                     <img src=""images/causal/causal_series_6/causal_series_6_a.png"" style=""width: 300px; height: 300px;"" />
                   </div>","null",""
"","","","","","html-keyboard-response","30","186708","0.0-30.0","E65B42C4823145A08C693001C69CB03C","0199caa0-0202-7229-99ae-76265eba03d7","0199ca9a-24f6-7920-8e89-34de50b14c43","","null","<div style=""display: flex; justify-content: center; align-items: center;"">
                     <img src=""images/causal/causal_series_6/causal_series_6_b.png"" style=""width: 300px; height: 300px;"" />
                   </div>","null",""
"","","","","","html-keyboard-response","31","193724","0.0-31.0","E65B42C4823145A08C693001C69CB03C","0199caa0-0202-7229-99ae-76265eba03d7","0199ca9a-24f6-7920-8e89-34de50b14c43","","null","<div style=""display: flex; justify-content: center; align-items: center;"">
                     <img src=""images/causal/causal_series_6/causal_series_6_c.png"" style=""width: 300px; height: 300px;"" />
                   </div>","null",""
"","","","","","html-button-response","32","198466","0.0-32.0","E65B42C4823145A08C693001C69CB03C","0199caa0-0202-7229-99ae-76265eba03d7","0199ca9a-24f6-7920-8e89-34de50b14c43","","4742","
        <div style=""display: flex; justify-content: center; align-items: center;"">
          <img src=""images/red_deck_2.png"" style=""width: 300px; height: 300px; margin-right: 10px;"" />
          <img src=""images/blue_deck_1.png"" style=""width: 300px; height: 300px;"" />
        </div>","1","1"
"","","","","","html-keyboard-response","33","205476","0.0-33.0-1.0-0.0","E65B42C4823145A08C693001C69CB03C","0199caa0-0202-7229-99ae-76265eba03d7","0199ca9a-24f6-7920-8e89-34de50b14c43","","null","<div style=""display: flex; justify-content: center; align-items: center;"">
                     <img src=""images/semantic/semantic_series_6/semantic_series_6_d.png"" style=""width: 300px; height: 300px;"" />
                   </div>","null",""
"","","","","","html-keyboard-response","34","212491","0.0-34.0","E65B42C4823145A08C693001C69CB03C","0199caa0-0202-7229-99ae-76265eba03d7","0199ca9a-24f6-7920-8e89-34de50b14c43","","null","<div style=""display: flex; justify-content: center; align-items: center;"">
                     <img src=""images/other/blank.png"" style=""width: 300px; height: 300px;"" />
                   </div>","null",""
"","","","","","html-keyboard-response","35","219502","0.0-35.0","E65B42C4823145A08C693001C69CB03C","0199caa0-0202-7229-99ae-76265eba03d7","0199ca9a-24f6-7920-8e89-34de50b14c43","","null","<div style=""display: flex; justify-content: center; align-items: center;"">
                     <img src=""images/causal/causal_series_5/causal_series_5_a.png"" style=""width: 300px; height: 300px;"" />
                   </div>","null",""
"","","","","","html-keyboard-response","36","226516","0.0-36.0","E65B42C4823145A08C693001C69CB03C","0199caa0-0202-7229-99ae-76265eba03d7","0199ca9a-24f6-7920-8e89-34de50b14c43","","null","<div style=""display: flex; justify-content: center; align-items: center;"">
                     <img src=""images/causal/causal_series_5/causal_series_5_b.png"" style=""width: 300px; height: 300px;"" />
                   </div>","null",""
"","","","","","html-keyboard-response","37","233518","0.0-37.0","E65B42C4823145A08C693001C69CB03C","0199caa0-0202-7229-99ae-76265eba03d7","0199ca9a-24f6-7920-8e89-34de50b14c43","","null","<div style=""display: flex; justify-content: center; align-items: center;"">
                     <img src=""images/causal/causal_series_5/causal_series_5_c.png"" style=""width: 300px; height: 300px;"" />
                   </div>","null",""
"","","","","","html-button-response","38","235067","0.0-38.0","E65B42C4823145A08C693001C69CB03C","0199caa0-0202-7229-99ae-76265eba03d7","0199ca9a-24f6-7920-8e89-34de50b14c43","","1548","
        <div style=""display: flex; justify-content: center; align-items: center;"">
          <img src=""images/red_deck_2.png"" style=""width: 300px; height: 300px; margin-right: 10px;"" />
          <img src=""images/blue_deck_1.png"" style=""width: 300px; height: 300px;"" />
        </div>","1","1"
"","","","","","html-keyboard-response","39","242070","0.0-39.0-1.0-0.0","E65B42C4823145A08C693001C69CB03C","0199caa0-0202-7229-99ae-76265eba03d7","0199ca9a-24f6-7920-8e89-34de50b14c43","","null","<div style=""display: flex; justify-content: center; align-items: center;"">
                     <img src=""images/semantic/semantic_series_5/semantic_series_5_d.png"" style=""width: 300px; height: 300px;"" />
                   </div>","null",""
"","","","","","html-keyboard-response","40","249076","0.0-40.0","E65B42C4823145A08C693001C69CB03C","0199caa0-0202-7229-99ae-76265eba03d7","0199ca9a-24f6-7920-8e89-34de50b14c43","","null","<div style=""display: flex; justify-content: center; align-items: center;"">
                     <img src=""images/other/blank.png"" style=""width: 300px; height: 300px;"" />
                   </div>","null",""
"","","","","","html-keyboard-response","41","256080","0.0-41.0","E65B42C4823145A08C693001C69CB03C","0199caa0-0202-7229-99ae-76265eba03d7","0199ca9a-24f6-7920-8e89-34de50b14c43","","null","<div style=""display: flex; justify-content: center; align-items: center;"">
                     <img src=""images/causal/causal_series_4/causal_series_4_a.png"" style=""width: 300px; height: 300px;"" />
                   </div>","null",""
"","","","","","html-keyboard-response","42","263086","0.0-42.0","E65B42C4823145A08C693001C69CB03C","0199caa0-0202-7229-99ae-76265eba03d7","0199ca9a-24f6-7920-8e89-34de50b14c43","","null","<div style=""display: flex; justify-content: center; align-items: center;"">
                     <img src=""images/causal/causal_series_4/causal_series_4_b.png"" style=""width: 300px; height: 300px;"" />
                   </div>","null",""
"","","","","","html-keyboard-response","43","270102","0.0-43.0","E65B42C4823145A08C693001C69CB03C","0199caa0-0202-7229-99ae-76265eba03d7","0199ca9a-24f6-7920-8e89-34de50b14c43","","null","<div style=""display: flex; justify-content: center; align-items: center;"">
                     <img src=""images/causal/causal_series_4/causal_series_4_c.png"" style=""width: 300px; height: 300px;"" />
                   </div>","null",""
"","","","","","html-button-response","44","273018","0.0-44.0","E65B42C4823145A08C693001C69CB03C","0199caa0-0202-7229-99ae-76265eba03d7","0199ca9a-24f6-7920-8e89-34de50b14c43","","2915","
        <div style=""display: flex; justify-content: center; align-items: center;"">
          <img src=""images/red_deck_2.png"" style=""width: 300px; height: 300px; margin-right: 10px;"" />
          <img src=""images/blue_deck_1.png"" style=""width: 300px; height: 300px;"" />
        </div>","0","0"
"","","","","","html-keyboard-response","45","280027","0.0-45.0-0.0-0.0","E65B42C4823145A08C693001C69CB03C","0199caa0-0202-7229-99ae-76265eba03d7","0199ca9a-24f6-7920-8e89-34de50b14c43","","null","<div style=""display: flex; justify-content: center; align-items: center;"">
                     <img src=""images/causal/causal_series_4/causal_series_4_d.png"" style=""width: 300px; height: 300px;"" />
                   </div>","null",""
"","","","","","html-keyboard-response","46","287031","0.0-46.0","E65B42C4823145A08C693001C69CB03C","0199caa0-0202-7229-99ae-76265eba03d7","0199ca9a-24f6-7920-8e89-34de50b14c43","","null","<div style=""display: flex; justify-content: center; align-items: center;"">
                     <img src=""images/other/blank.png"" style=""width: 300px; height: 300px;"" />
                   </div>","null",""
"","","","","","html-keyboard-response","47","294040","0.0-47.0","E65B42C4823145A08C693001C69CB03C","0199caa0-0202-7229-99ae-76265eba03d7","0199ca9a-24f6-7920-8e89-34de50b14c43","","null","<div style=""display: flex; justify-content: center; align-items: center;"">
                     <img src=""images/causal/causal_series_7/causal_series_7_a.png"" style=""width: 300px; height: 300px;"" />
                   </div>","null",""
"","","","","","html-keyboard-response","48","301042","0.0-48.0","E65B42C4823145A08C693001C69CB03C","0199caa0-0202-7229-99ae-76265eba03d7","0199ca9a-24f6-7920-8e89-34de50b14c43","","null","<div style=""display: flex; justify-content: center; align-items: center;"">
                     <img src=""images/causal/causal_series_7/causal_series_7_b.png"" style=""width: 300px; height: 300px;"" />
                   </div>","null",""
"","","","","","html-keyboard-response","49","308048","0.0-49.0","E65B42C4823145A08C693001C69CB03C","0199caa0-0202-7229-99ae-76265eba03d7","0199ca9a-24f6-7920-8e89-34de50b14c43","","null","<div style=""display: flex; justify-content: center; align-items: center;"">
                     <img src=""images/causal/causal_series_7/causal_series_7_c.png"" style=""width: 300px; height: 300px;"" />
                   </div>","null",""
"","","","","","html-button-response","50","310504","0.0-50.0","E65B42C4823145A08C693001C69CB03C","0199caa0-0202-7229-99ae-76265eba03d7","0199ca9a-24f6-7920-8e89-34de50b14c43","","2455","
        <div style=""display: flex; justify-content: center; align-items: center;"">
          <img src=""images/red_deck_2.png"" style=""width: 300px; height: 300px; margin-right: 10px;"" />
          <img src=""images/blue_deck_1.png"" style=""width: 300px; height: 300px;"" />
        </div>","1","1"
"","","","","","html-keyboard-response","51","317511","0.0-51.0-1.0-0.0","E65B42C4823145A08C693001C69CB03C","0199caa0-0202-7229-99ae-76265eba03d7","0199ca9a-24f6-7920-8e89-34de50b14c43","","null","<div style=""display: flex; justify-content: center; align-items: center;"">
                     <img src=""images/semantic/semantic_series_7/semantic_series_7_d.png"" style=""width: 300px; height: 300px;"" />
                   </div>","null",""
"","","","","","html-keyboard-response","52","324511","0.0-52.0","E65B42C4823145A08C693001C69CB03C","0199caa0-0202-7229-99ae-76265eba03d7","0199ca9a-24f6-7920-8e89-34de50b14c43","","null","<div style=""display: flex; justify-content: center; align-items: center;"">
                     <img src=""images/other/blank.png"" style=""width: 300px; height: 300px;"" />
                   </div>","null",""
"","","","","","html-keyboard-response","53","331520","0.0-53.0","E65B42C4823145A08C693001C69CB03C","0199caa0-0202-7229-99ae-76265eba03d7","0199ca9a-24f6-7920-8e89-34de50b14c43","","null","<div style=""display: flex; justify-content: center; align-items: center;"">
                     <img src=""images/causal/causal_series_9/causal_series_9_a.png"" style=""width: 300px; height: 300px;"" />
                   </div>","null",""
"","","","","","html-keyboard-response","54","338534","0.0-54.0","E65B42C4823145A08C693001C69CB03C","0199caa0-0202-7229-99ae-76265eba03d7","0199ca9a-24f6-7920-8e89-34de50b14c43","","null","<div style=""display: flex; justify-content: center; align-items: center;"">
                     <img src=""images/causal/causal_series_9/causal_series_9_b.png"" style=""width: 300px; height: 300px;"" />
                   </div>","null",""
"","","","","","html-keyboard-response","55","345537","0.0-55.0","E65B42C4823145A08C693001C69CB03C","0199caa0-0202-7229-99ae-76265eba03d7","0199ca9a-24f6-7920-8e89-34de50b14c43","","null","<div style=""display: flex; justify-content: center; align-items: center;"">
                     <img src=""images/causal/causal_series_9/causal_series_9_c.png"" style=""width: 300px; height: 300px;"" />
                   </div>","null",""
"","","","","","html-button-response","56","348207","0.0-56.0","E65B42C4823145A08C693001C69CB03C","0199caa0-0202-7229-99ae-76265eba03d7","0199ca9a-24f6-7920-8e89-34de50b14c43","","2669","
        <div style=""display: flex; justify-content: center; align-items: center;"">
          <img src=""images/red_deck_2.png"" style=""width: 300px; height: 300px; margin-right: 10px;"" />
          <img src=""images/blue_deck_1.png"" style=""width: 300px; height: 300px;"" />
        </div>","0","0"
"","","","","","html-keyboard-response","57","355214","0.0-57.0-0.0-0.0","E65B42C4823145A08C693001C69CB03C","0199caa0-0202-7229-99ae-76265eba03d7","0199ca9a-24f6-7920-8e89-34de50b14c43","","null","<div style=""display: flex; justify-content: center; align-items: center;"">
                     <img src=""images/causal/causal_series_9/causal_series_9_d.png"" style=""width: 300px; height: 300px;"" />
                   </div>","null",""
"","","","","","html-keyboard-response","58","362215","0.0-58.0","E65B42C4823145A08C693001C69CB03C","0199caa0-0202-7229-99ae-76265eba03d7","0199ca9a-24f6-7920-8e89-34de50b14c43","","null","<div style=""display: flex; justify-content: center; align-items: center;"">
                     <img src=""images/other/blank.png"" style=""width: 300px; height: 300px;"" />
                   </div>","null",""
"","","","","","html-keyboard-response","59","369221","0.0-59.0","E65B42C4823145A08C693001C69CB03C","0199caa0-0202-7229-99ae-76265eba03d7","0199ca9a-24f6-7920-8e89-34de50b14c43","","null","<div style=""display: flex; justify-content: center; align-items: center;"">
                     <img src=""images/causal/causal_series_1/causal_series_1_a.png"" style=""width: 300px; height: 300px;"" />
                   </div>","null",""
"","","","","","html-keyboard-response","60","376228","0.0-60.0","E65B42C4823145A08C693001C69CB03C","0199caa0-0202-7229-99ae-76265eba03d7","0199ca9a-24f6-7920-8e89-34de50b14c43","","null","<div style=""display: flex; justify-content: center; align-items: center;"">
                     <img src=""images/causal/causal_series_1/causal_series_1_b.png"" style=""width: 300px; height: 300px;"" />
                   </div>","null",""
"","","","","","html-keyboard-response","61","383244","0.0-61.0","E65B42C4823145A08C693001C69CB03C","0199caa0-0202-7229-99ae-76265eba03d7","0199ca9a-24f6-7920-8e89-34de50b14c43","","null","<div style=""display: flex; justify-content: center; align-items: center;"">
                     <img src=""images/causal/causal_series_1/causal_series_1_c.png"" style=""width: 300px; height: 300px;"" />
                   </div>","null",""
"","","","","","html-button-response","62","386431","0.0-62.0","E65B42C4823145A08C693001C69CB03C","0199caa0-0202-7229-99ae-76265eba03d7","0199ca9a-24f6-7920-8e89-34de50b14c43","","3187","
        <div style=""display: flex; justify-content: center; align-items: center;"">
          <img src=""images/red_deck_2.png"" style=""width: 300px; height: 300px; margin-right: 10px;"" />
          <img src=""images/blue_deck_1.png"" style=""width: 300px; height: 300px;"" />
        </div>","0","0"
"","","","","","html-keyboard-response","63","393445","0.0-63.0-0.0-0.0","E65B42C4823145A08C693001C69CB03C","0199caa0-0202-7229-99ae-76265eba03d7","0199ca9a-24f6-7920-8e89-34de50b14c43","","null","<div style=""display: flex; justify-content: center; align-items: center;"">
                     <img src=""images/causal/causal_series_1/causal_series_1_d.png"" style=""width: 300px; height: 300px;"" />
                   </div>","null",""
"","","","","","html-keyboard-response","64","400453","0.0-64.0","E65B42C4823145A08C693001C69CB03C","0199caa0-0202-7229-99ae-76265eba03d7","0199ca9a-24f6-7920-8e89-34de50b14c43","","null","<div style=""display: flex; justify-content: center; align-items: center;"">
                     <img src=""images/other/blank.png"" style=""width: 300px; height: 300px;"" />
                   </div>","null",""
"","","","","","survey-text","65","423734","0.0-65.0","E65B42C4823145A08C693001C69CB03C","0199caa0-0202-7229-99ae-76265eba03d7","0199ca9a-24f6-7920-8e89-34de50b14c43","","23279","","{""Q0"":""one deck does something related but surprising the red deck does something unrelated but surprising""}",""
"","","","","","survey-text","66","430214","0.0-66.0","E65B42C4823145A08C693001C69CB03C","0199caa0-0202-7229-99ae-76265eba03d7","0199ca9a-24f6-7920-8e89-34de50b14c43","","6479","","{""Q0"":""the red deck""}",""
"","","","","","html-button-response","67","434564","0.0-67.0","E65B42C4823145A08C693001C69CB03C","0199caa0-0202-7229-99ae-76265eba03d7","0199ca9a-24f6-7920-8e89-34de50b14c43","","4350","Which color deck does the fourth image continue the story from?","0",""
"","","","","","html-button-response","68","436829","0.0-68.0","E65B42C4823145A08C693001C69CB03C","0199caa0-0202-7229-99ae-76265eba03d7","0199ca9a-24f6-7920-8e89-34de50b14c43","","2265","Which color deck does the fourth image NOT follow the story from?","1",""
"","","","","","survey-text","69","441907","0.0-69.0","E65B42C4823145A08C693001C69CB03C","0199caa0-0202-7229-99ae-76265eba03d7","0199ca9a-24f6-7920-8e89-34de50b14c43","","5076","","{""Q0"":""male"",""Q1"":""32""}",""
"","","","","","instructions","70","445296","0.0-70.0","E65B42C4823145A08C693001C69CB03C","0199caa0-0202-7229-99ae-76265eba03d7","0199ca9a-24f6-7920-8e89-34de50b14c43","[{""page_index"":0,""viewing_time"":3389}]","3389","","",""
