"success","timeout","failed_images","failed_audio","failed_video","trial_type","trial_index","time_elapsed","internal_node_id","subject_id","study_id","session_id","view_history","rt","stimulus","response","series","repetition","phase","choice","question_order"
"true","false","[]","[]","[]","preload","0","856","0.0-0.0","9CD9B3EA2DEF409E80ADEEDC53C4839A","0199d67f-ab8e-7231-af7f-216d289a26a2","0199d675-8795-765b-adc2-c813de8cd3d1","","","","","","","","",""
"","","","","","instructions","1","2065","0.0-1.0","9CD9B3EA2DEF409E80ADEEDC53C4839A","0199d67f-ab8e-7231-af7f-216d289a26a2","0199d675-8795-765b-adc2-c813de8cd3d1","[{""page_index"":0,""viewing_time"":1208}]","1209","","","","","","",""
"","","","","","instructions","2","5073","0.0-2.0","9CD9B3EA2DEF409E80ADEEDC53C4839A","0199d67f-ab8e-7231-af7f-216d289a26a2","0199d675-8795-765b-adc2-c813de8cd3d1","[{""page_index"":0,""viewing_time"":3007}]","3007","","","","","","",""
"true","","","","","fullscreen","3","7379","0.0-3.0","9CD9B3EA2DEF409E80ADEEDC53C4839A","0199d67f-ab8e-7231-af7f-216d289a26a2","0199d675-8795-765b-adc2-c813de8cd3d1","","1275","","","","","","",""
"","","","","","instructions","4","26539","0.0-4.0","9CD9B3EA2DEF409E80ADEEDC53C4839A","0199d67f-ab8e-7231-af7f-216d289a26a2","0199d675-8795-765b-adc2-c813de8cd3d1","[{""page_index"":0,""viewing_time"":19153}]","19153","","","","","","",""
"","","","","","html-keyboard-response","5","32552","0.0-5.0","9CD9B3EA2DEF409E80ADEEDC53C4839A","0199d67f-ab8e-7231-af7f-216d289a26a2","0199d675-8795-765b-adc2-c813de8cd3d1","","null","<div style=""display: flex; justify-content: center; align-items: center;"">
                     <img src=""images/causal/causal_series_1/causal_series_1_a.png"" style=""width: 300px; height: 300px;"" />
                   </div>","null","1","1","A","",""
"","","","","","html-button-response","6","34584","0.0-6.0","9CD9B3EA2DEF409E80ADEEDC53C4839A","0199d67f-ab8e-7231-af7f-216d289a26a2","0199d675-8795-765b-adc2-c813de8cd3d1","","2031","
        <div style=""display: flex; justify-content: center; align-items: center;"">
          <img src=""images/red_deck_2.png"" style=""width: 300px; height: 300px; margin-right: 10px;"" />
          <img src=""images/blue_deck_1.png"" style=""width: 300px; height: 300px;"" />
        </div>","1","1","1","choice","1",""
"","","","","","html-keyboard-response","7","40593","0.0-7.0-1.0-0.0","9CD9B3EA2DEF409E80ADEEDC53C4839A","0199d67f-ab8e-7231-af7f-216d289a26a2","0199d675-8795-765b-adc2-c813de8cd3d1","","null","<div style=""display: flex; justify-content: center; align-items: center;"">
                     <img src=""images/semantic/semantic_series_1/semantic_series_1_b.png"" style=""width: 300px; height: 300px;"" />
                   </div>","null","1","1","B","",""
"","","","","","html-keyboard-response","8","46607","0.0-7.0-1.0-1.0","9CD9B3EA2DEF409E80ADEEDC53C4839A","0199d67f-ab8e-7231-af7f-216d289a26a2","0199d675-8795-765b-adc2-c813de8cd3d1","","null","<div style=""display: flex; justify-content: center; align-items: center;"">
                     <img src=""images/semantic/semantic_series_1/semantic_series_1_c.png"" style=""width: 300px; height: 300px;"" />
                   </div>","null","1","1","C","",""
"","","","","","html-keyboard-response","9","52612","0.0-7.0-1.0-2.0","9CD9B3EA2DEF409E80ADEEDC53C4839A","0199d67f-ab8e-7231-af7f-216d289a26a2","0199d675-8795-765b-adc2-c813de8cd3d1","","null","<div style=""display: flex; justify-content: center; align-items: center;"">
                     <img src=""images/semantic/semantic_series_1/semantic_series_1_d.png"" style=""width: 300px; height: 300px;"" />
                   </div>","null","1","1","D","",""
"","","","","","survey-likert","10","56312","0.0-8.0","9CD9B3EA2DEF409E80ADEEDC53C4839A","0199d67f-ab8e-7231-af7f-216d289a26a2","0199d675-8795-765b-adc2-c813de8cd3d1","","3699","","{""Q0"":4}","1","1","surprise_rating","","[0]"
"","","","","","survey-likert","11","58187","0.0-9.0","9CD9B3EA2DEF409E80ADEEDC53C4839A","0199d67f-ab8e-7231-af7f-216d289a26a2","0199d675-8795-765b-adc2-c813de8cd3d1","","1874","","{""Q0"":3}","1","1","enjoyment_rating","","[0]"
"","","","","","html-keyboard-response","12","64198","0.0-10.0","9CD9B3EA2DEF409E80ADEEDC53C4839A","0199d67f-ab8e-7231-af7f-216d289a26a2","0199d675-8795-765b-adc2-c813de8cd3d1","","null","<div style=""display: flex; justify-content: center; align-items: center;"">
                     <img src=""images/other/blank.png"" style=""width: 300px; height: 300px;"" />
                   </div>","null","0","0","blank","",""
"","","","","","html-keyboard-response","13","70205","0.0-11.0","9CD9B3EA2DEF409E80ADEEDC53C4839A","0199d67f-ab8e-7231-af7f-216d289a26a2","0199d675-8795-765b-adc2-c813de8cd3d1","","null","<div style=""display: flex; justify-content: center; align-items: center;"">
                     <img src=""images/causal/causal_series_4/causal_series_4_a.png"" style=""width: 300px; height: 300px;"" />
                   </div>","null","4","1","A","",""
"","","","","","html-button-response","14","72516","0.0-12.0","9CD9B3EA2DEF409E80ADEEDC53C4839A","0199d67f-ab8e-7231-af7f-216d289a26a2","0199d675-8795-765b-adc2-c813de8cd3d1","","2311","
        <div style=""display: flex; justify-content: center; align-items: center;"">
          <img src=""images/red_deck_2.png"" style=""width: 300px; height: 300px; margin-right: 10px;"" />
          <img src=""images/blue_deck_1.png"" style=""width: 300px; height: 300px;"" />
        </div>","0","4","1","choice","0",""
"","","","","","html-keyboard-response","15","78518","0.0-13.0-0.0-0.0","9CD9B3EA2DEF409E80ADEEDC53C4839A","0199d67f-ab8e-7231-af7f-216d289a26a2","0199d675-8795-765b-adc2-c813de8cd3d1","","null","<div style=""display: flex; justify-content: center; align-items: center;"">
                     <img src=""images/causal/causal_series_4/causal_series_4_b.png"" style=""width: 300px; height: 300px;"" />
                   </div>","null","4","1","B","",""
"","","","","","html-keyboard-response","16","84526","0.0-13.0-0.0-1.0","9CD9B3EA2DEF409E80ADEEDC53C4839A","0199d67f-ab8e-7231-af7f-216d289a26a2","0199d675-8795-765b-adc2-c813de8cd3d1","","null","<div style=""display: flex; justify-content: center; align-items: center;"">
                     <img src=""images/causal/causal_series_4/causal_series_4_c.png"" style=""width: 300px; height: 300px;"" />
                   </div>","null","4","1","C","",""
"","","","","","html-keyboard-response","17","90530","0.0-13.0-0.0-2.0","9CD9B3EA2DEF409E80ADEEDC53C4839A","0199d67f-ab8e-7231-af7f-216d289a26a2","0199d675-8795-765b-adc2-c813de8cd3d1","","null","<div style=""display: flex; justify-content: center; align-items: center;"">
                     <img src=""images/causal/causal_series_4/causal_series_4_d.png"" style=""width: 300px; height: 300px;"" />
                   </div>","null","4","1","D","",""
"","","","","","survey-likert","18","95562","0.0-14.0","9CD9B3EA2DEF409E80ADEEDC53C4839A","0199d67f-ab8e-7231-af7f-216d289a26a2","0199d675-8795-765b-adc2-c813de8cd3d1","","5031","","{""Q0"":4}","4","1","surprise_rating","","[0]"
"","","","","","survey-likert","19","97386","0.0-15.0","9CD9B3EA2DEF409E80ADEEDC53C4839A","0199d67f-ab8e-7231-af7f-216d289a26a2","0199d675-8795-765b-adc2-c813de8cd3d1","","1823","","{""Q0"":3}","4","1","enjoyment_rating","","[0]"
"","","","","","html-keyboard-response","20","103400","0.0-16.0","9CD9B3EA2DEF409E80ADEEDC53C4839A","0199d67f-ab8e-7231-af7f-216d289a26a2","0199d675-8795-765b-adc2-c813de8cd3d1","","null","<div style=""display: flex; justify-content: center; align-items: center;"">
                     <img src=""images/other/blank.png"" style=""width: 300px; height: 300px;"" />
                   </div>","null","0","0","blank","",""
"","","","","","html-keyboard-response","21","109401","0.0-17.0","9CD9B3EA2DEF409E80ADEEDC53C4839A","0199d67f-ab8e-7231-af7f-216d289a26a2","0199d675-8795-765b-adc2-c813de8cd3d1","","null","<div style=""display: flex; justify-content: center; align-items: center;"">
                     <img src=""images/causal/causal_series_6/causal_series_6_a.png"" style=""width: 300px; height: 300px;"" />
                   </div>","null","6","2","A","",""
"","","","","","html-button-response","22","111637","0.0-18.0","9CD9B3EA2DEF409E80ADEEDC53C4839A","0199d67f-ab8e-7231-af7f-216d289a26a2","0199d675-8795-765b-adc2-c813de8cd3d1","","2236","
        <div style=""display: flex; justify-content: center; align-items: center;"">
          <img src=""images/red_deck_2.png"" style=""width: 300px; height: 300px; margin-right: 10px;"" />
          <img src=""images/blue_deck_1.png"" style=""width: 300px; height: 300px;"" />
        </div>","0","6","2","choice","0",""
"","","","","","html-keyboard-response","23","117650","0.0-19.0-0.0-0.0","9CD9B3EA2DEF409E80ADEEDC53C4839A","0199d67f-ab8e-7231-af7f-216d289a26a2","0199d675-8795-765b-adc2-c813de8cd3d1","","null","<div style=""display: flex; justify-content: center; align-items: center;"">
                     <img src=""images/causal/causal_series_6/causal_series_6_b.png"" style=""width: 300px; height: 300px;"" />
                   </div>","null","6","2","B","",""
"","","","","","html-keyboard-response","24","123664","0.0-19.0-0.0-1.0","9CD9B3EA2DEF409E80ADEEDC53C4839A","0199d67f-ab8e-7231-af7f-216d289a26a2","0199d675-8795-765b-adc2-c813de8cd3d1","","null","<div style=""display: flex; justify-content: center; align-items: center;"">
                     <img src=""images/causal/causal_series_6/causal_series_6_c.png"" style=""width: 300px; height: 300px;"" />
                   </div>","null","6","2","C","",""
"","","","","","html-keyboard-response","25","129678","0.0-19.0-0.0-2.0","9CD9B3EA2DEF409E80ADEEDC53C4839A","0199d67f-ab8e-7231-af7f-216d289a26a2","0199d675-8795-765b-adc2-c813de8cd3d1","","null","<div style=""display: flex; justify-content: center; align-items: center;"">
                     <img src=""images/causal/causal_series_6/causal_series_6_d.png"" style=""width: 300px; height: 300px;"" />
                   </div>","null","6","2","D","",""
"","","","","","survey-likert","26","133459","0.0-20.0","9CD9B3EA2DEF409E80ADEEDC53C4839A","0199d67f-ab8e-7231-af7f-216d289a26a2","0199d675-8795-765b-adc2-c813de8cd3d1","","3780","","{""Q0"":4}","6","2","surprise_rating","","[0]"
"","","","","","survey-likert","27","134973","0.0-21.0","9CD9B3EA2DEF409E80ADEEDC53C4839A","0199d67f-ab8e-7231-af7f-216d289a26a2","0199d675-8795-765b-adc2-c813de8cd3d1","","1513","","{""Q0"":3}","6","2","enjoyment_rating","","[0]"
"","","","","","html-keyboard-response","28","140987","0.0-22.0","9CD9B3EA2DEF409E80ADEEDC53C4839A","0199d67f-ab8e-7231-af7f-216d289a26a2","0199d675-8795-765b-adc2-c813de8cd3d1","","null","<div style=""display: flex; justify-content: center; align-items: center;"">
                     <img src=""images/other/blank.png"" style=""width: 300px; height: 300px;"" />
                   </div>","null","0","0","blank","",""
"","","","","","html-keyboard-response","29","146995","0.0-23.0","9CD9B3EA2DEF409E80ADEEDC53C4839A","0199d67f-ab8e-7231-af7f-216d289a26a2","0199d675-8795-765b-adc2-c813de8cd3d1","","null","<div style=""display: flex; justify-content: center; align-items: center;"">
                     <img src=""images/causal/causal_series_9/causal_series_9_a.png"" style=""width: 300px; height: 300px;"" />
                   </div>","null","9","1","A","",""
"","","","","","html-button-response","30","149720","0.0-24.0","9CD9B3EA2DEF409E80ADEEDC53C4839A","0199d67f-ab8e-7231-af7f-216d289a26a2","0199d675-8795-765b-adc2-c813de8cd3d1","","2724","
        <div style=""display: flex; justify-content: center; align-items: center;"">
          <img src=""images/red_deck_2.png"" style=""width: 300px; height: 300px; margin-right: 10px;"" />
          <img src=""images/blue_deck_1.png"" style=""width: 300px; height: 300px;"" />
        </div>","0","9","1","choice","0",""
"","","","","","html-keyboard-response","31","155728","0.0-25.0-0.0-0.0","9CD9B3EA2DEF409E80ADEEDC53C4839A","0199d67f-ab8e-7231-af7f-216d289a26a2","0199d675-8795-765b-adc2-c813de8cd3d1","","null","<div style=""display: flex; justify-content: center; align-items: center;"">
                     <img src=""images/causal/causal_series_9/causal_series_9_b.png"" style=""width: 300px; height: 300px;"" />
                   </div>","null","9","1","B","",""
"","","","","","html-keyboard-response","32","161736","0.0-25.0-0.0-1.0","9CD9B3EA2DEF409E80ADEEDC53C4839A","0199d67f-ab8e-7231-af7f-216d289a26a2","0199d675-8795-765b-adc2-c813de8cd3d1","","null","<div style=""display: flex; justify-content: center; align-items: center;"">
                     <img src=""images/causal/causal_series_9/causal_series_9_c.png"" style=""width: 300px; height: 300px;"" />
                   </div>","null","9","1","C","",""
"","","","","","html-keyboard-response","33","167743","0.0-25.0-0.0-2.0","9CD9B3EA2DEF409E80ADEEDC53C4839A","0199d67f-ab8e-7231-af7f-216d289a26a2","0199d675-8795-765b-adc2-c813de8cd3d1","","null","<div style=""display: flex; justify-content: center; align-items: center;"">
                     <img src=""images/causal/causal_series_9/causal_series_9_d.png"" style=""width: 300px; height: 300px;"" />
                   </div>","null","9","1","D","",""
"","","","","","survey-likert","34","171589","0.0-26.0","9CD9B3EA2DEF409E80ADEEDC53C4839A","0199d67f-ab8e-7231-af7f-216d289a26a2","0199d675-8795-765b-adc2-c813de8cd3d1","","3845","","{""Q0"":3}","9","1","surprise_rating","","[0]"
"","","","","","survey-likert","35","173721","0.0-27.0","9CD9B3EA2DEF409E80ADEEDC53C4839A","0199d67f-ab8e-7231-af7f-216d289a26a2","0199d675-8795-765b-adc2-c813de8cd3d1","","2131","","{""Q0"":4}","9","1","enjoyment_rating","","[0]"
"","","","","","html-keyboard-response","36","179728","0.0-28.0","9CD9B3EA2DEF409E80ADEEDC53C4839A","0199d67f-ab8e-7231-af7f-216d289a26a2","0199d675-8795-765b-adc2-c813de8cd3d1","","null","<div style=""display: flex; justify-content: center; align-items: center;"">
                     <img src=""images/other/blank.png"" style=""width: 300px; height: 300px;"" />
                   </div>","null","0","0","blank","",""
"","","","","","html-keyboard-response","37","185733","0.0-29.0","9CD9B3EA2DEF409E80ADEEDC53C4839A","0199d67f-ab8e-7231-af7f-216d289a26a2","0199d675-8795-765b-adc2-c813de8cd3d1","","null","<div style=""display: flex; justify-content: center; align-items: center;"">
                     <img src=""images/causal/causal_series_2/causal_series_2_a.png"" style=""width: 300px; height: 300px;"" />
                   </div>","null","2","2","A","",""
"","","","","","html-button-response","38","193781","0.0-30.0","9CD9B3EA2DEF409E80ADEEDC53C4839A","0199d67f-ab8e-7231-af7f-216d289a26a2","0199d675-8795-765b-adc2-c813de8cd3d1","","8048","
        <div style=""display: flex; justify-content: center; align-items: center;"">
          <img src=""images/red_deck_2.png"" style=""width: 300px; height: 300px; margin-right: 10px;"" />
          <img src=""images/blue_deck_1.png"" style=""width: 300px; height: 300px;"" />
        </div>","0","2","2","choice","0",""
"","","","","","html-keyboard-response","39","199786","0.0-31.0-0.0-0.0","9CD9B3EA2DEF409E80ADEEDC53C4839A","0199d67f-ab8e-7231-af7f-216d289a26a2","0199d675-8795-765b-adc2-c813de8cd3d1","","null","<div style=""display: flex; justify-content: center; align-items: center;"">
                     <img src=""images/causal/causal_series_2/causal_series_2_b.png"" style=""width: 300px; height: 300px;"" />
                   </div>","null","2","2","B","",""
"","","","","","html-keyboard-response","40","205799","0.0-31.0-0.0-1.0","9CD9B3EA2DEF409E80ADEEDC53C4839A","0199d67f-ab8e-7231-af7f-216d289a26a2","0199d675-8795-765b-adc2-c813de8cd3d1","","null","<div style=""display: flex; justify-content: center; align-items: center;"">
                     <img src=""images/causal/causal_series_2/causal_series_2_c.png"" style=""width: 300px; height: 300px;"" />
                   </div>","null","2","2","C","",""
"","","","","","html-keyboard-response","41","211807","0.0-31.0-0.0-2.0","9CD9B3EA2DEF409E80ADEEDC53C4839A","0199d67f-ab8e-7231-af7f-216d289a26a2","0199d675-8795-765b-adc2-c813de8cd3d1","","null","<div style=""display: flex; justify-content: center; align-items: center;"">
                     <img src=""images/causal/causal_series_2/causal_series_2_d.png"" style=""width: 300px; height: 300px;"" />
                   </div>","null","2","2","D","",""
"","","","","","survey-likert","42","216733","0.0-32.0","9CD9B3EA2DEF409E80ADEEDC53C4839A","0199d67f-ab8e-7231-af7f-216d289a26a2","0199d675-8795-765b-adc2-c813de8cd3d1","","4926","","{""Q0"":3}","2","2","surprise_rating","","[0]"
"","","","","","survey-likert","43","218527","0.0-33.0","9CD9B3EA2DEF409E80ADEEDC53C4839A","0199d67f-ab8e-7231-af7f-216d289a26a2","0199d675-8795-765b-adc2-c813de8cd3d1","","1793","","{""Q0"":2}","2","2","enjoyment_rating","","[0]"
"","","","","","html-keyboard-response","44","224531","0.0-34.0","9CD9B3EA2DEF409E80ADEEDC53C4839A","0199d67f-ab8e-7231-af7f-216d289a26a2","0199d675-8795-765b-adc2-c813de8cd3d1","","null","<div style=""display: flex; justify-content: center; align-items: center;"">
                     <img src=""images/other/blank.png"" style=""width: 300px; height: 300px;"" />
                   </div>","null","0","0","blank","",""
"","","","","","html-keyboard-response","45","230534","0.0-35.0","9CD9B3EA2DEF409E80ADEEDC53C4839A","0199d67f-ab8e-7231-af7f-216d289a26a2","0199d675-8795-765b-adc2-c813de8cd3d1","","null","<div style=""display: flex; justify-content: center; align-items: center;"">
                     <img src=""images/causal/causal_series_5/causal_series_5_a.png"" style=""width: 300px; height: 300px;"" />
                   </div>","null","5","2","A","",""
"","","","","","html-button-response","46","241370","0.0-36.0","9CD9B3EA2DEF409E80ADEEDC53C4839A","0199d67f-ab8e-7231-af7f-216d289a26a2","0199d675-8795-765b-adc2-c813de8cd3d1","","10835","
        <div style=""display: flex; justify-content: center; align-items: center;"">
          <img src=""images/red_deck_2.png"" style=""width: 300px; height: 300px; margin-right: 10px;"" />
          <img src=""images/blue_deck_1.png"" style=""width: 300px; height: 300px;"" />
        </div>","1","5","2","choice","1",""
"","","","","","html-keyboard-response","47","247382","0.0-37.0-1.0-0.0","9CD9B3EA2DEF409E80ADEEDC53C4839A","0199d67f-ab8e-7231-af7f-216d289a26a2","0199d675-8795-765b-adc2-c813de8cd3d1","","null","<div style=""display: flex; justify-content: center; align-items: center;"">
                     <img src=""images/semantic/semantic_series_5/semantic_series_5_b.png"" style=""width: 300px; height: 300px;"" />
                   </div>","null","5","2","B","",""
"","","","","","html-keyboard-response","48","253391","0.0-37.0-1.0-1.0","9CD9B3EA2DEF409E80ADEEDC53C4839A","0199d67f-ab8e-7231-af7f-216d289a26a2","0199d675-8795-765b-adc2-c813de8cd3d1","","null","<div style=""display: flex; justify-content: center; align-items: center;"">
                     <img src=""images/semantic/semantic_series_5/semantic_series_5_c.png"" style=""width: 300px; height: 300px;"" />
                   </div>","null","5","2","C","",""
"","","","","","html-keyboard-response","49","259391","0.0-37.0-1.0-2.0","9CD9B3EA2DEF409E80ADEEDC53C4839A","0199d67f-ab8e-7231-af7f-216d289a26a2","0199d675-8795-765b-adc2-c813de8cd3d1","","null","<div style=""display: flex; justify-content: center; align-items: center;"">
                     <img src=""images/semantic/semantic_series_5/semantic_series_5_d.png"" style=""width: 300px; height: 300px;"" />
                   </div>","null","5","2","D","",""
"","","","","","survey-likert","50","262041","0.0-38.0","9CD9B3EA2DEF409E80ADEEDC53C4839A","0199d67f-ab8e-7231-af7f-216d289a26a2","0199d675-8795-765b-adc2-c813de8cd3d1","","2650","","{""Q0"":2}","5","2","surprise_rating","","[0]"
"","","","","","survey-likert","51","263634","0.0-39.0","9CD9B3EA2DEF409E80ADEEDC53C4839A","0199d67f-ab8e-7231-af7f-216d289a26a2","0199d675-8795-765b-adc2-c813de8cd3d1","","1591","","{""Q0"":3}","5","2","enjoyment_rating","","[0]"
"","","","","","html-keyboard-response","52","269638","0.0-40.0","9CD9B3EA2DEF409E80ADEEDC53C4839A","0199d67f-ab8e-7231-af7f-216d289a26a2","0199d675-8795-765b-adc2-c813de8cd3d1","","null","<div style=""display: flex; justify-content: center; align-items: center;"">
                     <img src=""images/other/blank.png"" style=""width: 300px; height: 300px;"" />
                   </div>","null","0","0","blank","",""
"","","","","","html-keyboard-response","53","275643","0.0-41.0","9CD9B3EA2DEF409E80ADEEDC53C4839A","0199d67f-ab8e-7231-af7f-216d289a26a2","0199d675-8795-765b-adc2-c813de8cd3d1","","null","<div style=""display: flex; justify-content: center; align-items: center;"">
                     <img src=""images/causal/causal_series_6/causal_series_6_a.png"" style=""width: 300px; height: 300px;"" />
                   </div>","null","6","1","A","",""
"","","","","","html-button-response","54","278828","0.0-42.0","9CD9B3EA2DEF409E80ADEEDC53C4839A","0199d67f-ab8e-7231-af7f-216d289a26a2","0199d675-8795-765b-adc2-c813de8cd3d1","","3185","
        <div style=""display: flex; justify-content: center; align-items: center;"">
          <img src=""images/red_deck_2.png"" style=""width: 300px; height: 300px; margin-right: 10px;"" />
          <img src=""images/blue_deck_1.png"" style=""width: 300px; height: 300px;"" />
        </div>","0","6","1","choice","0",""
"","","","","","html-keyboard-response","55","284841","0.0-43.0-0.0-0.0","9CD9B3EA2DEF409E80ADEEDC53C4839A","0199d67f-ab8e-7231-af7f-216d289a26a2","0199d675-8795-765b-adc2-c813de8cd3d1","","null","<div style=""display: flex; justify-content: center; align-items: center;"">
                     <img src=""images/causal/causal_series_6/causal_series_6_b.png"" style=""width: 300px; height: 300px;"" />
                   </div>","null","6","1","B","",""
"","","","","","html-keyboard-response","56","290845","0.0-43.0-0.0-1.0","9CD9B3EA2DEF409E80ADEEDC53C4839A","0199d67f-ab8e-7231-af7f-216d289a26a2","0199d675-8795-765b-adc2-c813de8cd3d1","","null","<div style=""display: flex; justify-content: center; align-items: center;"">
                     <img src=""images/causal/causal_series_6/causal_series_6_c.png"" style=""width: 300px; height: 300px;"" />
                   </div>","null","6","1","C","",""
"","","","","","html-keyboard-response","57","296856","0.0-43.0-0.0-2.0","9CD9B3EA2DEF409E80ADEEDC53C4839A","0199d67f-ab8e-7231-af7f-216d289a26a2","0199d675-8795-765b-adc2-c813de8cd3d1","","null","<div style=""display: flex; justify-content: center; align-items: center;"">
                     <img src=""images/causal/causal_series_6/causal_series_6_d.png"" style=""width: 300px; height: 300px;"" />
                   </div>","null","6","1","D","",""
"","","","","","survey-likert","58","302713","0.0-44.0","9CD9B3EA2DEF409E80ADEEDC53C4839A","0199d67f-ab8e-7231-af7f-216d289a26a2","0199d675-8795-765b-adc2-c813de8cd3d1","","5857","","{""Q0"":3}","6","1","surprise_rating","","[0]"
"","","","","","survey-likert","59","304970","0.0-45.0","9CD9B3EA2DEF409E80ADEEDC53C4839A","0199d67f-ab8e-7231-af7f-216d289a26a2","0199d675-8795-765b-adc2-c813de8cd3d1","","2258","","{""Q0"":3}","6","1","enjoyment_rating","","[0]"
"","","","","","html-keyboard-response","60","311004","0.0-46.0","9CD9B3EA2DEF409E80ADEEDC53C4839A","0199d67f-ab8e-7231-af7f-216d289a26a2","0199d675-8795-765b-adc2-c813de8cd3d1","","null","<div style=""display: flex; justify-content: center; align-items: center;"">
                     <img src=""images/other/blank.png"" style=""width: 300px; height: 300px;"" />
                   </div>","null","0","0","blank","",""
"","","","","","html-keyboard-response","61","317019","0.0-47.0","9CD9B3EA2DEF409E80ADEEDC53C4839A","0199d67f-ab8e-7231-af7f-216d289a26a2","0199d675-8795-765b-adc2-c813de8cd3d1","","null","<div style=""display: flex; justify-content: center; align-items: center;"">
                     <img src=""images/causal/causal_series_7/causal_series_7_a.png"" style=""width: 300px; height: 300px;"" />
                   </div>","null","7","1","A","",""
"","","","","","html-button-response","62","320421","0.0-48.0","9CD9B3EA2DEF409E80ADEEDC53C4839A","0199d67f-ab8e-7231-af7f-216d289a26a2","0199d675-8795-765b-adc2-c813de8cd3d1","","3401","
        <div style=""display: flex; justify-content: center; align-items: center;"">
          <img src=""images/red_deck_2.png"" style=""width: 300px; height: 300px; margin-right: 10px;"" />
          <img src=""images/blue_deck_1.png"" style=""width: 300px; height: 300px;"" />
        </div>","0","7","1","choice","0",""
"","","","","","html-keyboard-response","63","326433","0.0-49.0-0.0-0.0","9CD9B3EA2DEF409E80ADEEDC53C4839A","0199d67f-ab8e-7231-af7f-216d289a26a2","0199d675-8795-765b-adc2-c813de8cd3d1","","null","<div style=""display: flex; justify-content: center; align-items: center;"">
                     <img src=""images/causal/causal_series_7/causal_series_7_b.png"" style=""width: 300px; height: 300px;"" />
                   </div>","null","7","1","B","",""
"","","","","","html-keyboard-response","64","332438","0.0-49.0-0.0-1.0","9CD9B3EA2DEF409E80ADEEDC53C4839A","0199d67f-ab8e-7231-af7f-216d289a26a2","0199d675-8795-765b-adc2-c813de8cd3d1","","null","<div style=""display: flex; justify-content: center; align-items: center;"">
                     <img src=""images/causal/causal_series_7/causal_series_7_c.png"" style=""width: 300px; height: 300px;"" />
                   </div>","null","7","1","C","",""
"","","","","","html-keyboard-response","65","338440","0.0-49.0-0.0-2.0","9CD9B3EA2DEF409E80ADEEDC53C4839A","0199d67f-ab8e-7231-af7f-216d289a26a2","0199d675-8795-765b-adc2-c813de8cd3d1","","null","<div style=""display: flex; justify-content: center; align-items: center;"">
                     <img src=""images/causal/causal_series_7/causal_series_7_d.png"" style=""width: 300px; height: 300px;"" />
                   </div>","null","7","1","D","",""
"","","","","","survey-likert","66","389542","0.0-50.0","9CD9B3EA2DEF409E80ADEEDC53C4839A","0199d67f-ab8e-7231-af7f-216d289a26a2","0199d675-8795-765b-adc2-c813de8cd3d1","","51102","","{""Q0"":3}","7","1","surprise_rating","","[0]"
"","","","","","survey-likert","67","391561","0.0-51.0","9CD9B3EA2DEF409E80ADEEDC53C4839A","0199d67f-ab8e-7231-af7f-216d289a26a2","0199d675-8795-765b-adc2-c813de8cd3d1","","2018","","{""Q0"":4}","7","1","enjoyment_rating","","[0]"
"","","","","","html-keyboard-response","68","397566","0.0-52.0","9CD9B3EA2DEF409E80ADEEDC53C4839A","0199d67f-ab8e-7231-af7f-216d289a26a2","0199d675-8795-765b-adc2-c813de8cd3d1","","null","<div style=""display: flex; justify-content: center; align-items: center;"">
                     <img src=""images/other/blank.png"" style=""width: 300px; height: 300px;"" />
                   </div>","null","0","0","blank","",""
"","","","","","html-keyboard-response","69","403573","0.0-53.0","9CD9B3EA2DEF409E80ADEEDC53C4839A","0199d67f-ab8e-7231-af7f-216d289a26a2","0199d675-8795-765b-adc2-c813de8cd3d1","","null","<div style=""display: flex; justify-content: center; align-items: center;"">
                     <img src=""images/causal/causal_series_3/causal_series_3_a.png"" style=""width: 300px; height: 300px;"" />
                   </div>","null","3","2","A","",""
"","","","","","html-button-response","70","405128","0.0-54.0","9CD9B3EA2DEF409E80ADEEDC53C4839A","0199d67f-ab8e-7231-af7f-216d289a26a2","0199d675-8795-765b-adc2-c813de8cd3d1","","1554","
        <div style=""display: flex; justify-content: center; align-items: center;"">
          <img src=""images/red_deck_2.png"" style=""width: 300px; height: 300px; margin-right: 10px;"" />
          <img src=""images/blue_deck_1.png"" style=""width: 300px; height: 300px;"" />
        </div>","0","3","2","choice","0",""
"","","","","","html-keyboard-response","71","411129","0.0-55.0-0.0-0.0","9CD9B3EA2DEF409E80ADEEDC53C4839A","0199d67f-ab8e-7231-af7f-216d289a26a2","0199d675-8795-765b-adc2-c813de8cd3d1","","null","<div style=""display: flex; justify-content: center; align-items: center;"">
                     <img src=""images/causal/causal_series_3/causal_series_3_b.png"" style=""width: 300px; height: 300px;"" />
                   </div>","null","3","2","B","",""
"","","","","","html-keyboard-response","72","417136","0.0-55.0-0.0-1.0","9CD9B3EA2DEF409E80ADEEDC53C4839A","0199d67f-ab8e-7231-af7f-216d289a26a2","0199d675-8795-765b-adc2-c813de8cd3d1","","null","<div style=""display: flex; justify-content: center; align-items: center;"">
                     <img src=""images/causal/causal_series_3/causal_series_3_c.png"" style=""width: 300px; height: 300px;"" />
                   </div>","null","3","2","C","",""
"","","","","","html-keyboard-response","73","423146","0.0-55.0-0.0-2.0","9CD9B3EA2DEF409E80ADEEDC53C4839A","0199d67f-ab8e-7231-af7f-216d289a26a2","0199d675-8795-765b-adc2-c813de8cd3d1","","null","<div style=""display: flex; justify-content: center; align-items: center;"">
                     <img src=""images/causal/causal_series_3/causal_series_3_d.png"" style=""width: 300px; height: 300px;"" />
                   </div>","null","3","2","D","",""
"","","","","","survey-likert","74","425345","0.0-56.0","9CD9B3EA2DEF409E80ADEEDC53C4839A","0199d67f-ab8e-7231-af7f-216d289a26a2","0199d675-8795-765b-adc2-c813de8cd3d1","","2198","","{""Q0"":1}","3","2","surprise_rating","","[0]"
"","","","","","survey-likert","75","427412","0.0-57.0","9CD9B3EA2DEF409E80ADEEDC53C4839A","0199d67f-ab8e-7231-af7f-216d289a26a2","0199d675-8795-765b-adc2-c813de8cd3d1","","2067","","{""Q0"":2}","3","2","enjoyment_rating","","[0]"
"","","","","","html-keyboard-response","76","433424","0.0-58.0","9CD9B3EA2DEF409E80ADEEDC53C4839A","0199d67f-ab8e-7231-af7f-216d289a26a2","0199d675-8795-765b-adc2-c813de8cd3d1","","null","<div style=""display: flex; justify-content: center; align-items: center;"">
                     <img src=""images/other/blank.png"" style=""width: 300px; height: 300px;"" />
                   </div>","null","0","0","blank","",""
"","","","","","html-keyboard-response","77","439435","0.0-59.0","9CD9B3EA2DEF409E80ADEEDC53C4839A","0199d67f-ab8e-7231-af7f-216d289a26a2","0199d675-8795-765b-adc2-c813de8cd3d1","","null","<div style=""display: flex; justify-content: center; align-items: center;"">
                     <img src=""images/causal/causal_series_10/causal_series_10_a.png"" style=""width: 300px; height: 300px;"" />
                   </div>","null","10","1","A","",""
"","","","","","html-button-response","78","440945","0.0-60.0","9CD9B3EA2DEF409E80ADEEDC53C4839A","0199d67f-ab8e-7231-af7f-216d289a26a2","0199d675-8795-765b-adc2-c813de8cd3d1","","1509","
        <div style=""display: flex; justify-content: center; align-items: center;"">
          <img src=""images/red_deck_2.png"" style=""width: 300px; height: 300px; margin-right: 10px;"" />
          <img src=""images/blue_deck_1.png"" style=""width: 300px; height: 300px;"" />
        </div>","0","10","1","choice","0",""
"","","","","","html-keyboard-response","79","446955","0.0-61.0-0.0-0.0","9CD9B3EA2DEF409E80ADEEDC53C4839A","0199d67f-ab8e-7231-af7f-216d289a26a2","0199d675-8795-765b-adc2-c813de8cd3d1","","null","<div style=""display: flex; justify-content: center; align-items: center;"">
                     <img src=""images/causal/causal_series_10/causal_series_10_b.png"" style=""width: 300px; height: 300px;"" />
                   </div>","null","10","1","B","",""
"","","","","","html-keyboard-response","80","452959","0.0-61.0-0.0-1.0","9CD9B3EA2DEF409E80ADEEDC53C4839A","0199d67f-ab8e-7231-af7f-216d289a26a2","0199d675-8795-765b-adc2-c813de8cd3d1","","null","<div style=""display: flex; justify-content: center; align-items: center;"">
                     <img src=""images/causal/causal_series_10/causal_series_10_c.png"" style=""width: 300px; height: 300px;"" />
                   </div>","null","10","1","C","",""
"","","","","","html-keyboard-response","81","458974","0.0-61.0-0.0-2.0","9CD9B3EA2DEF409E80ADEEDC53C4839A","0199d67f-ab8e-7231-af7f-216d289a26a2","0199d675-8795-765b-adc2-c813de8cd3d1","","null","<div style=""display: flex; justify-content: center; align-items: center;"">
                     <img src=""images/causal/causal_series_10/causal_series_10_d.png"" style=""width: 300px; height: 300px;"" />
                   </div>","null","10","1","D","",""
"","","","","","survey-likert","82","461600","0.0-62.0","9CD9B3EA2DEF409E80ADEEDC53C4839A","0199d67f-ab8e-7231-af7f-216d289a26a2","0199d675-8795-765b-adc2-c813de8cd3d1","","2626","","{""Q0"":3}","10","1","surprise_rating","","[0]"
"","","","","","survey-likert","83","463718","0.0-63.0","9CD9B3EA2DEF409E80ADEEDC53C4839A","0199d67f-ab8e-7231-af7f-216d289a26a2","0199d675-8795-765b-adc2-c813de8cd3d1","","2117","","{""Q0"":3}","10","1","enjoyment_rating","","[0]"
"","","","","","html-keyboard-response","84","469725","0.0-64.0","9CD9B3EA2DEF409E80ADEEDC53C4839A","0199d67f-ab8e-7231-af7f-216d289a26a2","0199d675-8795-765b-adc2-c813de8cd3d1","","null","<div style=""display: flex; justify-content: center; align-items: center;"">
                     <img src=""images/other/blank.png"" style=""width: 300px; height: 300px;"" />
                   </div>","null","0","0","blank","",""
"","","","","","html-keyboard-response","85","475736","0.0-65.0","9CD9B3EA2DEF409E80ADEEDC53C4839A","0199d67f-ab8e-7231-af7f-216d289a26a2","0199d675-8795-765b-adc2-c813de8cd3d1","","null","<div style=""display: flex; justify-content: center; align-items: center;"">
                     <img src=""images/causal/causal_series_4/causal_series_4_a.png"" style=""width: 300px; height: 300px;"" />
                   </div>","null","4","2","A","",""
"","","","","","html-button-response","86","477113","0.0-66.0","9CD9B3EA2DEF409E80ADEEDC53C4839A","0199d67f-ab8e-7231-af7f-216d289a26a2","0199d675-8795-765b-adc2-c813de8cd3d1","","1377","
        <div style=""display: flex; justify-content: center; align-items: center;"">
          <img src=""images/red_deck_2.png"" style=""width: 300px; height: 300px; margin-right: 10px;"" />
          <img src=""images/blue_deck_1.png"" style=""width: 300px; height: 300px;"" />
        </div>","1","4","2","choice","1",""
"","","","","","html-keyboard-response","87","483114","0.0-67.0-1.0-0.0","9CD9B3EA2DEF409E80ADEEDC53C4839A","0199d67f-ab8e-7231-af7f-216d289a26a2","0199d675-8795-765b-adc2-c813de8cd3d1","","null","<div style=""display: flex; justify-content: center; align-items: center;"">
                     <img src=""images/semantic/semantic_series_4/semantic_series_4_b.png"" style=""width: 300px; height: 300px;"" />
                   </div>","null","4","2","B","",""
"","","","","","html-keyboard-response","88","489122","0.0-67.0-1.0-1.0","9CD9B3EA2DEF409E80ADEEDC53C4839A","0199d67f-ab8e-7231-af7f-216d289a26a2","0199d675-8795-765b-adc2-c813de8cd3d1","","null","<div style=""display: flex; justify-content: center; align-items: center;"">
                     <img src=""images/semantic/semantic_series_4/semantic_series_4_c.png"" style=""width: 300px; height: 300px;"" />
                   </div>","null","4","2","C","",""
"","","","","","html-keyboard-response","89","495135","0.0-67.0-1.0-2.0","9CD9B3EA2DEF409E80ADEEDC53C4839A","0199d67f-ab8e-7231-af7f-216d289a26a2","0199d675-8795-765b-adc2-c813de8cd3d1","","null","<div style=""display: flex; justify-content: center; align-items: center;"">
                     <img src=""images/semantic/semantic_series_4/semantic_series_4_d.png"" style=""width: 300px; height: 300px;"" />
                   </div>","null","4","2","D","",""
"","","","","","survey-likert","90","497303","0.0-68.0","9CD9B3EA2DEF409E80ADEEDC53C4839A","0199d67f-ab8e-7231-af7f-216d289a26a2","0199d675-8795-765b-adc2-c813de8cd3d1","","2168","","{""Q0"":3}","4","2","surprise_rating","","[0]"
"","","","","","survey-likert","91","499332","0.0-69.0","9CD9B3EA2DEF409E80ADEEDC53C4839A","0199d67f-ab8e-7231-af7f-216d289a26a2","0199d675-8795-765b-adc2-c813de8cd3d1","","2028","","{""Q0"":4}","4","2","enjoyment_rating","","[0]"
"","","","","","html-keyboard-response","92","505338","0.0-70.0","9CD9B3EA2DEF409E80ADEEDC53C4839A","0199d67f-ab8e-7231-af7f-216d289a26a2","0199d675-8795-765b-adc2-c813de8cd3d1","","null","<div style=""display: flex; justify-content: center; align-items: center;"">
                     <img src=""images/other/blank.png"" style=""width: 300px; height: 300px;"" />
                   </div>","null","0","0","blank","",""
"","","","","","html-keyboard-response","93","511354","0.0-71.0","9CD9B3EA2DEF409E80ADEEDC53C4839A","0199d67f-ab8e-7231-af7f-216d289a26a2","0199d675-8795-765b-adc2-c813de8cd3d1","","null","<div style=""display: flex; justify-content: center; align-items: center;"">
                     <img src=""images/causal/causal_series_7/causal_series_7_a.png"" style=""width: 300px; height: 300px;"" />
                   </div>","null","7","2","A","",""
"","","","","","html-button-response","94","512710","0.0-72.0","9CD9B3EA2DEF409E80ADEEDC53C4839A","0199d67f-ab8e-7231-af7f-216d289a26a2","0199d675-8795-765b-adc2-c813de8cd3d1","","1356","
        <div style=""display: flex; justify-content: center; align-items: center;"">
          <img src=""images/red_deck_2.png"" style=""width: 300px; height: 300px; margin-right: 10px;"" />
          <img src=""images/blue_deck_1.png"" style=""width: 300px; height: 300px;"" />
        </div>","0","7","2","choice","0",""
"","","","","","html-keyboard-response","95","518713","0.0-73.0-0.0-0.0","9CD9B3EA2DEF409E80ADEEDC53C4839A","0199d67f-ab8e-7231-af7f-216d289a26a2","0199d675-8795-765b-adc2-c813de8cd3d1","","null","<div style=""display: flex; justify-content: center; align-items: center;"">
                     <img src=""images/causal/causal_series_7/causal_series_7_b.png"" style=""width: 300px; height: 300px;"" />
                   </div>","null","7","2","B","",""
"","","","","","html-keyboard-response","96","524714","0.0-73.0-0.0-1.0","9CD9B3EA2DEF409E80ADEEDC53C4839A","0199d67f-ab8e-7231-af7f-216d289a26a2","0199d675-8795-765b-adc2-c813de8cd3d1","","null","<div style=""display: flex; justify-content: center; align-items: center;"">
                     <img src=""images/causal/causal_series_7/causal_series_7_c.png"" style=""width: 300px; height: 300px;"" />
                   </div>","null","7","2","C","",""
"","","","","","html-keyboard-response","97","530717","0.0-73.0-0.0-2.0","9CD9B3EA2DEF409E80ADEEDC53C4839A","0199d67f-ab8e-7231-af7f-216d289a26a2","0199d675-8795-765b-adc2-c813de8cd3d1","","null","<div style=""display: flex; justify-content: center; align-items: center;"">
                     <img src=""images/causal/causal_series_7/causal_series_7_d.png"" style=""width: 300px; height: 300px;"" />
                   </div>","null","7","2","D","",""
"","","","","","survey-likert","98","532590","0.0-74.0","9CD9B3EA2DEF409E80ADEEDC53C4839A","0199d67f-ab8e-7231-af7f-216d289a26a2","0199d675-8795-765b-adc2-c813de8cd3d1","","1873","","{""Q0"":3}","7","2","surprise_rating","","[0]"
"","","","","","survey-likert","99","534805","0.0-75.0","9CD9B3EA2DEF409E80ADEEDC53C4839A","0199d67f-ab8e-7231-af7f-216d289a26a2","0199d675-8795-765b-adc2-c813de8cd3d1","","2213","","{""Q0"":4}","7","2","enjoyment_rating","","[0]"
"","","","","","html-keyboard-response","100","540808","0.0-76.0","9CD9B3EA2DEF409E80ADEEDC53C4839A","0199d67f-ab8e-7231-af7f-216d289a26a2","0199d675-8795-765b-adc2-c813de8cd3d1","","null","<div style=""display: flex; justify-content: center; align-items: center;"">
                     <img src=""images/other/blank.png"" style=""width: 300px; height: 300px;"" />
                   </div>","null","0","0","blank","",""
"","","","","","html-keyboard-response","101","546824","0.0-77.0","9CD9B3EA2DEF409E80ADEEDC53C4839A","0199d67f-ab8e-7231-af7f-216d289a26a2","0199d675-8795-765b-adc2-c813de8cd3d1","","null","<div style=""display: flex; justify-content: center; align-items: center;"">
                     <img src=""images/causal/causal_series_10/causal_series_10_a.png"" style=""width: 300px; height: 300px;"" />
                   </div>","null","10","2","A","",""
"","","","","","html-button-response","102","548304","0.0-78.0","9CD9B3EA2DEF409E80ADEEDC53C4839A","0199d67f-ab8e-7231-af7f-216d289a26a2","0199d675-8795-765b-adc2-c813de8cd3d1","","1479","
        <div style=""display: flex; justify-content: center; align-items: center;"">
          <img src=""images/red_deck_2.png"" style=""width: 300px; height: 300px; margin-right: 10px;"" />
          <img src=""images/blue_deck_1.png"" style=""width: 300px; height: 300px;"" />
        </div>","0","10","2","choice","0",""
"","","","","","html-keyboard-response","103","554316","0.0-79.0-0.0-0.0","9CD9B3EA2DEF409E80ADEEDC53C4839A","0199d67f-ab8e-7231-af7f-216d289a26a2","0199d675-8795-765b-adc2-c813de8cd3d1","","null","<div style=""display: flex; justify-content: center; align-items: center;"">
                     <img src=""images/causal/causal_series_10/causal_series_10_b.png"" style=""width: 300px; height: 300px;"" />
                   </div>","null","10","2","B","",""
"","","","","","html-keyboard-response","104","560321","0.0-79.0-0.0-1.0","9CD9B3EA2DEF409E80ADEEDC53C4839A","0199d67f-ab8e-7231-af7f-216d289a26a2","0199d675-8795-765b-adc2-c813de8cd3d1","","null","<div style=""display: flex; justify-content: center; align-items: center;"">
                     <img src=""images/causal/causal_series_10/causal_series_10_c.png"" style=""width: 300px; height: 300px;"" />
                   </div>","null","10","2","C","",""
"","","","","","html-keyboard-response","105","566325","0.0-79.0-0.0-2.0","9CD9B3EA2DEF409E80ADEEDC53C4839A","0199d67f-ab8e-7231-af7f-216d289a26a2","0199d675-8795-765b-adc2-c813de8cd3d1","","null","<div style=""display: flex; justify-content: center; align-items: center;"">
                     <img src=""images/causal/causal_series_10/causal_series_10_d.png"" style=""width: 300px; height: 300px;"" />
                   </div>","null","10","2","D","",""
"","","","","","survey-likert","106","568904","0.0-80.0","9CD9B3EA2DEF409E80ADEEDC53C4839A","0199d67f-ab8e-7231-af7f-216d289a26a2","0199d675-8795-765b-adc2-c813de8cd3d1","","2579","","{""Q0"":4}","10","2","surprise_rating","","[0]"
"","","","","","survey-likert","107","571153","0.0-81.0","9CD9B3EA2DEF409E80ADEEDC53C4839A","0199d67f-ab8e-7231-af7f-216d289a26a2","0199d675-8795-765b-adc2-c813de8cd3d1","","2248","","{""Q0"":4}","10","2","enjoyment_rating","","[0]"
"","","","","","html-keyboard-response","108","577166","0.0-82.0","9CD9B3EA2DEF409E80ADEEDC53C4839A","0199d67f-ab8e-7231-af7f-216d289a26a2","0199d675-8795-765b-adc2-c813de8cd3d1","","null","<div style=""display: flex; justify-content: center; align-items: center;"">
                     <img src=""images/other/blank.png"" style=""width: 300px; height: 300px;"" />
                   </div>","null","0","0","blank","",""
"","","","","","html-keyboard-response","109","583172","0.0-83.0","9CD9B3EA2DEF409E80ADEEDC53C4839A","0199d67f-ab8e-7231-af7f-216d289a26a2","0199d675-8795-765b-adc2-c813de8cd3d1","","null","<div style=""display: flex; justify-content: center; align-items: center;"">
                     <img src=""images/causal/causal_series_8/causal_series_8_a.png"" style=""width: 300px; height: 300px;"" />
                   </div>","null","8","2","A","",""
"","","","","","html-button-response","110","584531","0.0-84.0","9CD9B3EA2DEF409E80ADEEDC53C4839A","0199d67f-ab8e-7231-af7f-216d289a26a2","0199d675-8795-765b-adc2-c813de8cd3d1","","1359","
        <div style=""display: flex; justify-content: center; align-items: center;"">
          <img src=""images/red_deck_2.png"" style=""width: 300px; height: 300px; margin-right: 10px;"" />
          <img src=""images/blue_deck_1.png"" style=""width: 300px; height: 300px;"" />
        </div>","1","8","2","choice","1",""
"","","","","","html-keyboard-response","111","590541","0.0-85.0-1.0-0.0","9CD9B3EA2DEF409E80ADEEDC53C4839A","0199d67f-ab8e-7231-af7f-216d289a26a2","0199d675-8795-765b-adc2-c813de8cd3d1","","null","<div style=""display: flex; justify-content: center; align-items: center;"">
                     <img src=""images/semantic/semantic_series_8/semantic_series_8_b.png"" style=""width: 300px; height: 300px;"" />
                   </div>","null","8","2","B","",""
"","","","","","html-keyboard-response","112","596552","0.0-85.0-1.0-1.0","9CD9B3EA2DEF409E80ADEEDC53C4839A","0199d67f-ab8e-7231-af7f-216d289a26a2","0199d675-8795-765b-adc2-c813de8cd3d1","","null","<div style=""display: flex; justify-content: center; align-items: center;"">
                     <img src=""images/semantic/semantic_series_8/semantic_series_8_c.png"" style=""width: 300px; height: 300px;"" />
                   </div>","null","8","2","C","",""
"","","","","","html-keyboard-response","113","602566","0.0-85.0-1.0-2.0","9CD9B3EA2DEF409E80ADEEDC53C4839A","0199d67f-ab8e-7231-af7f-216d289a26a2","0199d675-8795-765b-adc2-c813de8cd3d1","","null","<div style=""display: flex; justify-content: center; align-items: center;"">
                     <img src=""images/semantic/semantic_series_8/semantic_series_8_d.png"" style=""width: 300px; height: 300px;"" />
                   </div>","null","8","2","D","",""
"","","","","","survey-likert","114","607107","0.0-86.0","9CD9B3EA2DEF409E80ADEEDC53C4839A","0199d67f-ab8e-7231-af7f-216d289a26a2","0199d675-8795-765b-adc2-c813de8cd3d1","","4540","","{""Q0"":3}","8","2","surprise_rating","","[0]"
"","","","","","survey-likert","115","609406","0.0-87.0","9CD9B3EA2DEF409E80ADEEDC53C4839A","0199d67f-ab8e-7231-af7f-216d289a26a2","0199d675-8795-765b-adc2-c813de8cd3d1","","2298","","{""Q0"":4}","8","2","enjoyment_rating","","[0]"
"","","","","","html-keyboard-response","116","615419","0.0-88.0","9CD9B3EA2DEF409E80ADEEDC53C4839A","0199d67f-ab8e-7231-af7f-216d289a26a2","0199d675-8795-765b-adc2-c813de8cd3d1","","null","<div style=""display: flex; justify-content: center; align-items: center;"">
                     <img src=""images/other/blank.png"" style=""width: 300px; height: 300px;"" />
                   </div>","null","0","0","blank","",""
"","","","","","html-keyboard-response","117","621421","0.0-89.0","9CD9B3EA2DEF409E80ADEEDC53C4839A","0199d67f-ab8e-7231-af7f-216d289a26a2","0199d675-8795-765b-adc2-c813de8cd3d1","","null","<div style=""display: flex; justify-content: center; align-items: center;"">
                     <img src=""images/causal/causal_series_5/causal_series_5_a.png"" style=""width: 300px; height: 300px;"" />
                   </div>","null","5","1","A","",""
"","","","","","html-button-response","118","622631","0.0-90.0","9CD9B3EA2DEF409E80ADEEDC53C4839A","0199d67f-ab8e-7231-af7f-216d289a26a2","0199d675-8795-765b-adc2-c813de8cd3d1","","1209","
        <div style=""display: flex; justify-content: center; align-items: center;"">
          <img src=""images/red_deck_2.png"" style=""width: 300px; height: 300px; margin-right: 10px;"" />
          <img src=""images/blue_deck_1.png"" style=""width: 300px; height: 300px;"" />
        </div>","1","5","1","choice","1",""
"","","","","","html-keyboard-response","119","628632","0.0-91.0-1.0-0.0","9CD9B3EA2DEF409E80ADEEDC53C4839A","0199d67f-ab8e-7231-af7f-216d289a26a2","0199d675-8795-765b-adc2-c813de8cd3d1","","null","<div style=""display: flex; justify-content: center; align-items: center;"">
                     <img src=""images/semantic/semantic_series_5/semantic_series_5_b.png"" style=""width: 300px; height: 300px;"" />
                   </div>","null","5","1","B","",""
"","","","","","html-keyboard-response","120","634635","0.0-91.0-1.0-1.0","9CD9B3EA2DEF409E80ADEEDC53C4839A","0199d67f-ab8e-7231-af7f-216d289a26a2","0199d675-8795-765b-adc2-c813de8cd3d1","","null","<div style=""display: flex; justify-content: center; align-items: center;"">
                     <img src=""images/semantic/semantic_series_5/semantic_series_5_c.png"" style=""width: 300px; height: 300px;"" />
                   </div>","null","5","1","C","",""
"","","","","","html-keyboard-response","121","640649","0.0-91.0-1.0-2.0","9CD9B3EA2DEF409E80ADEEDC53C4839A","0199d67f-ab8e-7231-af7f-216d289a26a2","0199d675-8795-765b-adc2-c813de8cd3d1","","null","<div style=""display: flex; justify-content: center; align-items: center;"">
                     <img src=""images/semantic/semantic_series_5/semantic_series_5_d.png"" style=""width: 300px; height: 300px;"" />
                   </div>","null","5","1","D","",""
"","","","","","survey-likert","122","642851","0.0-92.0","9CD9B3EA2DEF409E80ADEEDC53C4839A","0199d67f-ab8e-7231-af7f-216d289a26a2","0199d675-8795-765b-adc2-c813de8cd3d1","","2202","","{""Q0"":4}","5","1","surprise_rating","","[0]"
"","","","","","survey-likert","123","644646","0.0-93.0","9CD9B3EA2DEF409E80ADEEDC53C4839A","0199d67f-ab8e-7231-af7f-216d289a26a2","0199d675-8795-765b-adc2-c813de8cd3d1","","1795","","{""Q0"":3}","5","1","enjoyment_rating","","[0]"
"","","","","","html-keyboard-response","124","650657","0.0-94.0","9CD9B3EA2DEF409E80ADEEDC53C4839A","0199d67f-ab8e-7231-af7f-216d289a26a2","0199d675-8795-765b-adc2-c813de8cd3d1","","null","<div style=""display: flex; justify-content: center; align-items: center;"">
                     <img src=""images/other/blank.png"" style=""width: 300px; height: 300px;"" />
                   </div>","null","0","0","blank","",""
"","","","","","html-keyboard-response","125","656666","0.0-95.0","9CD9B3EA2DEF409E80ADEEDC53C4839A","0199d67f-ab8e-7231-af7f-216d289a26a2","0199d675-8795-765b-adc2-c813de8cd3d1","","null","<div style=""display: flex; justify-content: center; align-items: center;"">
                     <img src=""images/causal/causal_series_3/causal_series_3_a.png"" style=""width: 300px; height: 300px;"" />
                   </div>","null","3","1","A","",""
"","","","","","html-button-response","126","658083","0.0-96.0","9CD9B3EA2DEF409E80ADEEDC53C4839A","0199d67f-ab8e-7231-af7f-216d289a26a2","0199d675-8795-765b-adc2-c813de8cd3d1","","1416","
        <div style=""display: flex; justify-content: center; align-items: center;"">
          <img src=""images/red_deck_2.png"" style=""width: 300px; height: 300px; margin-right: 10px;"" />
          <img src=""images/blue_deck_1.png"" style=""width: 300px; height: 300px;"" />
        </div>","0","3","1","choice","0",""
"","","","","","html-keyboard-response","127","664089","0.0-97.0-0.0-0.0","9CD9B3EA2DEF409E80ADEEDC53C4839A","0199d67f-ab8e-7231-af7f-216d289a26a2","0199d675-8795-765b-adc2-c813de8cd3d1","","null","<div style=""display: flex; justify-content: center; align-items: center;"">
                     <img src=""images/causal/causal_series_3/causal_series_3_b.png"" style=""width: 300px; height: 300px;"" />
                   </div>","null","3","1","B","",""
"","","","","","html-keyboard-response","128","670098","0.0-97.0-0.0-1.0","9CD9B3EA2DEF409E80ADEEDC53C4839A","0199d67f-ab8e-7231-af7f-216d289a26a2","0199d675-8795-765b-adc2-c813de8cd3d1","","null","<div style=""display: flex; justify-content: center; align-items: center;"">
                     <img src=""images/causal/causal_series_3/causal_series_3_c.png"" style=""width: 300px; height: 300px;"" />
                   </div>","null","3","1","C","",""
"","","","","","html-keyboard-response","129","676112","0.0-97.0-0.0-2.0","9CD9B3EA2DEF409E80ADEEDC53C4839A","0199d67f-ab8e-7231-af7f-216d289a26a2","0199d675-8795-765b-adc2-c813de8cd3d1","","null","<div style=""display: flex; justify-content: center; align-items: center;"">
                     <img src=""images/causal/causal_series_3/causal_series_3_d.png"" style=""width: 300px; height: 300px;"" />
                   </div>","null","3","1","D","",""
"","","","","","survey-likert","130","678709","0.0-98.0","9CD9B3EA2DEF409E80ADEEDC53C4839A","0199d67f-ab8e-7231-af7f-216d289a26a2","0199d675-8795-765b-adc2-c813de8cd3d1","","2597","","{""Q0"":3}","3","1","surprise_rating","","[0]"
"","","","","","survey-likert","131","680682","0.0-99.0","9CD9B3EA2DEF409E80ADEEDC53C4839A","0199d67f-ab8e-7231-af7f-216d289a26a2","0199d675-8795-765b-adc2-c813de8cd3d1","","1972","","{""Q0"":4}","3","1","enjoyment_rating","","[0]"
"","","","","","html-keyboard-response","132","686684","0.0-100.0","9CD9B3EA2DEF409E80ADEEDC53C4839A","0199d67f-ab8e-7231-af7f-216d289a26a2","0199d675-8795-765b-adc2-c813de8cd3d1","","null","<div style=""display: flex; justify-content: center; align-items: center;"">
                     <img src=""images/other/blank.png"" style=""width: 300px; height: 300px;"" />
                   </div>","null","0","0","blank","",""
"","","","","","html-keyboard-response","133","692693","0.0-101.0","9CD9B3EA2DEF409E80ADEEDC53C4839A","0199d67f-ab8e-7231-af7f-216d289a26a2","0199d675-8795-765b-adc2-c813de8cd3d1","","null","<div style=""display: flex; justify-content: center; align-items: center;"">
                     <img src=""images/causal/causal_series_2/causal_series_2_a.png"" style=""width: 300px; height: 300px;"" />
                   </div>","null","2","1","A","",""
"","","","","","html-button-response","134","694280","0.0-102.0","9CD9B3EA2DEF409E80ADEEDC53C4839A","0199d67f-ab8e-7231-af7f-216d289a26a2","0199d675-8795-765b-adc2-c813de8cd3d1","","1586","
        <div style=""display: flex; justify-content: center; align-items: center;"">
          <img src=""images/red_deck_2.png"" style=""width: 300px; height: 300px; margin-right: 10px;"" />
          <img src=""images/blue_deck_1.png"" style=""width: 300px; height: 300px;"" />
        </div>","0","2","1","choice","0",""
"","","","","","html-keyboard-response","135","700288","0.0-103.0-0.0-0.0","9CD9B3EA2DEF409E80ADEEDC53C4839A","0199d67f-ab8e-7231-af7f-216d289a26a2","0199d675-8795-765b-adc2-c813de8cd3d1","","null","<div style=""display: flex; justify-content: center; align-items: center;"">
                     <img src=""images/causal/causal_series_2/causal_series_2_b.png"" style=""width: 300px; height: 300px;"" />
                   </div>","null","2","1","B","",""
"","","","","","html-keyboard-response","136","706290","0.0-103.0-0.0-1.0","9CD9B3EA2DEF409E80ADEEDC53C4839A","0199d67f-ab8e-7231-af7f-216d289a26a2","0199d675-8795-765b-adc2-c813de8cd3d1","","null","<div style=""display: flex; justify-content: center; align-items: center;"">
                     <img src=""images/causal/causal_series_2/causal_series_2_c.png"" style=""width: 300px; height: 300px;"" />
                   </div>","null","2","1","C","",""
"","","","","","html-keyboard-response","137","712291","0.0-103.0-0.0-2.0","9CD9B3EA2DEF409E80ADEEDC53C4839A","0199d67f-ab8e-7231-af7f-216d289a26a2","0199d675-8795-765b-adc2-c813de8cd3d1","","null","<div style=""display: flex; justify-content: center; align-items: center;"">
                     <img src=""images/causal/causal_series_2/causal_series_2_d.png"" style=""width: 300px; height: 300px;"" />
                   </div>","null","2","1","D","",""
"","","","","","survey-likert","138","714416","0.0-104.0","9CD9B3EA2DEF409E80ADEEDC53C4839A","0199d67f-ab8e-7231-af7f-216d289a26a2","0199d675-8795-765b-adc2-c813de8cd3d1","","2125","","{""Q0"":3}","2","1","surprise_rating","","[0]"
"","","","","","survey-likert","139","715532","0.0-105.0","9CD9B3EA2DEF409E80ADEEDC53C4839A","0199d67f-ab8e-7231-af7f-216d289a26a2","0199d675-8795-765b-adc2-c813de8cd3d1","","1115","","{""Q0"":2}","2","1","enjoyment_rating","","[0]"
"","","","","","html-keyboard-response","140","721548","0.0-106.0","9CD9B3EA2DEF409E80ADEEDC53C4839A","0199d67f-ab8e-7231-af7f-216d289a26a2","0199d675-8795-765b-adc2-c813de8cd3d1","","null","<div style=""display: flex; justify-content: center; align-items: center;"">
                     <img src=""images/other/blank.png"" style=""width: 300px; height: 300px;"" />
                   </div>","null","0","0","blank","",""
"","","","","","html-keyboard-response","141","727550","0.0-107.0","9CD9B3EA2DEF409E80ADEEDC53C4839A","0199d67f-ab8e-7231-af7f-216d289a26a2","0199d675-8795-765b-adc2-c813de8cd3d1","","null","<div style=""display: flex; justify-content: center; align-items: center;"">
                     <img src=""images/causal/causal_series_1/causal_series_1_a.png"" style=""width: 300px; height: 300px;"" />
                   </div>","null","1","2","A","",""
"","","","","","html-button-response","142","730350","0.0-108.0","9CD9B3EA2DEF409E80ADEEDC53C4839A","0199d67f-ab8e-7231-af7f-216d289a26a2","0199d675-8795-765b-adc2-c813de8cd3d1","","2799","
        <div style=""display: flex; justify-content: center; align-items: center;"">
          <img src=""images/red_deck_2.png"" style=""width: 300px; height: 300px; margin-right: 10px;"" />
          <img src=""images/blue_deck_1.png"" style=""width: 300px; height: 300px;"" />
        </div>","1","1","2","choice","1",""
"","","","","","html-keyboard-response","143","736352","0.0-109.0-1.0-0.0","9CD9B3EA2DEF409E80ADEEDC53C4839A","0199d67f-ab8e-7231-af7f-216d289a26a2","0199d675-8795-765b-adc2-c813de8cd3d1","","null","<div style=""display: flex; justify-content: center; align-items: center;"">
                     <img src=""images/semantic/semantic_series_1/semantic_series_1_b.png"" style=""width: 300px; height: 300px;"" />
                   </div>","null","1","2","B","",""
"","","","","","html-keyboard-response","144","742366","0.0-109.0-1.0-1.0","9CD9B3EA2DEF409E80ADEEDC53C4839A","0199d67f-ab8e-7231-af7f-216d289a26a2","0199d675-8795-765b-adc2-c813de8cd3d1","","null","<div style=""display: flex; justify-content: center; align-items: center;"">
                     <img src=""images/semantic/semantic_series_1/semantic_series_1_c.png"" style=""width: 300px; height: 300px;"" />
                   </div>","null","1","2","C","",""
"","","","","","html-keyboard-response","145","748365","0.0-109.0-1.0-2.0","9CD9B3EA2DEF409E80ADEEDC53C4839A","0199d67f-ab8e-7231-af7f-216d289a26a2","0199d675-8795-765b-adc2-c813de8cd3d1","","null","<div style=""display: flex; justify-content: center; align-items: center;"">
                     <img src=""images/semantic/semantic_series_1/semantic_series_1_d.png"" style=""width: 300px; height: 300px;"" />
                   </div>","null","1","2","D","",""
"","","","","","survey-likert","146","750875","0.0-110.0","9CD9B3EA2DEF409E80ADEEDC53C4839A","0199d67f-ab8e-7231-af7f-216d289a26a2","0199d675-8795-765b-adc2-c813de8cd3d1","","2510","","{""Q0"":4}","1","2","surprise_rating","","[0]"
"","","","","","survey-likert","147","752588","0.0-111.0","9CD9B3EA2DEF409E80ADEEDC53C4839A","0199d67f-ab8e-7231-af7f-216d289a26a2","0199d675-8795-765b-adc2-c813de8cd3d1","","1712","","{""Q0"":3}","1","2","enjoyment_rating","","[0]"
"","","","","","html-keyboard-response","148","758597","0.0-112.0","9CD9B3EA2DEF409E80ADEEDC53C4839A","0199d67f-ab8e-7231-af7f-216d289a26a2","0199d675-8795-765b-adc2-c813de8cd3d1","","null","<div style=""display: flex; justify-content: center; align-items: center;"">
                     <img src=""images/other/blank.png"" style=""width: 300px; height: 300px;"" />
                   </div>","null","0","0","blank","",""
"","","","","","html-keyboard-response","149","764612","0.0-113.0","9CD9B3EA2DEF409E80ADEEDC53C4839A","0199d67f-ab8e-7231-af7f-216d289a26a2","0199d675-8795-765b-adc2-c813de8cd3d1","","null","<div style=""display: flex; justify-content: center; align-items: center;"">
                     <img src=""images/causal/causal_series_9/causal_series_9_a.png"" style=""width: 300px; height: 300px;"" />
                   </div>","null","9","2","A","",""
"","","","","","html-button-response","150","767321","0.0-114.0","9CD9B3EA2DEF409E80ADEEDC53C4839A","0199d67f-ab8e-7231-af7f-216d289a26a2","0199d675-8795-765b-adc2-c813de8cd3d1","","2708","
        <div style=""display: flex; justify-content: center; align-items: center;"">
          <img src=""images/red_deck_2.png"" style=""width: 300px; height: 300px; margin-right: 10px;"" />
          <img src=""images/blue_deck_1.png"" style=""width: 300px; height: 300px;"" />
        </div>","1","9","2","choice","1",""
"","","","","","html-keyboard-response","151","773336","0.0-115.0-1.0-0.0","9CD9B3EA2DEF409E80ADEEDC53C4839A","0199d67f-ab8e-7231-af7f-216d289a26a2","0199d675-8795-765b-adc2-c813de8cd3d1","","null","<div style=""display: flex; justify-content: center; align-items: center;"">
                     <img src=""images/semantic/semantic_series_9/semantic_series_9_b.png"" style=""width: 300px; height: 300px;"" />
                   </div>","null","9","2","B","",""
"","","","","","html-keyboard-response","152","779340","0.0-115.0-1.0-1.0","9CD9B3EA2DEF409E80ADEEDC53C4839A","0199d67f-ab8e-7231-af7f-216d289a26a2","0199d675-8795-765b-adc2-c813de8cd3d1","","null","<div style=""display: flex; justify-content: center; align-items: center;"">
                     <img src=""images/semantic/semantic_series_9/semantic_series_9_c.png"" style=""width: 300px; height: 300px;"" />
                   </div>","null","9","2","C","",""
"","","","","","html-keyboard-response","153","785347","0.0-115.0-1.0-2.0","9CD9B3EA2DEF409E80ADEEDC53C4839A","0199d67f-ab8e-7231-af7f-216d289a26a2","0199d675-8795-765b-adc2-c813de8cd3d1","","null","<div style=""display: flex; justify-content: center; align-items: center;"">
                     <img src=""images/semantic/semantic_series_9/semantic_series_9_d.png"" style=""width: 300px; height: 300px;"" />
                   </div>","null","9","2","D","",""
"","","","","","survey-likert","154","788462","0.0-116.0","9CD9B3EA2DEF409E80ADEEDC53C4839A","0199d67f-ab8e-7231-af7f-216d289a26a2","0199d675-8795-765b-adc2-c813de8cd3d1","","3114","","{""Q0"":2}","9","2","surprise_rating","","[0]"
"","","","","","survey-likert","155","790280","0.0-117.0","9CD9B3EA2DEF409E80ADEEDC53C4839A","0199d67f-ab8e-7231-af7f-216d289a26a2","0199d675-8795-765b-adc2-c813de8cd3d1","","1817","","{""Q0"":3}","9","2","enjoyment_rating","","[0]"
"","","","","","html-keyboard-response","156","798517","0.0-118.0","9CD9B3EA2DEF409E80ADEEDC53C4839A","0199d67f-ab8e-7231-af7f-216d289a26a2","0199d675-8795-765b-adc2-c813de8cd3d1","","null","<div style=""display: flex; justify-content: center; align-items: center;"">
                     <img src=""images/other/blank.png"" style=""width: 300px; height: 300px;"" />
                   </div>","null","0","0","blank","",""
"","","","","","html-keyboard-response","157","804527","0.0-119.0","9CD9B3EA2DEF409E80ADEEDC53C4839A","0199d67f-ab8e-7231-af7f-216d289a26a2","0199d675-8795-765b-adc2-c813de8cd3d1","","null","<div style=""display: flex; justify-content: center; align-items: center;"">
                     <img src=""images/causal/causal_series_8/causal_series_8_a.png"" style=""width: 300px; height: 300px;"" />
                   </div>","null","8","1","A","",""
"","","","","","html-button-response","158","805962","0.0-120.0","9CD9B3EA2DEF409E80ADEEDC53C4839A","0199d67f-ab8e-7231-af7f-216d289a26a2","0199d675-8795-765b-adc2-c813de8cd3d1","","1435","
        <div style=""display: flex; justify-content: center; align-items: center;"">
          <img src=""images/red_deck_2.png"" style=""width: 300px; height: 300px; margin-right: 10px;"" />
          <img src=""images/blue_deck_1.png"" style=""width: 300px; height: 300px;"" />
        </div>","1","8","1","choice","1",""
"","","","","","html-keyboard-response","159","811967","0.0-121.0-1.0-0.0","9CD9B3EA2DEF409E80ADEEDC53C4839A","0199d67f-ab8e-7231-af7f-216d289a26a2","0199d675-8795-765b-adc2-c813de8cd3d1","","null","<div style=""display: flex; justify-content: center; align-items: center;"">
                     <img src=""images/semantic/semantic_series_8/semantic_series_8_b.png"" style=""width: 300px; height: 300px;"" />
                   </div>","null","8","1","B","",""
"","","","","","html-keyboard-response","160","817975","0.0-121.0-1.0-1.0","9CD9B3EA2DEF409E80ADEEDC53C4839A","0199d67f-ab8e-7231-af7f-216d289a26a2","0199d675-8795-765b-adc2-c813de8cd3d1","","null","<div style=""display: flex; justify-content: center; align-items: center;"">
                     <img src=""images/semantic/semantic_series_8/semantic_series_8_c.png"" style=""width: 300px; height: 300px;"" />
                   </div>","null","8","1","C","",""
"","","","","","html-keyboard-response","161","823990","0.0-121.0-1.0-2.0","9CD9B3EA2DEF409E80ADEEDC53C4839A","0199d67f-ab8e-7231-af7f-216d289a26a2","0199d675-8795-765b-adc2-c813de8cd3d1","","null","<div style=""display: flex; justify-content: center; align-items: center;"">
                     <img src=""images/semantic/semantic_series_8/semantic_series_8_d.png"" style=""width: 300px; height: 300px;"" />
                   </div>","null","8","1","D","",""
"","","","","","survey-likert","162","829805","0.0-122.0","9CD9B3EA2DEF409E80ADEEDC53C4839A","0199d67f-ab8e-7231-af7f-216d289a26a2","0199d675-8795-765b-adc2-c813de8cd3d1","","5815","","{""Q0"":3}","8","1","surprise_rating","","[0]"
"","","","","","survey-likert","163","831610","0.0-123.0","9CD9B3EA2DEF409E80ADEEDC53C4839A","0199d67f-ab8e-7231-af7f-216d289a26a2","0199d675-8795-765b-adc2-c813de8cd3d1","","1804","","{""Q0"":4}","8","1","enjoyment_rating","","[0]"
"","","","","","html-keyboard-response","164","837617","0.0-124.0","9CD9B3EA2DEF409E80ADEEDC53C4839A","0199d67f-ab8e-7231-af7f-216d289a26a2","0199d675-8795-765b-adc2-c813de8cd3d1","","null","<div style=""display: flex; justify-content: center; align-items: center;"">
                     <img src=""images/other/blank.png"" style=""width: 300px; height: 300px;"" />
                   </div>","null","0","0","blank","",""
"","","","","","survey-text","165","922376","0.0-125.0","9CD9B3EA2DEF409E80ADEEDC53C4839A","0199d67f-ab8e-7231-af7f-216d289a26a2","0199d675-8795-765b-adc2-c813de8cd3d1","","84757","","{""Q0"":""THERE ARE TWO DIFFERENCE BETWEEN TWO DESK ONE BLUE DESK IS  REVEALS A SEQUENCE THAT FORMS ONE CONHERENT STORY. THE RED DECK IS SURPRISING BUT UNRELATED""}","","","","",""
"","","","","","html-button-response","166","929678","0.0-126.0","9CD9B3EA2DEF409E80ADEEDC53C4839A","0199d67f-ab8e-7231-af7f-216d289a26a2","0199d675-8795-765b-adc2-c813de8cd3d1","","7302","Which color deck do the following sentences continue the story from?","0","","","","",""
"","","","","","html-button-response","167","931889","0.0-127.0","9CD9B3EA2DEF409E80ADEEDC53C4839A","0199d67f-ab8e-7231-af7f-216d289a26a2","0199d675-8795-765b-adc2-c813de8cd3d1","","2211","Which color deck do the following sentences NOT follow the story from?","1","","","","",""
"","","","","","html-button-response","168","947512","0.0-128.0","9CD9B3EA2DEF409E80ADEEDC53C4839A","0199d67f-ab8e-7231-af7f-216d289a26a2","0199d675-8795-765b-adc2-c813de8cd3d1","","15622","Which type of deck did you prefer overall?","1","","","","",""
"","","","","","survey-text","169","962574","0.0-129.0","9CD9B3EA2DEF409E80ADEEDC53C4839A","0199d67f-ab8e-7231-af7f-216d289a26a2","0199d675-8795-765b-adc2-c813de8cd3d1","","15057","","{""Q0"":""FEMALE"",""Q1"":""33""}","","","","",""
"","","","","","instructions","170","971212","0.0-130.0","9CD9B3EA2DEF409E80ADEEDC53C4839A","0199d67f-ab8e-7231-af7f-216d289a26a2","0199d675-8795-765b-adc2-c813de8cd3d1","[{""page_index"":0,""viewing_time"":8637}]","8638","","","","","","",""
