"success","timeout","failed_images","failed_audio","failed_video","trial_type","trial_index","time_elapsed","internal_node_id","subject_id","study_id","session_id","view_history","rt","stimulus","response","choice","question_order"
"true","false","[]","[]","[]","preload","0","806","0.0-0.0","706AA03E11BE4E83B70BA6ED9F8AEA0D","0199d04c-2d74-7838-a5ff-dd1a13c59f69","0199d03a-64b5-7588-a054-13255d1a32c0","","","","","",""
"","","","","","instructions","1","2686","0.0-1.0","706AA03E11BE4E83B70BA6ED9F8AEA0D","0199d04c-2d74-7838-a5ff-dd1a13c59f69","0199d03a-64b5-7588-a054-13255d1a32c0","[{""page_index"":0,""viewing_time"":1879}]","1880","","","",""
"","","","","","instructions","2","5435","0.0-2.0","706AA03E11BE4E83B70BA6ED9F8AEA0D","0199d04c-2d74-7838-a5ff-dd1a13c59f69","0199d03a-64b5-7588-a054-13255d1a32c0","[{""page_index"":0,""viewing_time"":2748}]","2748","","","",""
"true","","","","","fullscreen","3","8187","0.0-3.0","706AA03E11BE4E83B70BA6ED9F8AEA0D","0199d04c-2d74-7838-a5ff-dd1a13c59f69","0199d03a-64b5-7588-a054-13255d1a32c0","","1749","","","",""
"","","","","","instructions","4","17635","0.0-4.0","706AA03E11BE4E83B70BA6ED9F8AEA0D","0199d04c-2d74-7838-a5ff-dd1a13c59f69","0199d03a-64b5-7588-a054-13255d1a32c0","[{""page_index"":0,""viewing_time"":9446}]","9447","","","",""
"","","","","","html-keyboard-response","5","24639","0.0-5.0","706AA03E11BE4E83B70BA6ED9F8AEA0D","0199d04c-2d74-7838-a5ff-dd1a13c59f69","0199d03a-64b5-7588-a054-13255d1a32c0","","null","<div style=""display: flex; justify-content: center; align-items: center;"">
                     <img src=""images/causal/causal_series_1/causal_series_1_a.png"" style=""width: 300px; height: 300px;"" />
                   </div>","null","",""
"","","","","","html-keyboard-response","6","31642","0.0-6.0","706AA03E11BE4E83B70BA6ED9F8AEA0D","0199d04c-2d74-7838-a5ff-dd1a13c59f69","0199d03a-64b5-7588-a054-13255d1a32c0","","null","<div style=""display: flex; justify-content: center; align-items: center;"">
                     <img src=""images/causal/causal_series_1/causal_series_1_b.png"" style=""width: 300px; height: 300px;"" />
                   </div>","null","",""
"","","","","","html-keyboard-response","7","38645","0.0-7.0","706AA03E11BE4E83B70BA6ED9F8AEA0D","0199d04c-2d74-7838-a5ff-dd1a13c59f69","0199d03a-64b5-7588-a054-13255d1a32c0","","null","<div style=""display: flex; justify-content: center; align-items: center;"">
                     <img src=""images/causal/causal_series_1/causal_series_1_c.png"" style=""width: 300px; height: 300px;"" />
                   </div>","null","",""
"","","","","","html-button-response","8","42136","0.0-8.0","706AA03E11BE4E83B70BA6ED9F8AEA0D","0199d04c-2d74-7838-a5ff-dd1a13c59f69","0199d03a-64b5-7588-a054-13255d1a32c0","","3489","
        <div style=""display: flex; justify-content: center; align-items: center;"">
          <img src=""images/red_deck_2.png"" style=""width: 300px; height: 300px; margin-right: 10px;"" />
          <img src=""images/blue_deck_1.png"" style=""width: 300px; height: 300px;"" />
        </div>","1","1",""
"","","","","","html-keyboard-response","9","49139","0.0-9.0-1.0-0.0","706AA03E11BE4E83B70BA6ED9F8AEA0D","0199d04c-2d74-7838-a5ff-dd1a13c59f69","0199d03a-64b5-7588-a054-13255d1a32c0","","null","<div style=""display: flex; justify-content: center; align-items: center;"">
                     <img src=""images/semantic/semantic_series_1/semantic_series_1_d.png"" style=""width: 300px; height: 300px;"" />
                   </div>","null","",""
"","","","","","survey-likert","10","55588","0.0-10.0","706AA03E11BE4E83B70BA6ED9F8AEA0D","0199d04c-2d74-7838-a5ff-dd1a13c59f69","0199d03a-64b5-7588-a054-13255d1a32c0","","6446","","{""Q0"":1}","","[0]"
"","","","","","survey-likert","11","58953","0.0-11.0","706AA03E11BE4E83B70BA6ED9F8AEA0D","0199d04c-2d74-7838-a5ff-dd1a13c59f69","0199d03a-64b5-7588-a054-13255d1a32c0","","3363","","{""Q0"":2}","","[0]"
"","","","","","html-keyboard-response","12","65956","0.0-12.0","706AA03E11BE4E83B70BA6ED9F8AEA0D","0199d04c-2d74-7838-a5ff-dd1a13c59f69","0199d03a-64b5-7588-a054-13255d1a32c0","","null","<div style=""display: flex; justify-content: center; align-items: center;"">
                     <img src=""images/other/blank.png"" style=""width: 300px; height: 300px;"" />
                   </div>","null","",""
"","","","","","html-keyboard-response","13","72959","0.0-13.0","706AA03E11BE4E83B70BA6ED9F8AEA0D","0199d04c-2d74-7838-a5ff-dd1a13c59f69","0199d03a-64b5-7588-a054-13255d1a32c0","","null","<div style=""display: flex; justify-content: center; align-items: center;"">
                     <img src=""images/causal/causal_series_10/causal_series_10_a.png"" style=""width: 300px; height: 300px;"" />
                   </div>","null","",""
"","","","","","html-keyboard-response","14","79961","0.0-14.0","706AA03E11BE4E83B70BA6ED9F8AEA0D","0199d04c-2d74-7838-a5ff-dd1a13c59f69","0199d03a-64b5-7588-a054-13255d1a32c0","","null","<div style=""display: flex; justify-content: center; align-items: center;"">
                     <img src=""images/causal/causal_series_10/causal_series_10_b.png"" style=""width: 300px; height: 300px;"" />
                   </div>","null","",""
"","","","","","html-keyboard-response","15","86964","0.0-15.0","706AA03E11BE4E83B70BA6ED9F8AEA0D","0199d04c-2d74-7838-a5ff-dd1a13c59f69","0199d03a-64b5-7588-a054-13255d1a32c0","","null","<div style=""display: flex; justify-content: center; align-items: center;"">
                     <img src=""images/causal/causal_series_10/causal_series_10_c.png"" style=""width: 300px; height: 300px;"" />
                   </div>","null","",""
"","","","","","html-button-response","16","89869","0.0-16.0","706AA03E11BE4E83B70BA6ED9F8AEA0D","0199d04c-2d74-7838-a5ff-dd1a13c59f69","0199d03a-64b5-7588-a054-13255d1a32c0","","2903","
        <div style=""display: flex; justify-content: center; align-items: center;"">
          <img src=""images/red_deck_2.png"" style=""width: 300px; height: 300px; margin-right: 10px;"" />
          <img src=""images/blue_deck_1.png"" style=""width: 300px; height: 300px;"" />
        </div>","0","0",""
"","","","","","html-keyboard-response","17","96873","0.0-17.0-0.0-0.0","706AA03E11BE4E83B70BA6ED9F8AEA0D","0199d04c-2d74-7838-a5ff-dd1a13c59f69","0199d03a-64b5-7588-a054-13255d1a32c0","","null","<div style=""display: flex; justify-content: center; align-items: center;"">
                     <img src=""images/causal/causal_series_10/causal_series_10_d.png"" style=""width: 300px; height: 300px;"" />
                   </div>","null","",""
"","","","","","survey-likert","18","100886","0.0-18.0","706AA03E11BE4E83B70BA6ED9F8AEA0D","0199d04c-2d74-7838-a5ff-dd1a13c59f69","0199d03a-64b5-7588-a054-13255d1a32c0","","4012","","{""Q0"":3}","","[0]"
"","","","","","survey-likert","19","105086","0.0-19.0","706AA03E11BE4E83B70BA6ED9F8AEA0D","0199d04c-2d74-7838-a5ff-dd1a13c59f69","0199d03a-64b5-7588-a054-13255d1a32c0","","4198","","{""Q0"":3}","","[0]"
"","","","","","html-keyboard-response","20","112090","0.0-20.0","706AA03E11BE4E83B70BA6ED9F8AEA0D","0199d04c-2d74-7838-a5ff-dd1a13c59f69","0199d03a-64b5-7588-a054-13255d1a32c0","","null","<div style=""display: flex; justify-content: center; align-items: center;"">
                     <img src=""images/other/blank.png"" style=""width: 300px; height: 300px;"" />
                   </div>","null","",""
"","","","","","html-keyboard-response","21","119092","0.0-21.0","706AA03E11BE4E83B70BA6ED9F8AEA0D","0199d04c-2d74-7838-a5ff-dd1a13c59f69","0199d03a-64b5-7588-a054-13255d1a32c0","","null","<div style=""display: flex; justify-content: center; align-items: center;"">
                     <img src=""images/causal/causal_series_3/causal_series_3_a.png"" style=""width: 300px; height: 300px;"" />
                   </div>","null","",""
"","","","","","html-keyboard-response","22","126094","0.0-22.0","706AA03E11BE4E83B70BA6ED9F8AEA0D","0199d04c-2d74-7838-a5ff-dd1a13c59f69","0199d03a-64b5-7588-a054-13255d1a32c0","","null","<div style=""display: flex; justify-content: center; align-items: center;"">
                     <img src=""images/causal/causal_series_3/causal_series_3_b.png"" style=""width: 300px; height: 300px;"" />
                   </div>","null","",""
"","","","","","html-keyboard-response","23","133097","0.0-23.0","706AA03E11BE4E83B70BA6ED9F8AEA0D","0199d04c-2d74-7838-a5ff-dd1a13c59f69","0199d03a-64b5-7588-a054-13255d1a32c0","","null","<div style=""display: flex; justify-content: center; align-items: center;"">
                     <img src=""images/causal/causal_series_3/causal_series_3_c.png"" style=""width: 300px; height: 300px;"" />
                   </div>","null","",""
"","","","","","html-button-response","24","134703","0.0-24.0","706AA03E11BE4E83B70BA6ED9F8AEA0D","0199d04c-2d74-7838-a5ff-dd1a13c59f69","0199d03a-64b5-7588-a054-13255d1a32c0","","1605","
        <div style=""display: flex; justify-content: center; align-items: center;"">
          <img src=""images/red_deck_2.png"" style=""width: 300px; height: 300px; margin-right: 10px;"" />
          <img src=""images/blue_deck_1.png"" style=""width: 300px; height: 300px;"" />
        </div>","1","1",""
"","","","","","html-keyboard-response","25","141705","0.0-25.0-1.0-0.0","706AA03E11BE4E83B70BA6ED9F8AEA0D","0199d04c-2d74-7838-a5ff-dd1a13c59f69","0199d03a-64b5-7588-a054-13255d1a32c0","","null","<div style=""display: flex; justify-content: center; align-items: center;"">
                     <img src=""images/semantic/semantic_series_3/semantic_series_3_d.png"" style=""width: 300px; height: 300px;"" />
                   </div>","null","",""
"","","","","","survey-likert","26","146886","0.0-26.0","706AA03E11BE4E83B70BA6ED9F8AEA0D","0199d04c-2d74-7838-a5ff-dd1a13c59f69","0199d03a-64b5-7588-a054-13255d1a32c0","","5179","","{""Q0"":2}","","[0]"
"","","","","","survey-likert","27","149787","0.0-27.0","706AA03E11BE4E83B70BA6ED9F8AEA0D","0199d04c-2d74-7838-a5ff-dd1a13c59f69","0199d03a-64b5-7588-a054-13255d1a32c0","","2899","","{""Q0"":1}","","[0]"
"","","","","","html-keyboard-response","28","156791","0.0-28.0","706AA03E11BE4E83B70BA6ED9F8AEA0D","0199d04c-2d74-7838-a5ff-dd1a13c59f69","0199d03a-64b5-7588-a054-13255d1a32c0","","null","<div style=""display: flex; justify-content: center; align-items: center;"">
                     <img src=""images/other/blank.png"" style=""width: 300px; height: 300px;"" />
                   </div>","null","",""
"","","","","","html-keyboard-response","29","163793","0.0-29.0","706AA03E11BE4E83B70BA6ED9F8AEA0D","0199d04c-2d74-7838-a5ff-dd1a13c59f69","0199d03a-64b5-7588-a054-13255d1a32c0","","null","<div style=""display: flex; justify-content: center; align-items: center;"">
                     <img src=""images/causal/causal_series_2/causal_series_2_a.png"" style=""width: 300px; height: 300px;"" />
                   </div>","null","",""
"","","","","","html-keyboard-response","30","170795","0.0-30.0","706AA03E11BE4E83B70BA6ED9F8AEA0D","0199d04c-2d74-7838-a5ff-dd1a13c59f69","0199d03a-64b5-7588-a054-13255d1a32c0","","null","<div style=""display: flex; justify-content: center; align-items: center;"">
                     <img src=""images/causal/causal_series_2/causal_series_2_b.png"" style=""width: 300px; height: 300px;"" />
                   </div>","null","",""
"","","","","","html-keyboard-response","31","177798","0.0-31.0","706AA03E11BE4E83B70BA6ED9F8AEA0D","0199d04c-2d74-7838-a5ff-dd1a13c59f69","0199d03a-64b5-7588-a054-13255d1a32c0","","null","<div style=""display: flex; justify-content: center; align-items: center;"">
                     <img src=""images/causal/causal_series_2/causal_series_2_c.png"" style=""width: 300px; height: 300px;"" />
                   </div>","null","",""
"","","","","","html-button-response","32","179036","0.0-32.0","706AA03E11BE4E83B70BA6ED9F8AEA0D","0199d04c-2d74-7838-a5ff-dd1a13c59f69","0199d03a-64b5-7588-a054-13255d1a32c0","","1236","
        <div style=""display: flex; justify-content: center; align-items: center;"">
          <img src=""images/red_deck_2.png"" style=""width: 300px; height: 300px; margin-right: 10px;"" />
          <img src=""images/blue_deck_1.png"" style=""width: 300px; height: 300px;"" />
        </div>","0","0",""
"","","","","","html-keyboard-response","33","186038","0.0-33.0-0.0-0.0","706AA03E11BE4E83B70BA6ED9F8AEA0D","0199d04c-2d74-7838-a5ff-dd1a13c59f69","0199d03a-64b5-7588-a054-13255d1a32c0","","null","<div style=""display: flex; justify-content: center; align-items: center;"">
                     <img src=""images/causal/causal_series_2/causal_series_2_d.png"" style=""width: 300px; height: 300px;"" />
                   </div>","null","",""
"","","","","","survey-likert","34","188870","0.0-34.0","706AA03E11BE4E83B70BA6ED9F8AEA0D","0199d04c-2d74-7838-a5ff-dd1a13c59f69","0199d03a-64b5-7588-a054-13255d1a32c0","","2830","","{""Q0"":4}","","[0]"
"","","","","","survey-likert","35","191587","0.0-35.0","706AA03E11BE4E83B70BA6ED9F8AEA0D","0199d04c-2d74-7838-a5ff-dd1a13c59f69","0199d03a-64b5-7588-a054-13255d1a32c0","","2715","","{""Q0"":1}","","[0]"
"","","","","","html-keyboard-response","36","198590","0.0-36.0","706AA03E11BE4E83B70BA6ED9F8AEA0D","0199d04c-2d74-7838-a5ff-dd1a13c59f69","0199d03a-64b5-7588-a054-13255d1a32c0","","null","<div style=""display: flex; justify-content: center; align-items: center;"">
                     <img src=""images/other/blank.png"" style=""width: 300px; height: 300px;"" />
                   </div>","null","",""
"","","","","","html-keyboard-response","37","205593","0.0-37.0","706AA03E11BE4E83B70BA6ED9F8AEA0D","0199d04c-2d74-7838-a5ff-dd1a13c59f69","0199d03a-64b5-7588-a054-13255d1a32c0","","null","<div style=""display: flex; justify-content: center; align-items: center;"">
                     <img src=""images/causal/causal_series_9/causal_series_9_a.png"" style=""width: 300px; height: 300px;"" />
                   </div>","null","",""
"","","","","","html-keyboard-response","38","212595","0.0-38.0","706AA03E11BE4E83B70BA6ED9F8AEA0D","0199d04c-2d74-7838-a5ff-dd1a13c59f69","0199d03a-64b5-7588-a054-13255d1a32c0","","null","<div style=""display: flex; justify-content: center; align-items: center;"">
                     <img src=""images/causal/causal_series_9/causal_series_9_b.png"" style=""width: 300px; height: 300px;"" />
                   </div>","null","",""
"","","","","","html-keyboard-response","39","219598","0.0-39.0","706AA03E11BE4E83B70BA6ED9F8AEA0D","0199d04c-2d74-7838-a5ff-dd1a13c59f69","0199d03a-64b5-7588-a054-13255d1a32c0","","null","<div style=""display: flex; justify-content: center; align-items: center;"">
                     <img src=""images/causal/causal_series_9/causal_series_9_c.png"" style=""width: 300px; height: 300px;"" />
                   </div>","null","",""
"","","","","","html-button-response","40","220853","0.0-40.0","706AA03E11BE4E83B70BA6ED9F8AEA0D","0199d04c-2d74-7838-a5ff-dd1a13c59f69","0199d03a-64b5-7588-a054-13255d1a32c0","","1254","
        <div style=""display: flex; justify-content: center; align-items: center;"">
          <img src=""images/red_deck_2.png"" style=""width: 300px; height: 300px; margin-right: 10px;"" />
          <img src=""images/blue_deck_1.png"" style=""width: 300px; height: 300px;"" />
        </div>","0","0",""
"","","","","","html-keyboard-response","41","227856","0.0-41.0-0.0-0.0","706AA03E11BE4E83B70BA6ED9F8AEA0D","0199d04c-2d74-7838-a5ff-dd1a13c59f69","0199d03a-64b5-7588-a054-13255d1a32c0","","null","<div style=""display: flex; justify-content: center; align-items: center;"">
                     <img src=""images/causal/causal_series_9/causal_series_9_d.png"" style=""width: 300px; height: 300px;"" />
                   </div>","null","",""
"","","","","","survey-likert","42","232554","0.0-42.0","706AA03E11BE4E83B70BA6ED9F8AEA0D","0199d04c-2d74-7838-a5ff-dd1a13c59f69","0199d03a-64b5-7588-a054-13255d1a32c0","","4697","","{""Q0"":2}","","[0]"
"","","","","","survey-likert","43","235337","0.0-43.0","706AA03E11BE4E83B70BA6ED9F8AEA0D","0199d04c-2d74-7838-a5ff-dd1a13c59f69","0199d03a-64b5-7588-a054-13255d1a32c0","","2781","","{""Q0"":2}","","[0]"
"","","","","","html-keyboard-response","44","242340","0.0-44.0","706AA03E11BE4E83B70BA6ED9F8AEA0D","0199d04c-2d74-7838-a5ff-dd1a13c59f69","0199d03a-64b5-7588-a054-13255d1a32c0","","null","<div style=""display: flex; justify-content: center; align-items: center;"">
                     <img src=""images/other/blank.png"" style=""width: 300px; height: 300px;"" />
                   </div>","null","",""
"","","","","","html-keyboard-response","45","249343","0.0-45.0","706AA03E11BE4E83B70BA6ED9F8AEA0D","0199d04c-2d74-7838-a5ff-dd1a13c59f69","0199d03a-64b5-7588-a054-13255d1a32c0","","null","<div style=""display: flex; justify-content: center; align-items: center;"">
                     <img src=""images/causal/causal_series_6/causal_series_6_a.png"" style=""width: 300px; height: 300px;"" />
                   </div>","null","",""
"","","","","","html-keyboard-response","46","256346","0.0-46.0","706AA03E11BE4E83B70BA6ED9F8AEA0D","0199d04c-2d74-7838-a5ff-dd1a13c59f69","0199d03a-64b5-7588-a054-13255d1a32c0","","null","<div style=""display: flex; justify-content: center; align-items: center;"">
                     <img src=""images/causal/causal_series_6/causal_series_6_b.png"" style=""width: 300px; height: 300px;"" />
                   </div>","null","",""
"","","","","","html-keyboard-response","47","263348","0.0-47.0","706AA03E11BE4E83B70BA6ED9F8AEA0D","0199d04c-2d74-7838-a5ff-dd1a13c59f69","0199d03a-64b5-7588-a054-13255d1a32c0","","null","<div style=""display: flex; justify-content: center; align-items: center;"">
                     <img src=""images/causal/causal_series_6/causal_series_6_c.png"" style=""width: 300px; height: 300px;"" />
                   </div>","null","",""
"","","","","","html-button-response","48","264970","0.0-48.0","706AA03E11BE4E83B70BA6ED9F8AEA0D","0199d04c-2d74-7838-a5ff-dd1a13c59f69","0199d03a-64b5-7588-a054-13255d1a32c0","","1621","
        <div style=""display: flex; justify-content: center; align-items: center;"">
          <img src=""images/red_deck_2.png"" style=""width: 300px; height: 300px; margin-right: 10px;"" />
          <img src=""images/blue_deck_1.png"" style=""width: 300px; height: 300px;"" />
        </div>","0","0",""
"","","","","","html-keyboard-response","49","271973","0.0-49.0-0.0-0.0","706AA03E11BE4E83B70BA6ED9F8AEA0D","0199d04c-2d74-7838-a5ff-dd1a13c59f69","0199d03a-64b5-7588-a054-13255d1a32c0","","null","<div style=""display: flex; justify-content: center; align-items: center;"">
                     <img src=""images/causal/causal_series_6/causal_series_6_d.png"" style=""width: 300px; height: 300px;"" />
                   </div>","null","",""
"","","","","","survey-likert","50","275170","0.0-50.0","706AA03E11BE4E83B70BA6ED9F8AEA0D","0199d04c-2d74-7838-a5ff-dd1a13c59f69","0199d03a-64b5-7588-a054-13255d1a32c0","","3196","","{""Q0"":3}","","[0]"
"","","","","","survey-likert","51","278671","0.0-51.0","706AA03E11BE4E83B70BA6ED9F8AEA0D","0199d04c-2d74-7838-a5ff-dd1a13c59f69","0199d03a-64b5-7588-a054-13255d1a32c0","","3499","","{""Q0"":0}","","[0]"
"","","","","","html-keyboard-response","52","285674","0.0-52.0","706AA03E11BE4E83B70BA6ED9F8AEA0D","0199d04c-2d74-7838-a5ff-dd1a13c59f69","0199d03a-64b5-7588-a054-13255d1a32c0","","null","<div style=""display: flex; justify-content: center; align-items: center;"">
                     <img src=""images/other/blank.png"" style=""width: 300px; height: 300px;"" />
                   </div>","null","",""
"","","","","","html-keyboard-response","53","292676","0.0-53.0","706AA03E11BE4E83B70BA6ED9F8AEA0D","0199d04c-2d74-7838-a5ff-dd1a13c59f69","0199d03a-64b5-7588-a054-13255d1a32c0","","null","<div style=""display: flex; justify-content: center; align-items: center;"">
                     <img src=""images/causal/causal_series_5/causal_series_5_a.png"" style=""width: 300px; height: 300px;"" />
                   </div>","null","",""
"","","","","","html-keyboard-response","54","299679","0.0-54.0","706AA03E11BE4E83B70BA6ED9F8AEA0D","0199d04c-2d74-7838-a5ff-dd1a13c59f69","0199d03a-64b5-7588-a054-13255d1a32c0","","null","<div style=""display: flex; justify-content: center; align-items: center;"">
                     <img src=""images/causal/causal_series_5/causal_series_5_b.png"" style=""width: 300px; height: 300px;"" />
                   </div>","null","",""
"","","","","","html-keyboard-response","55","306682","0.0-55.0","706AA03E11BE4E83B70BA6ED9F8AEA0D","0199d04c-2d74-7838-a5ff-dd1a13c59f69","0199d03a-64b5-7588-a054-13255d1a32c0","","null","<div style=""display: flex; justify-content: center; align-items: center;"">
                     <img src=""images/causal/causal_series_5/causal_series_5_c.png"" style=""width: 300px; height: 300px;"" />
                   </div>","null","",""
"","","","","","html-button-response","56","307771","0.0-56.0","706AA03E11BE4E83B70BA6ED9F8AEA0D","0199d04c-2d74-7838-a5ff-dd1a13c59f69","0199d03a-64b5-7588-a054-13255d1a32c0","","1087","
        <div style=""display: flex; justify-content: center; align-items: center;"">
          <img src=""images/red_deck_2.png"" style=""width: 300px; height: 300px; margin-right: 10px;"" />
          <img src=""images/blue_deck_1.png"" style=""width: 300px; height: 300px;"" />
        </div>","1","1",""
"","","","","","html-keyboard-response","57","314773","0.0-57.0-1.0-0.0","706AA03E11BE4E83B70BA6ED9F8AEA0D","0199d04c-2d74-7838-a5ff-dd1a13c59f69","0199d03a-64b5-7588-a054-13255d1a32c0","","null","<div style=""display: flex; justify-content: center; align-items: center;"">
                     <img src=""images/semantic/semantic_series_5/semantic_series_5_d.png"" style=""width: 300px; height: 300px;"" />
                   </div>","null","",""
"","","","","","survey-likert","58","319488","0.0-58.0","706AA03E11BE4E83B70BA6ED9F8AEA0D","0199d04c-2d74-7838-a5ff-dd1a13c59f69","0199d03a-64b5-7588-a054-13255d1a32c0","","4713","","{""Q0"":2}","","[0]"
"","","","","","survey-likert","59","321837","0.0-59.0","706AA03E11BE4E83B70BA6ED9F8AEA0D","0199d04c-2d74-7838-a5ff-dd1a13c59f69","0199d03a-64b5-7588-a054-13255d1a32c0","","2348","","{""Q0"":1}","","[0]"
"","","","","","html-keyboard-response","60","328840","0.0-60.0","706AA03E11BE4E83B70BA6ED9F8AEA0D","0199d04c-2d74-7838-a5ff-dd1a13c59f69","0199d03a-64b5-7588-a054-13255d1a32c0","","null","<div style=""display: flex; justify-content: center; align-items: center;"">
                     <img src=""images/other/blank.png"" style=""width: 300px; height: 300px;"" />
                   </div>","null","",""
"","","","","","html-keyboard-response","61","335843","0.0-61.0","706AA03E11BE4E83B70BA6ED9F8AEA0D","0199d04c-2d74-7838-a5ff-dd1a13c59f69","0199d03a-64b5-7588-a054-13255d1a32c0","","null","<div style=""display: flex; justify-content: center; align-items: center;"">
                     <img src=""images/causal/causal_series_4/causal_series_4_a.png"" style=""width: 300px; height: 300px;"" />
                   </div>","null","",""
"","","","","","html-keyboard-response","62","342845","0.0-62.0","706AA03E11BE4E83B70BA6ED9F8AEA0D","0199d04c-2d74-7838-a5ff-dd1a13c59f69","0199d03a-64b5-7588-a054-13255d1a32c0","","null","<div style=""display: flex; justify-content: center; align-items: center;"">
                     <img src=""images/causal/causal_series_4/causal_series_4_b.png"" style=""width: 300px; height: 300px;"" />
                   </div>","null","",""
"","","","","","html-keyboard-response","63","349847","0.0-63.0","706AA03E11BE4E83B70BA6ED9F8AEA0D","0199d04c-2d74-7838-a5ff-dd1a13c59f69","0199d03a-64b5-7588-a054-13255d1a32c0","","null","<div style=""display: flex; justify-content: center; align-items: center;"">
                     <img src=""images/causal/causal_series_4/causal_series_4_c.png"" style=""width: 300px; height: 300px;"" />
                   </div>","null","",""
"","","","","","html-button-response","64","351854","0.0-64.0","706AA03E11BE4E83B70BA6ED9F8AEA0D","0199d04c-2d74-7838-a5ff-dd1a13c59f69","0199d03a-64b5-7588-a054-13255d1a32c0","","2005","
        <div style=""display: flex; justify-content: center; align-items: center;"">
          <img src=""images/red_deck_2.png"" style=""width: 300px; height: 300px; margin-right: 10px;"" />
          <img src=""images/blue_deck_1.png"" style=""width: 300px; height: 300px;"" />
        </div>","0","0",""
"","","","","","html-keyboard-response","65","358857","0.0-65.0-0.0-0.0","706AA03E11BE4E83B70BA6ED9F8AEA0D","0199d04c-2d74-7838-a5ff-dd1a13c59f69","0199d03a-64b5-7588-a054-13255d1a32c0","","null","<div style=""display: flex; justify-content: center; align-items: center;"">
                     <img src=""images/causal/causal_series_4/causal_series_4_d.png"" style=""width: 300px; height: 300px;"" />
                   </div>","null","",""
"","","","","","survey-likert","66","361787","0.0-66.0","706AA03E11BE4E83B70BA6ED9F8AEA0D","0199d04c-2d74-7838-a5ff-dd1a13c59f69","0199d03a-64b5-7588-a054-13255d1a32c0","","2929","","{""Q0"":1}","","[0]"
"","","","","","survey-likert","67","364021","0.0-67.0","706AA03E11BE4E83B70BA6ED9F8AEA0D","0199d04c-2d74-7838-a5ff-dd1a13c59f69","0199d03a-64b5-7588-a054-13255d1a32c0","","2232","","{""Q0"":3}","","[0]"
"","","","","","html-keyboard-response","68","371025","0.0-68.0","706AA03E11BE4E83B70BA6ED9F8AEA0D","0199d04c-2d74-7838-a5ff-dd1a13c59f69","0199d03a-64b5-7588-a054-13255d1a32c0","","null","<div style=""display: flex; justify-content: center; align-items: center;"">
                     <img src=""images/other/blank.png"" style=""width: 300px; height: 300px;"" />
                   </div>","null","",""
"","","","","","html-keyboard-response","69","378027","0.0-69.0","706AA03E11BE4E83B70BA6ED9F8AEA0D","0199d04c-2d74-7838-a5ff-dd1a13c59f69","0199d03a-64b5-7588-a054-13255d1a32c0","","null","<div style=""display: flex; justify-content: center; align-items: center;"">
                     <img src=""images/causal/causal_series_8/causal_series_8_a.png"" style=""width: 300px; height: 300px;"" />
                   </div>","null","",""
"","","","","","html-keyboard-response","70","385029","0.0-70.0","706AA03E11BE4E83B70BA6ED9F8AEA0D","0199d04c-2d74-7838-a5ff-dd1a13c59f69","0199d03a-64b5-7588-a054-13255d1a32c0","","null","<div style=""display: flex; justify-content: center; align-items: center;"">
                     <img src=""images/causal/causal_series_8/causal_series_8_b.png"" style=""width: 300px; height: 300px;"" />
                   </div>","null","",""
"","","","","","html-keyboard-response","71","392032","0.0-71.0","706AA03E11BE4E83B70BA6ED9F8AEA0D","0199d04c-2d74-7838-a5ff-dd1a13c59f69","0199d03a-64b5-7588-a054-13255d1a32c0","","null","<div style=""display: flex; justify-content: center; align-items: center;"">
                     <img src=""images/causal/causal_series_8/causal_series_8_c.png"" style=""width: 300px; height: 300px;"" />
                   </div>","null","",""
"","","","","","html-button-response","72","393655","0.0-72.0","706AA03E11BE4E83B70BA6ED9F8AEA0D","0199d04c-2d74-7838-a5ff-dd1a13c59f69","0199d03a-64b5-7588-a054-13255d1a32c0","","1621","
        <div style=""display: flex; justify-content: center; align-items: center;"">
          <img src=""images/red_deck_2.png"" style=""width: 300px; height: 300px; margin-right: 10px;"" />
          <img src=""images/blue_deck_1.png"" style=""width: 300px; height: 300px;"" />
        </div>","1","1",""
"","","","","","html-keyboard-response","73","400657","0.0-73.0-1.0-0.0","706AA03E11BE4E83B70BA6ED9F8AEA0D","0199d04c-2d74-7838-a5ff-dd1a13c59f69","0199d03a-64b5-7588-a054-13255d1a32c0","","null","<div style=""display: flex; justify-content: center; align-items: center;"">
                     <img src=""images/semantic/semantic_series_8/semantic_series_8_d.png"" style=""width: 300px; height: 300px;"" />
                   </div>","null","",""
"","","","","","survey-likert","74","404605","0.0-74.0","706AA03E11BE4E83B70BA6ED9F8AEA0D","0199d04c-2d74-7838-a5ff-dd1a13c59f69","0199d03a-64b5-7588-a054-13255d1a32c0","","3946","","{""Q0"":4}","","[0]"
"","","","","","survey-likert","75","409663","0.0-75.0","706AA03E11BE4E83B70BA6ED9F8AEA0D","0199d04c-2d74-7838-a5ff-dd1a13c59f69","0199d03a-64b5-7588-a054-13255d1a32c0","","5057","","{""Q0"":2}","","[0]"
"","","","","","html-keyboard-response","76","416666","0.0-76.0","706AA03E11BE4E83B70BA6ED9F8AEA0D","0199d04c-2d74-7838-a5ff-dd1a13c59f69","0199d03a-64b5-7588-a054-13255d1a32c0","","null","<div style=""display: flex; justify-content: center; align-items: center;"">
                     <img src=""images/other/blank.png"" style=""width: 300px; height: 300px;"" />
                   </div>","null","",""
"","","","","","html-keyboard-response","77","423668","0.0-77.0","706AA03E11BE4E83B70BA6ED9F8AEA0D","0199d04c-2d74-7838-a5ff-dd1a13c59f69","0199d03a-64b5-7588-a054-13255d1a32c0","","null","<div style=""display: flex; justify-content: center; align-items: center;"">
                     <img src=""images/causal/causal_series_7/causal_series_7_a.png"" style=""width: 300px; height: 300px;"" />
                   </div>","null","",""
"","","","","","html-keyboard-response","78","430671","0.0-78.0","706AA03E11BE4E83B70BA6ED9F8AEA0D","0199d04c-2d74-7838-a5ff-dd1a13c59f69","0199d03a-64b5-7588-a054-13255d1a32c0","","null","<div style=""display: flex; justify-content: center; align-items: center;"">
                     <img src=""images/causal/causal_series_7/causal_series_7_b.png"" style=""width: 300px; height: 300px;"" />
                   </div>","null","",""
"","","","","","html-keyboard-response","79","437673","0.0-79.0","706AA03E11BE4E83B70BA6ED9F8AEA0D","0199d04c-2d74-7838-a5ff-dd1a13c59f69","0199d03a-64b5-7588-a054-13255d1a32c0","","null","<div style=""display: flex; justify-content: center; align-items: center;"">
                     <img src=""images/causal/causal_series_7/causal_series_7_c.png"" style=""width: 300px; height: 300px;"" />
                   </div>","null","",""
"","","","","","html-button-response","80","438388","0.0-80.0","706AA03E11BE4E83B70BA6ED9F8AEA0D","0199d04c-2d74-7838-a5ff-dd1a13c59f69","0199d03a-64b5-7588-a054-13255d1a32c0","","714","
        <div style=""display: flex; justify-content: center; align-items: center;"">
          <img src=""images/red_deck_2.png"" style=""width: 300px; height: 300px; margin-right: 10px;"" />
          <img src=""images/blue_deck_1.png"" style=""width: 300px; height: 300px;"" />
        </div>","0","0",""
"","","","","","html-keyboard-response","81","445391","0.0-81.0-0.0-0.0","706AA03E11BE4E83B70BA6ED9F8AEA0D","0199d04c-2d74-7838-a5ff-dd1a13c59f69","0199d03a-64b5-7588-a054-13255d1a32c0","","null","<div style=""display: flex; justify-content: center; align-items: center;"">
                     <img src=""images/causal/causal_series_7/causal_series_7_d.png"" style=""width: 300px; height: 300px;"" />
                   </div>","null","",""
"","","","","","survey-likert","82","454905","0.0-82.0","706AA03E11BE4E83B70BA6ED9F8AEA0D","0199d04c-2d74-7838-a5ff-dd1a13c59f69","0199d03a-64b5-7588-a054-13255d1a32c0","","9513","","{""Q0"":3}","","[0]"
"","","","","","survey-likert","83","462288","0.0-83.0","706AA03E11BE4E83B70BA6ED9F8AEA0D","0199d04c-2d74-7838-a5ff-dd1a13c59f69","0199d03a-64b5-7588-a054-13255d1a32c0","","7381","","{""Q0"":4}","","[0]"
"","","","","","html-keyboard-response","84","469291","0.0-84.0","706AA03E11BE4E83B70BA6ED9F8AEA0D","0199d04c-2d74-7838-a5ff-dd1a13c59f69","0199d03a-64b5-7588-a054-13255d1a32c0","","null","<div style=""display: flex; justify-content: center; align-items: center;"">
                     <img src=""images/other/blank.png"" style=""width: 300px; height: 300px;"" />
                   </div>","null","",""
"","","","","","survey-text","85","484616","0.0-85.0","706AA03E11BE4E83B70BA6ED9F8AEA0D","0199d04c-2d74-7838-a5ff-dd1a13c59f69","0199d03a-64b5-7588-a054-13255d1a32c0","","15322","","{""Q0"":""one was \""good\"" and the other was \""bad\""""}","",""
"","","","","","html-button-response","86","496421","0.0-86.0","706AA03E11BE4E83B70BA6ED9F8AEA0D","0199d04c-2d74-7838-a5ff-dd1a13c59f69","0199d03a-64b5-7588-a054-13255d1a32c0","","11804","Which color deck do the following images continue the story from?","0","",""
"","","","","","html-button-response","87","498138","0.0-87.0","706AA03E11BE4E83B70BA6ED9F8AEA0D","0199d04c-2d74-7838-a5ff-dd1a13c59f69","0199d03a-64b5-7588-a054-13255d1a32c0","","1715","Which color deck do the following images NOT follow the story from?","1","",""
"","","","","","html-button-response","88","503488","0.0-88.0","706AA03E11BE4E83B70BA6ED9F8AEA0D","0199d04c-2d74-7838-a5ff-dd1a13c59f69","0199d03a-64b5-7588-a054-13255d1a32c0","","5348","Which type of deck did you prefer overall?","1","",""
"","","","","","survey-text","89","509389","0.0-89.0","706AA03E11BE4E83B70BA6ED9F8AEA0D","0199d04c-2d74-7838-a5ff-dd1a13c59f69","0199d03a-64b5-7588-a054-13255d1a32c0","","5898","","{""Q0"":""female"",""Q1"":""19""}","",""
"","","","","","instructions","90","514772","0.0-90.0","706AA03E11BE4E83B70BA6ED9F8AEA0D","0199d04c-2d74-7838-a5ff-dd1a13c59f69","0199d03a-64b5-7588-a054-13255d1a32c0","[{""page_index"":0,""viewing_time"":5383}]","5383","","","",""
