"success","timeout","failed_images","failed_audio","failed_video","trial_type","trial_index","time_elapsed","internal_node_id","subject_id","study_id","session_id","view_history","rt","stimulus","response","choice"
"true","false","[]","[]","[]","preload","0","593","0.0-0.0","8CBEF3832F99441C89B7952F00421DC6","0921898b-0284-45a2-bae3-abb73d255ded","683bf07d-1a26-40b1-9cff-5abdc1eed0ee","","","","",""
"","","","","","instructions","1","6104","0.0-1.0","8CBEF3832F99441C89B7952F00421DC6","0921898b-0284-45a2-bae3-abb73d255ded","683bf07d-1a26-40b1-9cff-5abdc1eed0ee","[{""page_index"":0,""viewing_time"":5510}]","5511","","",""
"","","","","","instructions","2","11733","0.0-2.0","8CBEF3832F99441C89B7952F00421DC6","0921898b-0284-45a2-bae3-abb73d255ded","683bf07d-1a26-40b1-9cff-5abdc1eed0ee","[{""page_index"":0,""viewing_time"":5629}]","5629","","",""
"true","","","","","fullscreen","3","17429","0.0-3.0","8CBEF3832F99441C89B7952F00421DC6","0921898b-0284-45a2-bae3-abb73d255ded","683bf07d-1a26-40b1-9cff-5abdc1eed0ee","","4688","","",""
"","","","","","instructions","4","28127","0.0-4.0","8CBEF3832F99441C89B7952F00421DC6","0921898b-0284-45a2-bae3-abb73d255ded","683bf07d-1a26-40b1-9cff-5abdc1eed0ee","[{""page_index"":0,""viewing_time"":10698}]","10698","","",""
"","","","","","html-keyboard-response","5","31128","0.0-5.0","8CBEF3832F99441C89B7952F00421DC6","0921898b-0284-45a2-bae3-abb73d255ded","683bf07d-1a26-40b1-9cff-5abdc1eed0ee","","null","<div style=""display: flex; justify-content: center; align-items: center;"">
                <img src=""images/causal/causal_series_12/causal_series_12_a.jpg"" style=""width: 300px; height: 300px;"" />
              </div>","null",""
"","","","","","html-keyboard-response","6","34136","0.0-6.0","8CBEF3832F99441C89B7952F00421DC6","0921898b-0284-45a2-bae3-abb73d255ded","683bf07d-1a26-40b1-9cff-5abdc1eed0ee","","null","<div style=""display: flex; justify-content: center; align-items: center;"">
                <img src=""images/causal/causal_series_12/causal_series_12_b.jpg"" style=""width: 300px; height: 300px;"" />
              </div>","null",""
"","","","","","html-keyboard-response","7","37150","0.0-7.0","8CBEF3832F99441C89B7952F00421DC6","0921898b-0284-45a2-bae3-abb73d255ded","683bf07d-1a26-40b1-9cff-5abdc1eed0ee","","null","<div style=""display: flex; justify-content: center; align-items: center;"">
                <img src=""images/causal/causal_series_12/causal_series_12_c.jpg"" style=""width: 300px; height: 300px;"" />
              </div>","null",""
"","","","","","html-button-response","8","41669","0.0-8.0","8CBEF3832F99441C89B7952F00421DC6","0921898b-0284-45a2-bae3-abb73d255ded","683bf07d-1a26-40b1-9cff-5abdc1eed0ee","","4518","
    <div style=""display: flex; justify-content: center; align-items: center;"">
      <img src=""images/red_deck_2.png"" style=""width: 300px; height: 300px; margin-right: 10px;"" />
      <img src=""images/blue_deck_1.png"" style=""width: 300px; height: 300px;"" />
    </div>","0","0"
"","","","","","html-keyboard-response","9","44673","0.0-9.0-0.0-0.0","8CBEF3832F99441C89B7952F00421DC6","0921898b-0284-45a2-bae3-abb73d255ded","683bf07d-1a26-40b1-9cff-5abdc1eed0ee","","null","<div style=""display: flex; justify-content: center; align-items: center;"">
                <img src=""images/causal/causal_series_12/causal_series_12_d.jpg"" style=""width: 300px; height: 300px;"" />
              </div>","null",""
"","","","","","html-keyboard-response","10","47684","0.0-10.0","8CBEF3832F99441C89B7952F00421DC6","0921898b-0284-45a2-bae3-abb73d255ded","683bf07d-1a26-40b1-9cff-5abdc1eed0ee","","null","<div style=""display: flex; justify-content: center; align-items: center;"">
                <img src=""images/other/blank.jpg"" style=""width: 300px; height: 300px;"" />
              </div>","null",""
"","","","","","html-keyboard-response","11","50694","0.0-11.0","8CBEF3832F99441C89B7952F00421DC6","0921898b-0284-45a2-bae3-abb73d255ded","683bf07d-1a26-40b1-9cff-5abdc1eed0ee","","null","<div style=""display: flex; justify-content: center; align-items: center;"">
                <img src=""images/causal/causal_series_3/causal_series_3_a.jpg"" style=""width: 300px; height: 300px;"" />
              </div>","null",""
"","","","","","html-keyboard-response","12","53698","0.0-12.0","8CBEF3832F99441C89B7952F00421DC6","0921898b-0284-45a2-bae3-abb73d255ded","683bf07d-1a26-40b1-9cff-5abdc1eed0ee","","null","<div style=""display: flex; justify-content: center; align-items: center;"">
                <img src=""images/causal/causal_series_3/causal_series_3_b.jpg"" style=""width: 300px; height: 300px;"" />
              </div>","null",""
"","","","","","html-keyboard-response","13","56699","0.0-13.0","8CBEF3832F99441C89B7952F00421DC6","0921898b-0284-45a2-bae3-abb73d255ded","683bf07d-1a26-40b1-9cff-5abdc1eed0ee","","null","<div style=""display: flex; justify-content: center; align-items: center;"">
                <img src=""images/causal/causal_series_3/causal_series_3_c.jpg"" style=""width: 300px; height: 300px;"" />
              </div>","null",""
"","","","","","html-button-response","14","58450","0.0-14.0","8CBEF3832F99441C89B7952F00421DC6","0921898b-0284-45a2-bae3-abb73d255ded","683bf07d-1a26-40b1-9cff-5abdc1eed0ee","","1750","
    <div style=""display: flex; justify-content: center; align-items: center;"">
      <img src=""images/red_deck_2.png"" style=""width: 300px; height: 300px; margin-right: 10px;"" />
      <img src=""images/blue_deck_1.png"" style=""width: 300px; height: 300px;"" />
    </div>","1","1"
"","","","","","html-keyboard-response","15","61453","0.0-15.0-1.0-0.0","8CBEF3832F99441C89B7952F00421DC6","0921898b-0284-45a2-bae3-abb73d255ded","683bf07d-1a26-40b1-9cff-5abdc1eed0ee","","null","<div style=""display: flex; justify-content: center; align-items: center;"">
                <img src=""images/semantic/semantic_series_2/semantic_series_2_d.jpg"" style=""width: 300px; height: 300px;"" />
              </div>","null",""
"","","","","","html-keyboard-response","16","64456","0.0-16.0","8CBEF3832F99441C89B7952F00421DC6","0921898b-0284-45a2-bae3-abb73d255ded","683bf07d-1a26-40b1-9cff-5abdc1eed0ee","","null","<div style=""display: flex; justify-content: center; align-items: center;"">
                <img src=""images/other/blank.jpg"" style=""width: 300px; height: 300px;"" />
              </div>","null",""
"","","","","","html-keyboard-response","17","67468","0.0-17.0","8CBEF3832F99441C89B7952F00421DC6","0921898b-0284-45a2-bae3-abb73d255ded","683bf07d-1a26-40b1-9cff-5abdc1eed0ee","","null","<div style=""display: flex; justify-content: center; align-items: center;"">
                <img src=""images/causal/causal_series_13/causal_series_13_a.jpg"" style=""width: 300px; height: 300px;"" />
              </div>","null",""
"","","","","","html-keyboard-response","18","70479","0.0-18.0","8CBEF3832F99441C89B7952F00421DC6","0921898b-0284-45a2-bae3-abb73d255ded","683bf07d-1a26-40b1-9cff-5abdc1eed0ee","","null","<div style=""display: flex; justify-content: center; align-items: center;"">
                <img src=""images/causal/causal_series_13/causal_series_13_b.jpg"" style=""width: 300px; height: 300px;"" />
              </div>","null",""
"","","","","","html-keyboard-response","19","73486","0.0-19.0","8CBEF3832F99441C89B7952F00421DC6","0921898b-0284-45a2-bae3-abb73d255ded","683bf07d-1a26-40b1-9cff-5abdc1eed0ee","","null","<div style=""display: flex; justify-content: center; align-items: center;"">
                <img src=""images/causal/causal_series_13/causal_series_13_c.jpg"" style=""width: 300px; height: 300px;"" />
              </div>","null",""
"","","","","","html-button-response","20","74520","0.0-20.0","8CBEF3832F99441C89B7952F00421DC6","0921898b-0284-45a2-bae3-abb73d255ded","683bf07d-1a26-40b1-9cff-5abdc1eed0ee","","1033","
    <div style=""display: flex; justify-content: center; align-items: center;"">
      <img src=""images/red_deck_2.png"" style=""width: 300px; height: 300px; margin-right: 10px;"" />
      <img src=""images/blue_deck_1.png"" style=""width: 300px; height: 300px;"" />
    </div>","0","0"
"","","","","","html-keyboard-response","21","77535","0.0-21.0-0.0-0.0","8CBEF3832F99441C89B7952F00421DC6","0921898b-0284-45a2-bae3-abb73d255ded","683bf07d-1a26-40b1-9cff-5abdc1eed0ee","","null","<div style=""display: flex; justify-content: center; align-items: center;"">
                <img src=""images/causal/causal_series_13/causal_series_13_d.jpg"" style=""width: 300px; height: 300px;"" />
              </div>","null",""
"","","","","","html-keyboard-response","22","80545","0.0-22.0","8CBEF3832F99441C89B7952F00421DC6","0921898b-0284-45a2-bae3-abb73d255ded","683bf07d-1a26-40b1-9cff-5abdc1eed0ee","","null","<div style=""display: flex; justify-content: center; align-items: center;"">
                <img src=""images/other/blank.jpg"" style=""width: 300px; height: 300px;"" />
              </div>","null",""
"","","","","","html-keyboard-response","23","83554","0.0-23.0","8CBEF3832F99441C89B7952F00421DC6","0921898b-0284-45a2-bae3-abb73d255ded","683bf07d-1a26-40b1-9cff-5abdc1eed0ee","","null","<div style=""display: flex; justify-content: center; align-items: center;"">
                <img src=""images/causal/causal_series_8/causal_series_8_a.jpg"" style=""width: 300px; height: 300px;"" />
              </div>","null",""
"","","","","","html-keyboard-response","24","86560","0.0-24.0","8CBEF3832F99441C89B7952F00421DC6","0921898b-0284-45a2-bae3-abb73d255ded","683bf07d-1a26-40b1-9cff-5abdc1eed0ee","","null","<div style=""display: flex; justify-content: center; align-items: center;"">
                <img src=""images/causal/causal_series_8/causal_series_8_b.jpg"" style=""width: 300px; height: 300px;"" />
              </div>","null",""
"","","","","","html-keyboard-response","25","89562","0.0-25.0","8CBEF3832F99441C89B7952F00421DC6","0921898b-0284-45a2-bae3-abb73d255ded","683bf07d-1a26-40b1-9cff-5abdc1eed0ee","","null","<div style=""display: flex; justify-content: center; align-items: center;"">
                <img src=""images/causal/causal_series_8/causal_series_8_c.jpg"" style=""width: 300px; height: 300px;"" />
              </div>","null",""
"","","","","","html-button-response","26","93069","0.0-26.0","8CBEF3832F99441C89B7952F00421DC6","0921898b-0284-45a2-bae3-abb73d255ded","683bf07d-1a26-40b1-9cff-5abdc1eed0ee","","3506","
    <div style=""display: flex; justify-content: center; align-items: center;"">
      <img src=""images/red_deck_2.png"" style=""width: 300px; height: 300px; margin-right: 10px;"" />
      <img src=""images/blue_deck_1.png"" style=""width: 300px; height: 300px;"" />
    </div>","0","0"
"","","","","","html-keyboard-response","27","96082","0.0-27.0-0.0-0.0","8CBEF3832F99441C89B7952F00421DC6","0921898b-0284-45a2-bae3-abb73d255ded","683bf07d-1a26-40b1-9cff-5abdc1eed0ee","","null","<div style=""display: flex; justify-content: center; align-items: center;"">
                <img src=""images/causal/causal_series_8/causal_series_8_d.jpg"" style=""width: 300px; height: 300px;"" />
              </div>","null",""
"","","","","","html-keyboard-response","28","99084","0.0-28.0","8CBEF3832F99441C89B7952F00421DC6","0921898b-0284-45a2-bae3-abb73d255ded","683bf07d-1a26-40b1-9cff-5abdc1eed0ee","","null","<div style=""display: flex; justify-content: center; align-items: center;"">
                <img src=""images/other/blank.jpg"" style=""width: 300px; height: 300px;"" />
              </div>","null",""
"","","","","","html-keyboard-response","29","102085","0.0-29.0","8CBEF3832F99441C89B7952F00421DC6","0921898b-0284-45a2-bae3-abb73d255ded","683bf07d-1a26-40b1-9cff-5abdc1eed0ee","","null","<div style=""display: flex; justify-content: center; align-items: center;"">
                <img src=""images/causal/causal_series_9/causal_series_9_a.jpg"" style=""width: 300px; height: 300px;"" />
              </div>","null",""
"","","","","","html-keyboard-response","30","105087","0.0-30.0","8CBEF3832F99441C89B7952F00421DC6","0921898b-0284-45a2-bae3-abb73d255ded","683bf07d-1a26-40b1-9cff-5abdc1eed0ee","","null","<div style=""display: flex; justify-content: center; align-items: center;"">
                <img src=""images/causal/causal_series_9/causal_series_9_b.jpg"" style=""width: 300px; height: 300px;"" />
              </div>","null",""
"","","","","","html-keyboard-response","31","108097","0.0-31.0","8CBEF3832F99441C89B7952F00421DC6","0921898b-0284-45a2-bae3-abb73d255ded","683bf07d-1a26-40b1-9cff-5abdc1eed0ee","","null","<div style=""display: flex; justify-content: center; align-items: center;"">
                <img src=""images/causal/causal_series_9/causal_series_9_c.jpg"" style=""width: 300px; height: 300px;"" />
              </div>","null",""
"","","","","","html-button-response","32","108869","0.0-32.0","8CBEF3832F99441C89B7952F00421DC6","0921898b-0284-45a2-bae3-abb73d255ded","683bf07d-1a26-40b1-9cff-5abdc1eed0ee","","771","
    <div style=""display: flex; justify-content: center; align-items: center;"">
      <img src=""images/red_deck_2.png"" style=""width: 300px; height: 300px; margin-right: 10px;"" />
      <img src=""images/blue_deck_1.png"" style=""width: 300px; height: 300px;"" />
    </div>","1","1"
"","","","","","html-keyboard-response","33","111882","0.0-33.0-1.0-0.0","8CBEF3832F99441C89B7952F00421DC6","0921898b-0284-45a2-bae3-abb73d255ded","683bf07d-1a26-40b1-9cff-5abdc1eed0ee","","null","<div style=""display: flex; justify-content: center; align-items: center;"">
                <img src=""images/semantic/semantic_series_8/semantic_series_8_d.jpg"" style=""width: 300px; height: 300px;"" />
              </div>","null",""
"","","","","","html-keyboard-response","34","114889","0.0-34.0","8CBEF3832F99441C89B7952F00421DC6","0921898b-0284-45a2-bae3-abb73d255ded","683bf07d-1a26-40b1-9cff-5abdc1eed0ee","","null","<div style=""display: flex; justify-content: center; align-items: center;"">
                <img src=""images/other/blank.jpg"" style=""width: 300px; height: 300px;"" />
              </div>","null",""
"","","","","","html-keyboard-response","35","117904","0.0-35.0","8CBEF3832F99441C89B7952F00421DC6","0921898b-0284-45a2-bae3-abb73d255ded","683bf07d-1a26-40b1-9cff-5abdc1eed0ee","","null","<div style=""display: flex; justify-content: center; align-items: center;"">
                <img src=""images/causal/causal_series_1/causal_series_1_a.jpg"" style=""width: 300px; height: 300px;"" />
              </div>","null",""
"","","","","","html-keyboard-response","36","120907","0.0-36.0","8CBEF3832F99441C89B7952F00421DC6","0921898b-0284-45a2-bae3-abb73d255ded","683bf07d-1a26-40b1-9cff-5abdc1eed0ee","","null","<div style=""display: flex; justify-content: center; align-items: center;"">
                <img src=""images/causal/causal_series_1/causal_series_1_b.jpg"" style=""width: 300px; height: 300px;"" />
              </div>","null",""
"","","","","","html-keyboard-response","37","123917","0.0-37.0","8CBEF3832F99441C89B7952F00421DC6","0921898b-0284-45a2-bae3-abb73d255ded","683bf07d-1a26-40b1-9cff-5abdc1eed0ee","","null","<div style=""display: flex; justify-content: center; align-items: center;"">
                <img src=""images/causal/causal_series_1/causal_series_1_c.jpg"" style=""width: 300px; height: 300px;"" />
              </div>","null",""
"","","","","","html-button-response","38","124842","0.0-38.0","8CBEF3832F99441C89B7952F00421DC6","0921898b-0284-45a2-bae3-abb73d255ded","683bf07d-1a26-40b1-9cff-5abdc1eed0ee","","924","
    <div style=""display: flex; justify-content: center; align-items: center;"">
      <img src=""images/red_deck_2.png"" style=""width: 300px; height: 300px; margin-right: 10px;"" />
      <img src=""images/blue_deck_1.png"" style=""width: 300px; height: 300px;"" />
    </div>","0","0"
"","","","","","html-keyboard-response","39","127856","0.0-39.0-0.0-0.0","8CBEF3832F99441C89B7952F00421DC6","0921898b-0284-45a2-bae3-abb73d255ded","683bf07d-1a26-40b1-9cff-5abdc1eed0ee","","null","<div style=""display: flex; justify-content: center; align-items: center;"">
                <img src=""images/causal/causal_series_1/causal_series_1_d.jpg"" style=""width: 300px; height: 300px;"" />
              </div>","null",""
"","","","","","html-keyboard-response","40","130870","0.0-40.0","8CBEF3832F99441C89B7952F00421DC6","0921898b-0284-45a2-bae3-abb73d255ded","683bf07d-1a26-40b1-9cff-5abdc1eed0ee","","null","<div style=""display: flex; justify-content: center; align-items: center;"">
                <img src=""images/other/blank.jpg"" style=""width: 300px; height: 300px;"" />
              </div>","null",""
"","","","","","html-keyboard-response","41","133874","0.0-41.0","8CBEF3832F99441C89B7952F00421DC6","0921898b-0284-45a2-bae3-abb73d255ded","683bf07d-1a26-40b1-9cff-5abdc1eed0ee","","null","<div style=""display: flex; justify-content: center; align-items: center;"">
                <img src=""images/causal/causal_series_14/causal_series_14_a.jpg"" style=""width: 300px; height: 300px;"" />
              </div>","null",""
"","","","","","html-keyboard-response","42","136877","0.0-42.0","8CBEF3832F99441C89B7952F00421DC6","0921898b-0284-45a2-bae3-abb73d255ded","683bf07d-1a26-40b1-9cff-5abdc1eed0ee","","null","<div style=""display: flex; justify-content: center; align-items: center;"">
                <img src=""images/causal/causal_series_14/causal_series_14_b.jpg"" style=""width: 300px; height: 300px;"" />
              </div>","null",""
"","","","","","html-keyboard-response","43","139878","0.0-43.0","8CBEF3832F99441C89B7952F00421DC6","0921898b-0284-45a2-bae3-abb73d255ded","683bf07d-1a26-40b1-9cff-5abdc1eed0ee","","null","<div style=""display: flex; justify-content: center; align-items: center;"">
                <img src=""images/causal/causal_series_14/causal_series_14_c.jpg"" style=""width: 300px; height: 300px;"" />
              </div>","null",""
"","","","","","html-button-response","44","143606","0.0-44.0","8CBEF3832F99441C89B7952F00421DC6","0921898b-0284-45a2-bae3-abb73d255ded","683bf07d-1a26-40b1-9cff-5abdc1eed0ee","","3727","
    <div style=""display: flex; justify-content: center; align-items: center;"">
      <img src=""images/red_deck_2.png"" style=""width: 300px; height: 300px; margin-right: 10px;"" />
      <img src=""images/blue_deck_1.png"" style=""width: 300px; height: 300px;"" />
    </div>","1","1"
"","","","","","html-keyboard-response","45","146617","0.0-45.0-1.0-0.0","8CBEF3832F99441C89B7952F00421DC6","0921898b-0284-45a2-bae3-abb73d255ded","683bf07d-1a26-40b1-9cff-5abdc1eed0ee","","null","<div style=""display: flex; justify-content: center; align-items: center;"">
                <img src=""images/semantic/semantic_series_13/semantic_series_13_d.jpg"" style=""width: 300px; height: 300px;"" />
              </div>","null",""
"","","","","","html-keyboard-response","46","149628","0.0-46.0","8CBEF3832F99441C89B7952F00421DC6","0921898b-0284-45a2-bae3-abb73d255ded","683bf07d-1a26-40b1-9cff-5abdc1eed0ee","","null","<div style=""display: flex; justify-content: center; align-items: center;"">
                <img src=""images/other/blank.jpg"" style=""width: 300px; height: 300px;"" />
              </div>","null",""
"","","","","","html-keyboard-response","47","152629","0.0-47.0","8CBEF3832F99441C89B7952F00421DC6","0921898b-0284-45a2-bae3-abb73d255ded","683bf07d-1a26-40b1-9cff-5abdc1eed0ee","","null","<div style=""display: flex; justify-content: center; align-items: center;"">
                <img src=""images/causal/causal_series_18/causal_series_18_a.jpg"" style=""width: 300px; height: 300px;"" />
              </div>","null",""
"","","","","","html-keyboard-response","48","155645","0.0-48.0","8CBEF3832F99441C89B7952F00421DC6","0921898b-0284-45a2-bae3-abb73d255ded","683bf07d-1a26-40b1-9cff-5abdc1eed0ee","","null","<div style=""display: flex; justify-content: center; align-items: center;"">
                <img src=""images/causal/causal_series_18/causal_series_18_b.jpg"" style=""width: 300px; height: 300px;"" />
              </div>","null",""
"","","","","","html-keyboard-response","49","158650","0.0-49.0","8CBEF3832F99441C89B7952F00421DC6","0921898b-0284-45a2-bae3-abb73d255ded","683bf07d-1a26-40b1-9cff-5abdc1eed0ee","","null","<div style=""display: flex; justify-content: center; align-items: center;"">
                <img src=""images/causal/causal_series_18/causal_series_18_c.jpg"" style=""width: 300px; height: 300px;"" />
              </div>","null",""
"","","","","","html-button-response","50","160031","0.0-50.0","8CBEF3832F99441C89B7952F00421DC6","0921898b-0284-45a2-bae3-abb73d255ded","683bf07d-1a26-40b1-9cff-5abdc1eed0ee","","1381","
    <div style=""display: flex; justify-content: center; align-items: center;"">
      <img src=""images/red_deck_2.png"" style=""width: 300px; height: 300px; margin-right: 10px;"" />
      <img src=""images/blue_deck_1.png"" style=""width: 300px; height: 300px;"" />
    </div>","0","0"
"","","","","","html-keyboard-response","51","163035","0.0-51.0-0.0-0.0","8CBEF3832F99441C89B7952F00421DC6","0921898b-0284-45a2-bae3-abb73d255ded","683bf07d-1a26-40b1-9cff-5abdc1eed0ee","","null","<div style=""display: flex; justify-content: center; align-items: center;"">
                <img src=""images/causal/causal_series_18/causal_series_18_d.jpg"" style=""width: 300px; height: 300px;"" />
              </div>","null",""
"","","","","","html-keyboard-response","52","166044","0.0-52.0","8CBEF3832F99441C89B7952F00421DC6","0921898b-0284-45a2-bae3-abb73d255ded","683bf07d-1a26-40b1-9cff-5abdc1eed0ee","","null","<div style=""display: flex; justify-content: center; align-items: center;"">
                <img src=""images/other/blank.jpg"" style=""width: 300px; height: 300px;"" />
              </div>","null",""
"","","","","","html-keyboard-response","53","169052","0.0-53.0","8CBEF3832F99441C89B7952F00421DC6","0921898b-0284-45a2-bae3-abb73d255ded","683bf07d-1a26-40b1-9cff-5abdc1eed0ee","","null","<div style=""display: flex; justify-content: center; align-items: center;"">
                <img src=""images/causal/causal_series_4/causal_series_4_a.jpg"" style=""width: 300px; height: 300px;"" />
              </div>","null",""
"","","","","","html-keyboard-response","54","172067","0.0-54.0","8CBEF3832F99441C89B7952F00421DC6","0921898b-0284-45a2-bae3-abb73d255ded","683bf07d-1a26-40b1-9cff-5abdc1eed0ee","","null","<div style=""display: flex; justify-content: center; align-items: center;"">
                <img src=""images/causal/causal_series_4/causal_series_4_b.jpg"" style=""width: 300px; height: 300px;"" />
              </div>","null",""
"","","","","","html-keyboard-response","55","175072","0.0-55.0","8CBEF3832F99441C89B7952F00421DC6","0921898b-0284-45a2-bae3-abb73d255ded","683bf07d-1a26-40b1-9cff-5abdc1eed0ee","","null","<div style=""display: flex; justify-content: center; align-items: center;"">
                <img src=""images/causal/causal_series_4/causal_series_4_c.jpg"" style=""width: 300px; height: 300px;"" />
              </div>","null",""
"","","","","","html-button-response","56","175517","0.0-56.0","8CBEF3832F99441C89B7952F00421DC6","0921898b-0284-45a2-bae3-abb73d255ded","683bf07d-1a26-40b1-9cff-5abdc1eed0ee","","444","
    <div style=""display: flex; justify-content: center; align-items: center;"">
      <img src=""images/red_deck_2.png"" style=""width: 300px; height: 300px; margin-right: 10px;"" />
      <img src=""images/blue_deck_1.png"" style=""width: 300px; height: 300px;"" />
    </div>","0","0"
"","","","","","html-keyboard-response","57","178520","0.0-57.0-0.0-0.0","8CBEF3832F99441C89B7952F00421DC6","0921898b-0284-45a2-bae3-abb73d255ded","683bf07d-1a26-40b1-9cff-5abdc1eed0ee","","null","<div style=""display: flex; justify-content: center; align-items: center;"">
                <img src=""images/causal/causal_series_4/causal_series_4_d.jpg"" style=""width: 300px; height: 300px;"" />
              </div>","null",""
"","","","","","html-keyboard-response","58","181530","0.0-58.0","8CBEF3832F99441C89B7952F00421DC6","0921898b-0284-45a2-bae3-abb73d255ded","683bf07d-1a26-40b1-9cff-5abdc1eed0ee","","null","<div style=""display: flex; justify-content: center; align-items: center;"">
                <img src=""images/other/blank.jpg"" style=""width: 300px; height: 300px;"" />
              </div>","null",""
"","","","","","html-keyboard-response","59","184546","0.0-59.0","8CBEF3832F99441C89B7952F00421DC6","0921898b-0284-45a2-bae3-abb73d255ded","683bf07d-1a26-40b1-9cff-5abdc1eed0ee","","null","<div style=""display: flex; justify-content: center; align-items: center;"">
                <img src=""images/causal/causal_series_6/causal_series_6_a.jpg"" style=""width: 300px; height: 300px;"" />
              </div>","null",""
"","","","","","html-keyboard-response","60","187554","0.0-60.0","8CBEF3832F99441C89B7952F00421DC6","0921898b-0284-45a2-bae3-abb73d255ded","683bf07d-1a26-40b1-9cff-5abdc1eed0ee","","null","<div style=""display: flex; justify-content: center; align-items: center;"">
                <img src=""images/causal/causal_series_6/causal_series_6_b.jpg"" style=""width: 300px; height: 300px;"" />
              </div>","null",""
"","","","","","html-keyboard-response","61","190565","0.0-61.0","8CBEF3832F99441C89B7952F00421DC6","0921898b-0284-45a2-bae3-abb73d255ded","683bf07d-1a26-40b1-9cff-5abdc1eed0ee","","null","<div style=""display: flex; justify-content: center; align-items: center;"">
                <img src=""images/causal/causal_series_6/causal_series_6_c.jpg"" style=""width: 300px; height: 300px;"" />
              </div>","null",""
"","","","","","html-button-response","62","191567","0.0-62.0","8CBEF3832F99441C89B7952F00421DC6","0921898b-0284-45a2-bae3-abb73d255ded","683bf07d-1a26-40b1-9cff-5abdc1eed0ee","","1002","
    <div style=""display: flex; justify-content: center; align-items: center;"">
      <img src=""images/red_deck_2.png"" style=""width: 300px; height: 300px; margin-right: 10px;"" />
      <img src=""images/blue_deck_1.png"" style=""width: 300px; height: 300px;"" />
    </div>","0","0"
"","","","","","html-keyboard-response","63","194576","0.0-63.0-0.0-0.0","8CBEF3832F99441C89B7952F00421DC6","0921898b-0284-45a2-bae3-abb73d255ded","683bf07d-1a26-40b1-9cff-5abdc1eed0ee","","null","<div style=""display: flex; justify-content: center; align-items: center;"">
                <img src=""images/causal/causal_series_6/causal_series_6_d.jpg"" style=""width: 300px; height: 300px;"" />
              </div>","null",""
"","","","","","html-keyboard-response","64","197580","0.0-64.0","8CBEF3832F99441C89B7952F00421DC6","0921898b-0284-45a2-bae3-abb73d255ded","683bf07d-1a26-40b1-9cff-5abdc1eed0ee","","null","<div style=""display: flex; justify-content: center; align-items: center;"">
                <img src=""images/other/blank.jpg"" style=""width: 300px; height: 300px;"" />
              </div>","null",""
"","","","","","html-keyboard-response","65","200584","0.0-65.0","8CBEF3832F99441C89B7952F00421DC6","0921898b-0284-45a2-bae3-abb73d255ded","683bf07d-1a26-40b1-9cff-5abdc1eed0ee","","null","<div style=""display: flex; justify-content: center; align-items: center;"">
                <img src=""images/causal/causal_series_11/causal_series_11_a.jpg"" style=""width: 300px; height: 300px;"" />
              </div>","null",""
"","","","","","html-keyboard-response","66","203593","0.0-66.0","8CBEF3832F99441C89B7952F00421DC6","0921898b-0284-45a2-bae3-abb73d255ded","683bf07d-1a26-40b1-9cff-5abdc1eed0ee","","null","<div style=""display: flex; justify-content: center; align-items: center;"">
                <img src=""images/causal/causal_series_11/causal_series_11_b.jpg"" style=""width: 300px; height: 300px;"" />
              </div>","null",""
"","","","","","html-keyboard-response","67","206596","0.0-67.0","8CBEF3832F99441C89B7952F00421DC6","0921898b-0284-45a2-bae3-abb73d255ded","683bf07d-1a26-40b1-9cff-5abdc1eed0ee","","null","<div style=""display: flex; justify-content: center; align-items: center;"">
                <img src=""images/causal/causal_series_11/causal_series_11_c.jpg"" style=""width: 300px; height: 300px;"" />
              </div>","null",""
"","","","","","html-button-response","68","207247","0.0-68.0","8CBEF3832F99441C89B7952F00421DC6","0921898b-0284-45a2-bae3-abb73d255ded","683bf07d-1a26-40b1-9cff-5abdc1eed0ee","","651","
    <div style=""display: flex; justify-content: center; align-items: center;"">
      <img src=""images/red_deck_2.png"" style=""width: 300px; height: 300px; margin-right: 10px;"" />
      <img src=""images/blue_deck_1.png"" style=""width: 300px; height: 300px;"" />
    </div>","0","0"
"","","","","","html-keyboard-response","69","210250","0.0-69.0-0.0-0.0","8CBEF3832F99441C89B7952F00421DC6","0921898b-0284-45a2-bae3-abb73d255ded","683bf07d-1a26-40b1-9cff-5abdc1eed0ee","","null","<div style=""display: flex; justify-content: center; align-items: center;"">
                <img src=""images/causal/causal_series_11/causal_series_11_d.jpg"" style=""width: 300px; height: 300px;"" />
              </div>","null",""
"","","","","","html-keyboard-response","70","213258","0.0-70.0","8CBEF3832F99441C89B7952F00421DC6","0921898b-0284-45a2-bae3-abb73d255ded","683bf07d-1a26-40b1-9cff-5abdc1eed0ee","","null","<div style=""display: flex; justify-content: center; align-items: center;"">
                <img src=""images/other/blank.jpg"" style=""width: 300px; height: 300px;"" />
              </div>","null",""
"","","","","","html-keyboard-response","71","216263","0.0-71.0","8CBEF3832F99441C89B7952F00421DC6","0921898b-0284-45a2-bae3-abb73d255ded","683bf07d-1a26-40b1-9cff-5abdc1eed0ee","","null","<div style=""display: flex; justify-content: center; align-items: center;"">
                <img src=""images/causal/causal_series_10/causal_series_10_a.jpg"" style=""width: 300px; height: 300px;"" />
              </div>","null",""
"","","","","","html-keyboard-response","72","219265","0.0-72.0","8CBEF3832F99441C89B7952F00421DC6","0921898b-0284-45a2-bae3-abb73d255ded","683bf07d-1a26-40b1-9cff-5abdc1eed0ee","","null","<div style=""display: flex; justify-content: center; align-items: center;"">
                <img src=""images/causal/causal_series_10/causal_series_10_b.jpg"" style=""width: 300px; height: 300px;"" />
              </div>","null",""
"","","","","","html-keyboard-response","73","222273","0.0-73.0","8CBEF3832F99441C89B7952F00421DC6","0921898b-0284-45a2-bae3-abb73d255ded","683bf07d-1a26-40b1-9cff-5abdc1eed0ee","","null","<div style=""display: flex; justify-content: center; align-items: center;"">
                <img src=""images/causal/causal_series_10/causal_series_10_c.jpg"" style=""width: 300px; height: 300px;"" />
              </div>","null",""
"","","","","","html-button-response","74","223143","0.0-74.0","8CBEF3832F99441C89B7952F00421DC6","0921898b-0284-45a2-bae3-abb73d255ded","683bf07d-1a26-40b1-9cff-5abdc1eed0ee","","870","
    <div style=""display: flex; justify-content: center; align-items: center;"">
      <img src=""images/red_deck_2.png"" style=""width: 300px; height: 300px; margin-right: 10px;"" />
      <img src=""images/blue_deck_1.png"" style=""width: 300px; height: 300px;"" />
    </div>","0","0"
"","","","","","html-keyboard-response","75","226145","0.0-75.0-0.0-0.0","8CBEF3832F99441C89B7952F00421DC6","0921898b-0284-45a2-bae3-abb73d255ded","683bf07d-1a26-40b1-9cff-5abdc1eed0ee","","null","<div style=""display: flex; justify-content: center; align-items: center;"">
                <img src=""images/causal/causal_series_10/causal_series_10_d.jpg"" style=""width: 300px; height: 300px;"" />
              </div>","null",""
"","","","","","html-keyboard-response","76","229152","0.0-76.0","8CBEF3832F99441C89B7952F00421DC6","0921898b-0284-45a2-bae3-abb73d255ded","683bf07d-1a26-40b1-9cff-5abdc1eed0ee","","null","<div style=""display: flex; justify-content: center; align-items: center;"">
                <img src=""images/other/blank.jpg"" style=""width: 300px; height: 300px;"" />
              </div>","null",""
"","","","","","html-keyboard-response","77","232163","0.0-77.0","8CBEF3832F99441C89B7952F00421DC6","0921898b-0284-45a2-bae3-abb73d255ded","683bf07d-1a26-40b1-9cff-5abdc1eed0ee","","null","<div style=""display: flex; justify-content: center; align-items: center;"">
                <img src=""images/causal/causal_series_5/causal_series_5_a.jpg"" style=""width: 300px; height: 300px;"" />
              </div>","null",""
"","","","","","html-keyboard-response","78","235164","0.0-78.0","8CBEF3832F99441C89B7952F00421DC6","0921898b-0284-45a2-bae3-abb73d255ded","683bf07d-1a26-40b1-9cff-5abdc1eed0ee","","null","<div style=""display: flex; justify-content: center; align-items: center;"">
                <img src=""images/causal/causal_series_5/causal_series_5_b.jpg"" style=""width: 300px; height: 300px;"" />
              </div>","null",""
"","","","","","html-keyboard-response","79","238169","0.0-79.0","8CBEF3832F99441C89B7952F00421DC6","0921898b-0284-45a2-bae3-abb73d255ded","683bf07d-1a26-40b1-9cff-5abdc1eed0ee","","null","<div style=""display: flex; justify-content: center; align-items: center;"">
                <img src=""images/causal/causal_series_5/causal_series_5_c.jpg"" style=""width: 300px; height: 300px;"" />
              </div>","null",""
"","","","","","html-button-response","80","239121","0.0-80.0","8CBEF3832F99441C89B7952F00421DC6","0921898b-0284-45a2-bae3-abb73d255ded","683bf07d-1a26-40b1-9cff-5abdc1eed0ee","","952","
    <div style=""display: flex; justify-content: center; align-items: center;"">
      <img src=""images/red_deck_2.png"" style=""width: 300px; height: 300px; margin-right: 10px;"" />
      <img src=""images/blue_deck_1.png"" style=""width: 300px; height: 300px;"" />
    </div>","0","0"
"","","","","","html-keyboard-response","81","242134","0.0-81.0-0.0-0.0","8CBEF3832F99441C89B7952F00421DC6","0921898b-0284-45a2-bae3-abb73d255ded","683bf07d-1a26-40b1-9cff-5abdc1eed0ee","","null","<div style=""display: flex; justify-content: center; align-items: center;"">
                <img src=""images/causal/causal_series_5/causal_series_5_d.jpg"" style=""width: 300px; height: 300px;"" />
              </div>","null",""
"","","","","","html-keyboard-response","82","245140","0.0-82.0","8CBEF3832F99441C89B7952F00421DC6","0921898b-0284-45a2-bae3-abb73d255ded","683bf07d-1a26-40b1-9cff-5abdc1eed0ee","","null","<div style=""display: flex; justify-content: center; align-items: center;"">
                <img src=""images/other/blank.jpg"" style=""width: 300px; height: 300px;"" />
              </div>","null",""
"","","","","","html-keyboard-response","83","248153","0.0-83.0","8CBEF3832F99441C89B7952F00421DC6","0921898b-0284-45a2-bae3-abb73d255ded","683bf07d-1a26-40b1-9cff-5abdc1eed0ee","","null","<div style=""display: flex; justify-content: center; align-items: center;"">
                <img src=""images/causal/causal_series_15/causal_series_15_a.jpg"" style=""width: 300px; height: 300px;"" />
              </div>","null",""
"","","","","","html-keyboard-response","84","251168","0.0-84.0","8CBEF3832F99441C89B7952F00421DC6","0921898b-0284-45a2-bae3-abb73d255ded","683bf07d-1a26-40b1-9cff-5abdc1eed0ee","","null","<div style=""display: flex; justify-content: center; align-items: center;"">
                <img src=""images/causal/causal_series_15/causal_series_15_b.jpg"" style=""width: 300px; height: 300px;"" />
              </div>","null",""
"","","","","","html-keyboard-response","85","254180","0.0-85.0","8CBEF3832F99441C89B7952F00421DC6","0921898b-0284-45a2-bae3-abb73d255ded","683bf07d-1a26-40b1-9cff-5abdc1eed0ee","","null","<div style=""display: flex; justify-content: center; align-items: center;"">
                <img src=""images/causal/causal_series_15/causal_series_15_c.jpg"" style=""width: 300px; height: 300px;"" />
              </div>","null",""
"","","","","","html-button-response","86","254813","0.0-86.0","8CBEF3832F99441C89B7952F00421DC6","0921898b-0284-45a2-bae3-abb73d255ded","683bf07d-1a26-40b1-9cff-5abdc1eed0ee","","633","
    <div style=""display: flex; justify-content: center; align-items: center;"">
      <img src=""images/red_deck_2.png"" style=""width: 300px; height: 300px; margin-right: 10px;"" />
      <img src=""images/blue_deck_1.png"" style=""width: 300px; height: 300px;"" />
    </div>","0","0"
"","","","","","html-keyboard-response","87","257825","0.0-87.0-0.0-0.0","8CBEF3832F99441C89B7952F00421DC6","0921898b-0284-45a2-bae3-abb73d255ded","683bf07d-1a26-40b1-9cff-5abdc1eed0ee","","null","<div style=""display: flex; justify-content: center; align-items: center;"">
                <img src=""images/causal/causal_series_15/causal_series_15_d.jpg"" style=""width: 300px; height: 300px;"" />
              </div>","null",""
"","","","","","html-keyboard-response","88","260838","0.0-88.0","8CBEF3832F99441C89B7952F00421DC6","0921898b-0284-45a2-bae3-abb73d255ded","683bf07d-1a26-40b1-9cff-5abdc1eed0ee","","null","<div style=""display: flex; justify-content: center; align-items: center;"">
                <img src=""images/other/blank.jpg"" style=""width: 300px; height: 300px;"" />
              </div>","null",""
"","","","","","html-keyboard-response","89","263850","0.0-89.0","8CBEF3832F99441C89B7952F00421DC6","0921898b-0284-45a2-bae3-abb73d255ded","683bf07d-1a26-40b1-9cff-5abdc1eed0ee","","null","<div style=""display: flex; justify-content: center; align-items: center;"">
                <img src=""images/causal/causal_series_2/causal_series_2_a.jpg"" style=""width: 300px; height: 300px;"" />
              </div>","null",""
"","","","","","html-keyboard-response","90","266852","0.0-90.0","8CBEF3832F99441C89B7952F00421DC6","0921898b-0284-45a2-bae3-abb73d255ded","683bf07d-1a26-40b1-9cff-5abdc1eed0ee","","null","<div style=""display: flex; justify-content: center; align-items: center;"">
                <img src=""images/causal/causal_series_2/causal_series_2_b.jpg"" style=""width: 300px; height: 300px;"" />
              </div>","null",""
"","","","","","html-keyboard-response","91","269856","0.0-91.0","8CBEF3832F99441C89B7952F00421DC6","0921898b-0284-45a2-bae3-abb73d255ded","683bf07d-1a26-40b1-9cff-5abdc1eed0ee","","null","<div style=""display: flex; justify-content: center; align-items: center;"">
                <img src=""images/causal/causal_series_2/causal_series_2_c.jpg"" style=""width: 300px; height: 300px;"" />
              </div>","null",""
"","","","","","html-button-response","92","270877","0.0-92.0","8CBEF3832F99441C89B7952F00421DC6","0921898b-0284-45a2-bae3-abb73d255ded","683bf07d-1a26-40b1-9cff-5abdc1eed0ee","","1020","
    <div style=""display: flex; justify-content: center; align-items: center;"">
      <img src=""images/red_deck_2.png"" style=""width: 300px; height: 300px; margin-right: 10px;"" />
      <img src=""images/blue_deck_1.png"" style=""width: 300px; height: 300px;"" />
    </div>","0","0"
"","","","","","html-keyboard-response","93","273887","0.0-93.0-0.0-0.0","8CBEF3832F99441C89B7952F00421DC6","0921898b-0284-45a2-bae3-abb73d255ded","683bf07d-1a26-40b1-9cff-5abdc1eed0ee","","null","<div style=""display: flex; justify-content: center; align-items: center;"">
                <img src=""images/causal/causal_series_2/causal_series_2_d.jpg"" style=""width: 300px; height: 300px;"" />
              </div>","null",""
"","","","","","html-keyboard-response","94","276889","0.0-94.0","8CBEF3832F99441C89B7952F00421DC6","0921898b-0284-45a2-bae3-abb73d255ded","683bf07d-1a26-40b1-9cff-5abdc1eed0ee","","null","<div style=""display: flex; justify-content: center; align-items: center;"">
                <img src=""images/other/blank.jpg"" style=""width: 300px; height: 300px;"" />
              </div>","null",""
"","","","","","html-keyboard-response","95","279895","0.0-95.0","8CBEF3832F99441C89B7952F00421DC6","0921898b-0284-45a2-bae3-abb73d255ded","683bf07d-1a26-40b1-9cff-5abdc1eed0ee","","null","<div style=""display: flex; justify-content: center; align-items: center;"">
                <img src=""images/causal/causal_series_17/causal_series_17_a.jpg"" style=""width: 300px; height: 300px;"" />
              </div>","null",""
"","","","","","html-keyboard-response","96","282905","0.0-96.0","8CBEF3832F99441C89B7952F00421DC6","0921898b-0284-45a2-bae3-abb73d255ded","683bf07d-1a26-40b1-9cff-5abdc1eed0ee","","null","<div style=""display: flex; justify-content: center; align-items: center;"">
                <img src=""images/causal/causal_series_17/causal_series_17_b.jpg"" style=""width: 300px; height: 300px;"" />
              </div>","null",""
"","","","","","html-keyboard-response","97","285917","0.0-97.0","8CBEF3832F99441C89B7952F00421DC6","0921898b-0284-45a2-bae3-abb73d255ded","683bf07d-1a26-40b1-9cff-5abdc1eed0ee","","null","<div style=""display: flex; justify-content: center; align-items: center;"">
                <img src=""images/causal/causal_series_17/causal_series_17_c.jpg"" style=""width: 300px; height: 300px;"" />
              </div>","null",""
"","","","","","html-button-response","98","287985","0.0-98.0","8CBEF3832F99441C89B7952F00421DC6","0921898b-0284-45a2-bae3-abb73d255ded","683bf07d-1a26-40b1-9cff-5abdc1eed0ee","","2067","
    <div style=""display: flex; justify-content: center; align-items: center;"">
      <img src=""images/red_deck_2.png"" style=""width: 300px; height: 300px; margin-right: 10px;"" />
      <img src=""images/blue_deck_1.png"" style=""width: 300px; height: 300px;"" />
    </div>","0","0"
"","","","","","html-keyboard-response","99","290989","0.0-99.0-0.0-0.0","8CBEF3832F99441C89B7952F00421DC6","0921898b-0284-45a2-bae3-abb73d255ded","683bf07d-1a26-40b1-9cff-5abdc1eed0ee","","null","<div style=""display: flex; justify-content: center; align-items: center;"">
                <img src=""images/causal/causal_series_17/causal_series_17_d.jpg"" style=""width: 300px; height: 300px;"" />
              </div>","null",""
"","","","","","html-keyboard-response","100","293998","0.0-100.0","8CBEF3832F99441C89B7952F00421DC6","0921898b-0284-45a2-bae3-abb73d255ded","683bf07d-1a26-40b1-9cff-5abdc1eed0ee","","null","<div style=""display: flex; justify-content: center; align-items: center;"">
                <img src=""images/other/blank.jpg"" style=""width: 300px; height: 300px;"" />
              </div>","null",""
"","","","","","html-keyboard-response","101","297014","0.0-101.0","8CBEF3832F99441C89B7952F00421DC6","0921898b-0284-45a2-bae3-abb73d255ded","683bf07d-1a26-40b1-9cff-5abdc1eed0ee","","null","<div style=""display: flex; justify-content: center; align-items: center;"">
                <img src=""images/causal/causal_series_7/causal_series_7_a.jpg"" style=""width: 300px; height: 300px;"" />
              </div>","null",""
"","","","","","html-keyboard-response","102","300016","0.0-102.0","8CBEF3832F99441C89B7952F00421DC6","0921898b-0284-45a2-bae3-abb73d255ded","683bf07d-1a26-40b1-9cff-5abdc1eed0ee","","null","<div style=""display: flex; justify-content: center; align-items: center;"">
                <img src=""images/causal/causal_series_7/causal_series_7_b.jpg"" style=""width: 300px; height: 300px;"" />
              </div>","null",""
"","","","","","html-keyboard-response","103","303029","0.0-103.0","8CBEF3832F99441C89B7952F00421DC6","0921898b-0284-45a2-bae3-abb73d255ded","683bf07d-1a26-40b1-9cff-5abdc1eed0ee","","null","<div style=""display: flex; justify-content: center; align-items: center;"">
                <img src=""images/causal/causal_series_7/causal_series_7_c.jpg"" style=""width: 300px; height: 300px;"" />
              </div>","null",""
"","","","","","html-button-response","104","304988","0.0-104.0","8CBEF3832F99441C89B7952F00421DC6","0921898b-0284-45a2-bae3-abb73d255ded","683bf07d-1a26-40b1-9cff-5abdc1eed0ee","","1959","
    <div style=""display: flex; justify-content: center; align-items: center;"">
      <img src=""images/red_deck_2.png"" style=""width: 300px; height: 300px; margin-right: 10px;"" />
      <img src=""images/blue_deck_1.png"" style=""width: 300px; height: 300px;"" />
    </div>","0","0"
"","","","","","html-keyboard-response","105","307993","0.0-105.0-0.0-0.0","8CBEF3832F99441C89B7952F00421DC6","0921898b-0284-45a2-bae3-abb73d255ded","683bf07d-1a26-40b1-9cff-5abdc1eed0ee","","null","<div style=""display: flex; justify-content: center; align-items: center;"">
                <img src=""images/causal/causal_series_7/causal_series_7_d.jpg"" style=""width: 300px; height: 300px;"" />
              </div>","null",""
"","","","","","html-keyboard-response","106","311000","0.0-106.0","8CBEF3832F99441C89B7952F00421DC6","0921898b-0284-45a2-bae3-abb73d255ded","683bf07d-1a26-40b1-9cff-5abdc1eed0ee","","null","<div style=""display: flex; justify-content: center; align-items: center;"">
                <img src=""images/other/blank.jpg"" style=""width: 300px; height: 300px;"" />
              </div>","null",""
"","","","","","html-keyboard-response","107","314015","0.0-107.0","8CBEF3832F99441C89B7952F00421DC6","0921898b-0284-45a2-bae3-abb73d255ded","683bf07d-1a26-40b1-9cff-5abdc1eed0ee","","null","<div style=""display: flex; justify-content: center; align-items: center;"">
                <img src=""images/causal/causal_series_16/causal_series_16_a.jpg"" style=""width: 300px; height: 300px;"" />
              </div>","null",""
"","","","","","html-keyboard-response","108","317024","0.0-108.0","8CBEF3832F99441C89B7952F00421DC6","0921898b-0284-45a2-bae3-abb73d255ded","683bf07d-1a26-40b1-9cff-5abdc1eed0ee","","null","<div style=""display: flex; justify-content: center; align-items: center;"">
                <img src=""images/causal/causal_series_16/causal_series_16_b.jpg"" style=""width: 300px; height: 300px;"" />
              </div>","null",""
"","","","","","html-keyboard-response","109","320030","0.0-109.0","8CBEF3832F99441C89B7952F00421DC6","0921898b-0284-45a2-bae3-abb73d255ded","683bf07d-1a26-40b1-9cff-5abdc1eed0ee","","null","<div style=""display: flex; justify-content: center; align-items: center;"">
                <img src=""images/causal/causal_series_16/causal_series_16_c.jpg"" style=""width: 300px; height: 300px;"" />
              </div>","null",""
"","","","","","html-button-response","110","321833","0.0-110.0","8CBEF3832F99441C89B7952F00421DC6","0921898b-0284-45a2-bae3-abb73d255ded","683bf07d-1a26-40b1-9cff-5abdc1eed0ee","","1803","
    <div style=""display: flex; justify-content: center; align-items: center;"">
      <img src=""images/red_deck_2.png"" style=""width: 300px; height: 300px; margin-right: 10px;"" />
      <img src=""images/blue_deck_1.png"" style=""width: 300px; height: 300px;"" />
    </div>","0","0"
"","","","","","html-keyboard-response","111","324836","0.0-111.0-0.0-0.0","8CBEF3832F99441C89B7952F00421DC6","0921898b-0284-45a2-bae3-abb73d255ded","683bf07d-1a26-40b1-9cff-5abdc1eed0ee","","null","<div style=""display: flex; justify-content: center; align-items: center;"">
                <img src=""images/causal/causal_series_16/causal_series_16_d.jpg"" style=""width: 300px; height: 300px;"" />
              </div>","null",""
"","","","","","html-keyboard-response","112","327844","0.0-112.0","8CBEF3832F99441C89B7952F00421DC6","0921898b-0284-45a2-bae3-abb73d255ded","683bf07d-1a26-40b1-9cff-5abdc1eed0ee","","null","<div style=""display: flex; justify-content: center; align-items: center;"">
                <img src=""images/other/blank.jpg"" style=""width: 300px; height: 300px;"" />
              </div>","null",""
"","","","","","survey-text","113","355145","0.0-113.0","8CBEF3832F99441C89B7952F00421DC6","0921898b-0284-45a2-bae3-abb73d255ded","683bf07d-1a26-40b1-9cff-5abdc1eed0ee","","27298","","{""Q0"":""the one deck seemed to finish the story from the pics as where the other deck didnt ""}",""
"","","","","","survey-text","114","359039","0.0-114.0","8CBEF3832F99441C89B7952F00421DC6","0921898b-0284-45a2-bae3-abb73d255ded","683bf07d-1a26-40b1-9cff-5abdc1eed0ee","","3892","","{""Q0"":""red""}",""
"","","","","","html-button-response","115","367285","0.0-115.0","8CBEF3832F99441C89B7952F00421DC6","0921898b-0284-45a2-bae3-abb73d255ded","683bf07d-1a26-40b1-9cff-5abdc1eed0ee","","8245","Which color deck does the fourth image continue the story from the series?","1",""
"","","","","","html-button-response","116","370504","0.0-116.0","8CBEF3832F99441C89B7952F00421DC6","0921898b-0284-45a2-bae3-abb73d255ded","683bf07d-1a26-40b1-9cff-5abdc1eed0ee","","3219","Which color deck does the fourth image not follow the story from the series?","0",""
"","","","","","survey-text","117","375508","0.0-117.0","8CBEF3832F99441C89B7952F00421DC6","0921898b-0284-45a2-bae3-abb73d255ded","683bf07d-1a26-40b1-9cff-5abdc1eed0ee","","5002","","{""Q0"":""female"",""Q1"":""25""}",""
"","","","","","instructions","118","382015","0.0-118.0","8CBEF3832F99441C89B7952F00421DC6","0921898b-0284-45a2-bae3-abb73d255ded","683bf07d-1a26-40b1-9cff-5abdc1eed0ee","[{""page_index"":0,""viewing_time"":6506}]","6506","","",""
