"success","timeout","failed_images","failed_audio","failed_video","trial_type","trial_index","time_elapsed","internal_node_id","subject_id","study_id","session_id","view_history","rt","stimulus","response","series","repetition","phase","choice","question_order"
"true","false","[]","[]","[]","preload","0","29623","0.0-0.0","5300013039424CEEBA19011179000E2E","0199d60f-56e8-7483-be7a-025e189cd361","0199d5ef-c7d4-7cab-a194-b2c3afbaf8e8","","","","","","","","",""
"","","","","","instructions","1","82087","0.0-1.0","5300013039424CEEBA19011179000E2E","0199d60f-56e8-7483-be7a-025e189cd361","0199d5ef-c7d4-7cab-a194-b2c3afbaf8e8","[{""page_index"":0,""viewing_time"":52463}]","52463","","","","","","",""
"","","","","","instructions","2","161386","0.0-2.0","5300013039424CEEBA19011179000E2E","0199d60f-56e8-7483-be7a-025e189cd361","0199d5ef-c7d4-7cab-a194-b2c3afbaf8e8","[{""page_index"":0,""viewing_time"":79298}]","79298","","","","","","",""
"true","","","","","fullscreen","3","165513","0.0-3.0","5300013039424CEEBA19011179000E2E","0199d60f-56e8-7483-be7a-025e189cd361","0199d5ef-c7d4-7cab-a194-b2c3afbaf8e8","","3120","","","","","","",""
"","","","","","instructions","4","229147","0.0-4.0","5300013039424CEEBA19011179000E2E","0199d60f-56e8-7483-be7a-025e189cd361","0199d5ef-c7d4-7cab-a194-b2c3afbaf8e8","[{""page_index"":0,""viewing_time"":63634}]","63634","","","","","","",""
"","","","","","html-keyboard-response","5","235160","0.0-5.0","5300013039424CEEBA19011179000E2E","0199d60f-56e8-7483-be7a-025e189cd361","0199d5ef-c7d4-7cab-a194-b2c3afbaf8e8","","null","<div style=""display: flex; justify-content: center; align-items: center;"">
                     <img src=""images/causal/causal_series_10/causal_series_10_a.png"" style=""width: 300px; height: 300px;"" />
                   </div>","null","10","1","A","",""
"","","","","","html-keyboard-response","6","241165","0.0-6.0","5300013039424CEEBA19011179000E2E","0199d60f-56e8-7483-be7a-025e189cd361","0199d5ef-c7d4-7cab-a194-b2c3afbaf8e8","","null","<div style=""display: flex; justify-content: center; align-items: center;"">
                     <img src=""images/causal/causal_series_10/causal_series_10_b.png"" style=""width: 300px; height: 300px;"" />
                   </div>","null","10","1","B","",""
"","","","","","html-keyboard-response","7","247171","0.0-7.0","5300013039424CEEBA19011179000E2E","0199d60f-56e8-7483-be7a-025e189cd361","0199d5ef-c7d4-7cab-a194-b2c3afbaf8e8","","null","<div style=""display: flex; justify-content: center; align-items: center;"">
                     <img src=""images/causal/causal_series_10/causal_series_10_c.png"" style=""width: 300px; height: 300px;"" />
                   </div>","null","10","1","C","",""
"","","","","","html-button-response","8","254167","0.0-8.0","5300013039424CEEBA19011179000E2E","0199d60f-56e8-7483-be7a-025e189cd361","0199d5ef-c7d4-7cab-a194-b2c3afbaf8e8","","6995","
        <div style=""display: flex; justify-content: center; align-items: center;"">
          <img src=""images/red_deck_2.png"" style=""width: 300px; height: 300px; margin-right: 10px;"" />
          <img src=""images/blue_deck_1.png"" style=""width: 300px; height: 300px;"" />
        </div>","0","10","1","choice","0",""
"","","","","","html-keyboard-response","9","260174","0.0-9.0-0.0-0.0","5300013039424CEEBA19011179000E2E","0199d60f-56e8-7483-be7a-025e189cd361","0199d5ef-c7d4-7cab-a194-b2c3afbaf8e8","","null","<div style=""display: flex; justify-content: center; align-items: center;"">
                     <img src=""images/causal/causal_series_10/causal_series_10_d.png"" style=""width: 300px; height: 300px;"" />
                   </div>","null","10","1","D","",""
"","","","","","html-keyboard-response","10","266177","0.0-9.0-0.0-1.0","5300013039424CEEBA19011179000E2E","0199d60f-56e8-7483-be7a-025e189cd361","0199d5ef-c7d4-7cab-a194-b2c3afbaf8e8","","null","<div style=""display: flex; justify-content: center; align-items: center;"">
                     <img src=""images/causal/causal_series_10/causal_series_10_e.png"" style=""width: 300px; height: 300px;"" />
                   </div>","null","10","1","E","",""
"","","","","","html-keyboard-response","11","272179","0.0-9.0-0.0-2.0","5300013039424CEEBA19011179000E2E","0199d60f-56e8-7483-be7a-025e189cd361","0199d5ef-c7d4-7cab-a194-b2c3afbaf8e8","","null","<div style=""display: flex; justify-content: center; align-items: center;"">
                     <img src=""images/causal/causal_series_10/causal_series_10_f.png"" style=""width: 300px; height: 300px;"" />
                   </div>","null","10","1","F","",""
"","","","","","survey-likert","12","280755","0.0-10.0","5300013039424CEEBA19011179000E2E","0199d60f-56e8-7483-be7a-025e189cd361","0199d5ef-c7d4-7cab-a194-b2c3afbaf8e8","","8576","","{""Q0"":4}","10","1","surprise_rating","","[0]"
"","","","","","survey-likert","13","290740","0.0-11.0","5300013039424CEEBA19011179000E2E","0199d60f-56e8-7483-be7a-025e189cd361","0199d5ef-c7d4-7cab-a194-b2c3afbaf8e8","","9984","","{""Q0"":2}","10","1","enjoyment_rating","","[0]"
"","","","","","html-keyboard-response","14","296749","0.0-12.0","5300013039424CEEBA19011179000E2E","0199d60f-56e8-7483-be7a-025e189cd361","0199d5ef-c7d4-7cab-a194-b2c3afbaf8e8","","null","<div style=""display: flex; justify-content: center; align-items: center;"">
                     <img src=""images/other/blank.png"" style=""width: 300px; height: 300px;"" />
                   </div>","null","0","0","blank","",""
"","","","","","html-keyboard-response","15","302763","0.0-13.0","5300013039424CEEBA19011179000E2E","0199d60f-56e8-7483-be7a-025e189cd361","0199d5ef-c7d4-7cab-a194-b2c3afbaf8e8","","null","<div style=""display: flex; justify-content: center; align-items: center;"">
                     <img src=""images/causal/causal_series_9/causal_series_9_a.png"" style=""width: 300px; height: 300px;"" />
                   </div>","null","9","2","A","",""
"","","","","","html-keyboard-response","16","308769","0.0-14.0","5300013039424CEEBA19011179000E2E","0199d60f-56e8-7483-be7a-025e189cd361","0199d5ef-c7d4-7cab-a194-b2c3afbaf8e8","","null","<div style=""display: flex; justify-content: center; align-items: center;"">
                     <img src=""images/causal/causal_series_9/causal_series_9_b.png"" style=""width: 300px; height: 300px;"" />
                   </div>","null","9","2","B","",""
"","","","","","html-keyboard-response","17","314771","0.0-15.0","5300013039424CEEBA19011179000E2E","0199d60f-56e8-7483-be7a-025e189cd361","0199d5ef-c7d4-7cab-a194-b2c3afbaf8e8","","null","<div style=""display: flex; justify-content: center; align-items: center;"">
                     <img src=""images/causal/causal_series_9/causal_series_9_c.png"" style=""width: 300px; height: 300px;"" />
                   </div>","null","9","2","C","",""
"","","","","","html-button-response","18","317336","0.0-16.0","5300013039424CEEBA19011179000E2E","0199d60f-56e8-7483-be7a-025e189cd361","0199d5ef-c7d4-7cab-a194-b2c3afbaf8e8","","2564","
        <div style=""display: flex; justify-content: center; align-items: center;"">
          <img src=""images/red_deck_2.png"" style=""width: 300px; height: 300px; margin-right: 10px;"" />
          <img src=""images/blue_deck_1.png"" style=""width: 300px; height: 300px;"" />
        </div>","1","9","2","choice","1",""
"","","","","","html-keyboard-response","19","323345","0.0-17.0-1.0-0.0","5300013039424CEEBA19011179000E2E","0199d60f-56e8-7483-be7a-025e189cd361","0199d5ef-c7d4-7cab-a194-b2c3afbaf8e8","","null","<div style=""display: flex; justify-content: center; align-items: center;"">
                     <img src=""images/semantic/semantic_series_9/semantic_series_9_d.png"" style=""width: 300px; height: 300px;"" />
                   </div>","null","9","2","D","",""
"","","","","","html-keyboard-response","20","329353","0.0-17.0-1.0-1.0","5300013039424CEEBA19011179000E2E","0199d60f-56e8-7483-be7a-025e189cd361","0199d5ef-c7d4-7cab-a194-b2c3afbaf8e8","","null","<div style=""display: flex; justify-content: center; align-items: center;"">
                     <img src=""images/semantic/semantic_series_9/semantic_series_9_e.png"" style=""width: 300px; height: 300px;"" />
                   </div>","null","9","2","E","",""
"","","","","","html-keyboard-response","21","335368","0.0-17.0-1.0-2.0","5300013039424CEEBA19011179000E2E","0199d60f-56e8-7483-be7a-025e189cd361","0199d5ef-c7d4-7cab-a194-b2c3afbaf8e8","","null","<div style=""display: flex; justify-content: center; align-items: center;"">
                     <img src=""images/semantic/semantic_series_9/semantic_series_9_f.png"" style=""width: 300px; height: 300px;"" />
                   </div>","null","9","2","F","",""
"","","","","","survey-likert","22","340195","0.0-18.0","5300013039424CEEBA19011179000E2E","0199d60f-56e8-7483-be7a-025e189cd361","0199d5ef-c7d4-7cab-a194-b2c3afbaf8e8","","4827","","{""Q0"":4}","9","2","surprise_rating","","[0]"
"","","","","","survey-likert","23","344780","0.0-19.0","5300013039424CEEBA19011179000E2E","0199d60f-56e8-7483-be7a-025e189cd361","0199d5ef-c7d4-7cab-a194-b2c3afbaf8e8","","4584","","{""Q0"":2}","9","2","enjoyment_rating","","[0]"
"","","","","","html-keyboard-response","24","350793","0.0-20.0","5300013039424CEEBA19011179000E2E","0199d60f-56e8-7483-be7a-025e189cd361","0199d5ef-c7d4-7cab-a194-b2c3afbaf8e8","","null","<div style=""display: flex; justify-content: center; align-items: center;"">
                     <img src=""images/other/blank.png"" style=""width: 300px; height: 300px;"" />
                   </div>","null","0","0","blank","",""
"","","","","","html-keyboard-response","25","356799","0.0-21.0","5300013039424CEEBA19011179000E2E","0199d60f-56e8-7483-be7a-025e189cd361","0199d5ef-c7d4-7cab-a194-b2c3afbaf8e8","","null","<div style=""display: flex; justify-content: center; align-items: center;"">
                     <img src=""images/causal/causal_series_7/causal_series_7_a.png"" style=""width: 300px; height: 300px;"" />
                   </div>","null","7","2","A","",""
"","","","","","html-keyboard-response","26","362809","0.0-22.0","5300013039424CEEBA19011179000E2E","0199d60f-56e8-7483-be7a-025e189cd361","0199d5ef-c7d4-7cab-a194-b2c3afbaf8e8","","null","<div style=""display: flex; justify-content: center; align-items: center;"">
                     <img src=""images/causal/causal_series_7/causal_series_7_b.png"" style=""width: 300px; height: 300px;"" />
                   </div>","null","7","2","B","",""
"","","","","","html-keyboard-response","27","368816","0.0-23.0","5300013039424CEEBA19011179000E2E","0199d60f-56e8-7483-be7a-025e189cd361","0199d5ef-c7d4-7cab-a194-b2c3afbaf8e8","","null","<div style=""display: flex; justify-content: center; align-items: center;"">
                     <img src=""images/causal/causal_series_7/causal_series_7_c.png"" style=""width: 300px; height: 300px;"" />
                   </div>","null","7","2","C","",""
"","","","","","html-button-response","28","371000","0.0-24.0","5300013039424CEEBA19011179000E2E","0199d60f-56e8-7483-be7a-025e189cd361","0199d5ef-c7d4-7cab-a194-b2c3afbaf8e8","","2183","
        <div style=""display: flex; justify-content: center; align-items: center;"">
          <img src=""images/red_deck_2.png"" style=""width: 300px; height: 300px; margin-right: 10px;"" />
          <img src=""images/blue_deck_1.png"" style=""width: 300px; height: 300px;"" />
        </div>","1","7","2","choice","1",""
"","","","","","html-keyboard-response","29","377013","0.0-25.0-1.0-0.0","5300013039424CEEBA19011179000E2E","0199d60f-56e8-7483-be7a-025e189cd361","0199d5ef-c7d4-7cab-a194-b2c3afbaf8e8","","null","<div style=""display: flex; justify-content: center; align-items: center;"">
                     <img src=""images/semantic/semantic_series_7/semantic_series_7_d.png"" style=""width: 300px; height: 300px;"" />
                   </div>","null","7","2","D","",""
"","","","","","html-keyboard-response","30","383014","0.0-25.0-1.0-1.0","5300013039424CEEBA19011179000E2E","0199d60f-56e8-7483-be7a-025e189cd361","0199d5ef-c7d4-7cab-a194-b2c3afbaf8e8","","null","<div style=""display: flex; justify-content: center; align-items: center;"">
                     <img src=""images/semantic/semantic_series_7/semantic_series_7_e.png"" style=""width: 300px; height: 300px;"" />
                   </div>","null","7","2","E","",""
"","","","","","html-keyboard-response","31","389019","0.0-25.0-1.0-2.0","5300013039424CEEBA19011179000E2E","0199d60f-56e8-7483-be7a-025e189cd361","0199d5ef-c7d4-7cab-a194-b2c3afbaf8e8","","null","<div style=""display: flex; justify-content: center; align-items: center;"">
                     <img src=""images/semantic/semantic_series_7/semantic_series_7_f.png"" style=""width: 300px; height: 300px;"" />
                   </div>","null","7","2","F","",""
"","","","","","survey-likert","32","391290","0.0-26.0","5300013039424CEEBA19011179000E2E","0199d60f-56e8-7483-be7a-025e189cd361","0199d5ef-c7d4-7cab-a194-b2c3afbaf8e8","","2271","","{""Q0"":4}","7","2","surprise_rating","","[0]"
"","","","","","survey-likert","33","396083","0.0-27.0","5300013039424CEEBA19011179000E2E","0199d60f-56e8-7483-be7a-025e189cd361","0199d5ef-c7d4-7cab-a194-b2c3afbaf8e8","","4792","","{""Q0"":3}","7","2","enjoyment_rating","","[0]"
"","","","","","html-keyboard-response","34","402085","0.0-28.0","5300013039424CEEBA19011179000E2E","0199d60f-56e8-7483-be7a-025e189cd361","0199d5ef-c7d4-7cab-a194-b2c3afbaf8e8","","null","<div style=""display: flex; justify-content: center; align-items: center;"">
                     <img src=""images/other/blank.png"" style=""width: 300px; height: 300px;"" />
                   </div>","null","0","0","blank","",""
"","","","","","html-keyboard-response","35","408086","0.0-29.0","5300013039424CEEBA19011179000E2E","0199d60f-56e8-7483-be7a-025e189cd361","0199d5ef-c7d4-7cab-a194-b2c3afbaf8e8","","null","<div style=""display: flex; justify-content: center; align-items: center;"">
                     <img src=""images/causal/causal_series_10/causal_series_10_a.png"" style=""width: 300px; height: 300px;"" />
                   </div>","null","10","2","A","",""
"","","","","","html-keyboard-response","36","414088","0.0-30.0","5300013039424CEEBA19011179000E2E","0199d60f-56e8-7483-be7a-025e189cd361","0199d5ef-c7d4-7cab-a194-b2c3afbaf8e8","","null","<div style=""display: flex; justify-content: center; align-items: center;"">
                     <img src=""images/causal/causal_series_10/causal_series_10_b.png"" style=""width: 300px; height: 300px;"" />
                   </div>","null","10","2","B","",""
"","","","","","html-keyboard-response","37","420098","0.0-31.0","5300013039424CEEBA19011179000E2E","0199d60f-56e8-7483-be7a-025e189cd361","0199d5ef-c7d4-7cab-a194-b2c3afbaf8e8","","null","<div style=""display: flex; justify-content: center; align-items: center;"">
                     <img src=""images/causal/causal_series_10/causal_series_10_c.png"" style=""width: 300px; height: 300px;"" />
                   </div>","null","10","2","C","",""
"","","","","","html-button-response","38","421335","0.0-32.0","5300013039424CEEBA19011179000E2E","0199d60f-56e8-7483-be7a-025e189cd361","0199d5ef-c7d4-7cab-a194-b2c3afbaf8e8","","1235","
        <div style=""display: flex; justify-content: center; align-items: center;"">
          <img src=""images/red_deck_2.png"" style=""width: 300px; height: 300px; margin-right: 10px;"" />
          <img src=""images/blue_deck_1.png"" style=""width: 300px; height: 300px;"" />
        </div>","1","10","2","choice","1",""
"","","","","","html-keyboard-response","39","427336","0.0-33.0-1.0-0.0","5300013039424CEEBA19011179000E2E","0199d60f-56e8-7483-be7a-025e189cd361","0199d5ef-c7d4-7cab-a194-b2c3afbaf8e8","","null","<div style=""display: flex; justify-content: center; align-items: center;"">
                     <img src=""images/semantic/semantic_series_10/semantic_series_10_d.png"" style=""width: 300px; height: 300px;"" />
                   </div>","null","10","2","D","",""
"","","","","","html-keyboard-response","40","433344","0.0-33.0-1.0-1.0","5300013039424CEEBA19011179000E2E","0199d60f-56e8-7483-be7a-025e189cd361","0199d5ef-c7d4-7cab-a194-b2c3afbaf8e8","","null","<div style=""display: flex; justify-content: center; align-items: center;"">
                     <img src=""images/semantic/semantic_series_10/semantic_series_10_e.png"" style=""width: 300px; height: 300px;"" />
                   </div>","null","10","2","E","",""
"","","","","","html-keyboard-response","41","439356","0.0-33.0-1.0-2.0","5300013039424CEEBA19011179000E2E","0199d60f-56e8-7483-be7a-025e189cd361","0199d5ef-c7d4-7cab-a194-b2c3afbaf8e8","","null","<div style=""display: flex; justify-content: center; align-items: center;"">
                     <img src=""images/semantic/semantic_series_10/semantic_series_10_f.png"" style=""width: 300px; height: 300px;"" />
                   </div>","null","10","2","F","",""
"","","","","","survey-likert","42","442962","0.0-34.0","5300013039424CEEBA19011179000E2E","0199d60f-56e8-7483-be7a-025e189cd361","0199d5ef-c7d4-7cab-a194-b2c3afbaf8e8","","3605","","{""Q0"":4}","10","2","surprise_rating","","[0]"
"","","","","","survey-likert","43","444514","0.0-35.0","5300013039424CEEBA19011179000E2E","0199d60f-56e8-7483-be7a-025e189cd361","0199d5ef-c7d4-7cab-a194-b2c3afbaf8e8","","1552","","{""Q0"":3}","10","2","enjoyment_rating","","[0]"
"","","","","","html-keyboard-response","44","450521","0.0-36.0","5300013039424CEEBA19011179000E2E","0199d60f-56e8-7483-be7a-025e189cd361","0199d5ef-c7d4-7cab-a194-b2c3afbaf8e8","","null","<div style=""display: flex; justify-content: center; align-items: center;"">
                     <img src=""images/other/blank.png"" style=""width: 300px; height: 300px;"" />
                   </div>","null","0","0","blank","",""
"","","","","","html-keyboard-response","45","456525","0.0-37.0","5300013039424CEEBA19011179000E2E","0199d60f-56e8-7483-be7a-025e189cd361","0199d5ef-c7d4-7cab-a194-b2c3afbaf8e8","","null","<div style=""display: flex; justify-content: center; align-items: center;"">
                     <img src=""images/causal/causal_series_1/causal_series_1_a.png"" style=""width: 300px; height: 300px;"" />
                   </div>","null","1","1","A","",""
"","","","","","html-keyboard-response","46","462538","0.0-38.0","5300013039424CEEBA19011179000E2E","0199d60f-56e8-7483-be7a-025e189cd361","0199d5ef-c7d4-7cab-a194-b2c3afbaf8e8","","null","<div style=""display: flex; justify-content: center; align-items: center;"">
                     <img src=""images/causal/causal_series_1/causal_series_1_b.png"" style=""width: 300px; height: 300px;"" />
                   </div>","null","1","1","B","",""
"","","","","","html-keyboard-response","47","468553","0.0-39.0","5300013039424CEEBA19011179000E2E","0199d60f-56e8-7483-be7a-025e189cd361","0199d5ef-c7d4-7cab-a194-b2c3afbaf8e8","","null","<div style=""display: flex; justify-content: center; align-items: center;"">
                     <img src=""images/causal/causal_series_1/causal_series_1_c.png"" style=""width: 300px; height: 300px;"" />
                   </div>","null","1","1","C","",""
"","","","","","html-button-response","48","471614","0.0-40.0","5300013039424CEEBA19011179000E2E","0199d60f-56e8-7483-be7a-025e189cd361","0199d5ef-c7d4-7cab-a194-b2c3afbaf8e8","","3060","
        <div style=""display: flex; justify-content: center; align-items: center;"">
          <img src=""images/red_deck_2.png"" style=""width: 300px; height: 300px; margin-right: 10px;"" />
          <img src=""images/blue_deck_1.png"" style=""width: 300px; height: 300px;"" />
        </div>","1","1","1","choice","1",""
"","","","","","html-keyboard-response","49","477619","0.0-41.0-1.0-0.0","5300013039424CEEBA19011179000E2E","0199d60f-56e8-7483-be7a-025e189cd361","0199d5ef-c7d4-7cab-a194-b2c3afbaf8e8","","null","<div style=""display: flex; justify-content: center; align-items: center;"">
                     <img src=""images/semantic/semantic_series_1/semantic_series_1_d.png"" style=""width: 300px; height: 300px;"" />
                   </div>","null","1","1","D","",""
"","","","","","html-keyboard-response","50","483635","0.0-41.0-1.0-1.0","5300013039424CEEBA19011179000E2E","0199d60f-56e8-7483-be7a-025e189cd361","0199d5ef-c7d4-7cab-a194-b2c3afbaf8e8","","null","<div style=""display: flex; justify-content: center; align-items: center;"">
                     <img src=""images/semantic/semantic_series_1/semantic_series_1_e.png"" style=""width: 300px; height: 300px;"" />
                   </div>","null","1","1","E","",""
"","","","","","html-keyboard-response","51","489647","0.0-41.0-1.0-2.0","5300013039424CEEBA19011179000E2E","0199d60f-56e8-7483-be7a-025e189cd361","0199d5ef-c7d4-7cab-a194-b2c3afbaf8e8","","null","<div style=""display: flex; justify-content: center; align-items: center;"">
                     <img src=""images/semantic/semantic_series_1/semantic_series_1_f.png"" style=""width: 300px; height: 300px;"" />
                   </div>","null","1","1","F","",""
"","","","","","survey-likert","52","495977","0.0-42.0","5300013039424CEEBA19011179000E2E","0199d60f-56e8-7483-be7a-025e189cd361","0199d5ef-c7d4-7cab-a194-b2c3afbaf8e8","","6330","","{""Q0"":4}","1","1","surprise_rating","","[0]"
"","","","","","survey-likert","53","497913","0.0-43.0","5300013039424CEEBA19011179000E2E","0199d60f-56e8-7483-be7a-025e189cd361","0199d5ef-c7d4-7cab-a194-b2c3afbaf8e8","","1936","","{""Q0"":3}","1","1","enjoyment_rating","","[0]"
"","","","","","html-keyboard-response","54","503919","0.0-44.0","5300013039424CEEBA19011179000E2E","0199d60f-56e8-7483-be7a-025e189cd361","0199d5ef-c7d4-7cab-a194-b2c3afbaf8e8","","null","<div style=""display: flex; justify-content: center; align-items: center;"">
                     <img src=""images/other/blank.png"" style=""width: 300px; height: 300px;"" />
                   </div>","null","0","0","blank","",""
"","","","","","html-keyboard-response","55","509920","0.0-45.0","5300013039424CEEBA19011179000E2E","0199d60f-56e8-7483-be7a-025e189cd361","0199d5ef-c7d4-7cab-a194-b2c3afbaf8e8","","null","<div style=""display: flex; justify-content: center; align-items: center;"">
                     <img src=""images/causal/causal_series_9/causal_series_9_a.png"" style=""width: 300px; height: 300px;"" />
                   </div>","null","9","1","A","",""
"","","","","","html-keyboard-response","56","515927","0.0-46.0","5300013039424CEEBA19011179000E2E","0199d60f-56e8-7483-be7a-025e189cd361","0199d5ef-c7d4-7cab-a194-b2c3afbaf8e8","","null","<div style=""display: flex; justify-content: center; align-items: center;"">
                     <img src=""images/causal/causal_series_9/causal_series_9_b.png"" style=""width: 300px; height: 300px;"" />
                   </div>","null","9","1","B","",""
"","","","","","html-keyboard-response","57","521940","0.0-47.0","5300013039424CEEBA19011179000E2E","0199d60f-56e8-7483-be7a-025e189cd361","0199d5ef-c7d4-7cab-a194-b2c3afbaf8e8","","null","<div style=""display: flex; justify-content: center; align-items: center;"">
                     <img src=""images/causal/causal_series_9/causal_series_9_c.png"" style=""width: 300px; height: 300px;"" />
                   </div>","null","9","1","C","",""
"","","","","","html-button-response","58","522837","0.0-48.0","5300013039424CEEBA19011179000E2E","0199d60f-56e8-7483-be7a-025e189cd361","0199d5ef-c7d4-7cab-a194-b2c3afbaf8e8","","896","
        <div style=""display: flex; justify-content: center; align-items: center;"">
          <img src=""images/red_deck_2.png"" style=""width: 300px; height: 300px; margin-right: 10px;"" />
          <img src=""images/blue_deck_1.png"" style=""width: 300px; height: 300px;"" />
        </div>","0","9","1","choice","0",""
"","","","","","html-keyboard-response","59","528842","0.0-49.0-0.0-0.0","5300013039424CEEBA19011179000E2E","0199d60f-56e8-7483-be7a-025e189cd361","0199d5ef-c7d4-7cab-a194-b2c3afbaf8e8","","null","<div style=""display: flex; justify-content: center; align-items: center;"">
                     <img src=""images/causal/causal_series_9/causal_series_9_d.png"" style=""width: 300px; height: 300px;"" />
                   </div>","null","9","1","D","",""
"","","","","","html-keyboard-response","60","534857","0.0-49.0-0.0-1.0","5300013039424CEEBA19011179000E2E","0199d60f-56e8-7483-be7a-025e189cd361","0199d5ef-c7d4-7cab-a194-b2c3afbaf8e8","","null","<div style=""display: flex; justify-content: center; align-items: center;"">
                     <img src=""images/causal/causal_series_9/causal_series_9_e.png"" style=""width: 300px; height: 300px;"" />
                   </div>","null","9","1","E","",""
"","","","","","html-keyboard-response","61","540861","0.0-49.0-0.0-2.0","5300013039424CEEBA19011179000E2E","0199d60f-56e8-7483-be7a-025e189cd361","0199d5ef-c7d4-7cab-a194-b2c3afbaf8e8","","null","<div style=""display: flex; justify-content: center; align-items: center;"">
                     <img src=""images/causal/causal_series_9/causal_series_9_f.png"" style=""width: 300px; height: 300px;"" />
                   </div>","null","9","1","F","",""
"","","","","","survey-likert","62","543200","0.0-50.0","5300013039424CEEBA19011179000E2E","0199d60f-56e8-7483-be7a-025e189cd361","0199d5ef-c7d4-7cab-a194-b2c3afbaf8e8","","2338","","{""Q0"":4}","9","1","surprise_rating","","[0]"
"","","","","","survey-likert","63","544552","0.0-51.0","5300013039424CEEBA19011179000E2E","0199d60f-56e8-7483-be7a-025e189cd361","0199d5ef-c7d4-7cab-a194-b2c3afbaf8e8","","1351","","{""Q0"":3}","9","1","enjoyment_rating","","[0]"
"","","","","","html-keyboard-response","64","550563","0.0-52.0","5300013039424CEEBA19011179000E2E","0199d60f-56e8-7483-be7a-025e189cd361","0199d5ef-c7d4-7cab-a194-b2c3afbaf8e8","","null","<div style=""display: flex; justify-content: center; align-items: center;"">
                     <img src=""images/other/blank.png"" style=""width: 300px; height: 300px;"" />
                   </div>","null","0","0","blank","",""
"","","","","","html-keyboard-response","65","556577","0.0-53.0","5300013039424CEEBA19011179000E2E","0199d60f-56e8-7483-be7a-025e189cd361","0199d5ef-c7d4-7cab-a194-b2c3afbaf8e8","","null","<div style=""display: flex; justify-content: center; align-items: center;"">
                     <img src=""images/causal/causal_series_6/causal_series_6_a.png"" style=""width: 300px; height: 300px;"" />
                   </div>","null","6","1","A","",""
"","","","","","html-keyboard-response","66","562585","0.0-54.0","5300013039424CEEBA19011179000E2E","0199d60f-56e8-7483-be7a-025e189cd361","0199d5ef-c7d4-7cab-a194-b2c3afbaf8e8","","null","<div style=""display: flex; justify-content: center; align-items: center;"">
                     <img src=""images/causal/causal_series_6/causal_series_6_b.png"" style=""width: 300px; height: 300px;"" />
                   </div>","null","6","1","B","",""
"","","","","","html-keyboard-response","67","568598","0.0-55.0","5300013039424CEEBA19011179000E2E","0199d60f-56e8-7483-be7a-025e189cd361","0199d5ef-c7d4-7cab-a194-b2c3afbaf8e8","","null","<div style=""display: flex; justify-content: center; align-items: center;"">
                     <img src=""images/causal/causal_series_6/causal_series_6_c.png"" style=""width: 300px; height: 300px;"" />
                   </div>","null","6","1","C","",""
"","","","","","html-button-response","68","569491","0.0-56.0","5300013039424CEEBA19011179000E2E","0199d60f-56e8-7483-be7a-025e189cd361","0199d5ef-c7d4-7cab-a194-b2c3afbaf8e8","","893","
        <div style=""display: flex; justify-content: center; align-items: center;"">
          <img src=""images/red_deck_2.png"" style=""width: 300px; height: 300px; margin-right: 10px;"" />
          <img src=""images/blue_deck_1.png"" style=""width: 300px; height: 300px;"" />
        </div>","0","6","1","choice","0",""
"","","","","","html-keyboard-response","69","575500","0.0-57.0-0.0-0.0","5300013039424CEEBA19011179000E2E","0199d60f-56e8-7483-be7a-025e189cd361","0199d5ef-c7d4-7cab-a194-b2c3afbaf8e8","","null","<div style=""display: flex; justify-content: center; align-items: center;"">
                     <img src=""images/causal/causal_series_6/causal_series_6_d.png"" style=""width: 300px; height: 300px;"" />
                   </div>","null","6","1","D","",""
"","","","","","html-keyboard-response","70","581510","0.0-57.0-0.0-1.0","5300013039424CEEBA19011179000E2E","0199d60f-56e8-7483-be7a-025e189cd361","0199d5ef-c7d4-7cab-a194-b2c3afbaf8e8","","null","<div style=""display: flex; justify-content: center; align-items: center;"">
                     <img src=""images/causal/causal_series_6/causal_series_6_e.png"" style=""width: 300px; height: 300px;"" />
                   </div>","null","6","1","E","",""
"","","","","","html-keyboard-response","71","587512","0.0-57.0-0.0-2.0","5300013039424CEEBA19011179000E2E","0199d60f-56e8-7483-be7a-025e189cd361","0199d5ef-c7d4-7cab-a194-b2c3afbaf8e8","","null","<div style=""display: flex; justify-content: center; align-items: center;"">
                     <img src=""images/causal/causal_series_6/causal_series_6_f.png"" style=""width: 300px; height: 300px;"" />
                   </div>","null","6","1","F","",""
"","","","","","survey-likert","72","589622","0.0-58.0","5300013039424CEEBA19011179000E2E","0199d60f-56e8-7483-be7a-025e189cd361","0199d5ef-c7d4-7cab-a194-b2c3afbaf8e8","","2110","","{""Q0"":4}","6","1","surprise_rating","","[0]"
"","","","","","survey-likert","73","591399","0.0-59.0","5300013039424CEEBA19011179000E2E","0199d60f-56e8-7483-be7a-025e189cd361","0199d5ef-c7d4-7cab-a194-b2c3afbaf8e8","","1776","","{""Q0"":3}","6","1","enjoyment_rating","","[0]"
"","","","","","html-keyboard-response","74","597407","0.0-60.0","5300013039424CEEBA19011179000E2E","0199d60f-56e8-7483-be7a-025e189cd361","0199d5ef-c7d4-7cab-a194-b2c3afbaf8e8","","null","<div style=""display: flex; justify-content: center; align-items: center;"">
                     <img src=""images/other/blank.png"" style=""width: 300px; height: 300px;"" />
                   </div>","null","0","0","blank","",""
"","","","","","html-keyboard-response","75","603415","0.0-61.0","5300013039424CEEBA19011179000E2E","0199d60f-56e8-7483-be7a-025e189cd361","0199d5ef-c7d4-7cab-a194-b2c3afbaf8e8","","null","<div style=""display: flex; justify-content: center; align-items: center;"">
                     <img src=""images/causal/causal_series_4/causal_series_4_a.png"" style=""width: 300px; height: 300px;"" />
                   </div>","null","4","2","A","",""
"","","","","","html-keyboard-response","76","609424","0.0-62.0","5300013039424CEEBA19011179000E2E","0199d60f-56e8-7483-be7a-025e189cd361","0199d5ef-c7d4-7cab-a194-b2c3afbaf8e8","","null","<div style=""display: flex; justify-content: center; align-items: center;"">
                     <img src=""images/causal/causal_series_4/causal_series_4_b.png"" style=""width: 300px; height: 300px;"" />
                   </div>","null","4","2","B","",""
"","","","","","html-keyboard-response","77","615439","0.0-63.0","5300013039424CEEBA19011179000E2E","0199d60f-56e8-7483-be7a-025e189cd361","0199d5ef-c7d4-7cab-a194-b2c3afbaf8e8","","null","<div style=""display: flex; justify-content: center; align-items: center;"">
                     <img src=""images/causal/causal_series_4/causal_series_4_c.png"" style=""width: 300px; height: 300px;"" />
                   </div>","null","4","2","C","",""
"","","","","","html-button-response","78","617738","0.0-64.0","5300013039424CEEBA19011179000E2E","0199d60f-56e8-7483-be7a-025e189cd361","0199d5ef-c7d4-7cab-a194-b2c3afbaf8e8","","2298","
        <div style=""display: flex; justify-content: center; align-items: center;"">
          <img src=""images/red_deck_2.png"" style=""width: 300px; height: 300px; margin-right: 10px;"" />
          <img src=""images/blue_deck_1.png"" style=""width: 300px; height: 300px;"" />
        </div>","1","4","2","choice","1",""
"","","","","","html-keyboard-response","79","623742","0.0-65.0-1.0-0.0","5300013039424CEEBA19011179000E2E","0199d60f-56e8-7483-be7a-025e189cd361","0199d5ef-c7d4-7cab-a194-b2c3afbaf8e8","","null","<div style=""display: flex; justify-content: center; align-items: center;"">
                     <img src=""images/semantic/semantic_series_4/semantic_series_4_d.png"" style=""width: 300px; height: 300px;"" />
                   </div>","null","4","2","D","",""
"","","","","","html-keyboard-response","80","629755","0.0-65.0-1.0-1.0","5300013039424CEEBA19011179000E2E","0199d60f-56e8-7483-be7a-025e189cd361","0199d5ef-c7d4-7cab-a194-b2c3afbaf8e8","","null","<div style=""display: flex; justify-content: center; align-items: center;"">
                     <img src=""images/semantic/semantic_series_4/semantic_series_4_e.png"" style=""width: 300px; height: 300px;"" />
                   </div>","null","4","2","E","",""
"","","","","","html-keyboard-response","81","635762","0.0-65.0-1.0-2.0","5300013039424CEEBA19011179000E2E","0199d60f-56e8-7483-be7a-025e189cd361","0199d5ef-c7d4-7cab-a194-b2c3afbaf8e8","","null","<div style=""display: flex; justify-content: center; align-items: center;"">
                     <img src=""images/semantic/semantic_series_4/semantic_series_4_f.png"" style=""width: 300px; height: 300px;"" />
                   </div>","null","4","2","F","",""
"","","","","","survey-likert","82","639797","0.0-66.0","5300013039424CEEBA19011179000E2E","0199d60f-56e8-7483-be7a-025e189cd361","0199d5ef-c7d4-7cab-a194-b2c3afbaf8e8","","4035","","{""Q0"":4}","4","2","surprise_rating","","[0]"
"","","","","","survey-likert","83","641318","0.0-67.0","5300013039424CEEBA19011179000E2E","0199d60f-56e8-7483-be7a-025e189cd361","0199d5ef-c7d4-7cab-a194-b2c3afbaf8e8","","1520","","{""Q0"":3}","4","2","enjoyment_rating","","[0]"
"","","","","","html-keyboard-response","84","647321","0.0-68.0","5300013039424CEEBA19011179000E2E","0199d60f-56e8-7483-be7a-025e189cd361","0199d5ef-c7d4-7cab-a194-b2c3afbaf8e8","","null","<div style=""display: flex; justify-content: center; align-items: center;"">
                     <img src=""images/other/blank.png"" style=""width: 300px; height: 300px;"" />
                   </div>","null","0","0","blank","",""
"","","","","","html-keyboard-response","85","653331","0.0-69.0","5300013039424CEEBA19011179000E2E","0199d60f-56e8-7483-be7a-025e189cd361","0199d5ef-c7d4-7cab-a194-b2c3afbaf8e8","","null","<div style=""display: flex; justify-content: center; align-items: center;"">
                     <img src=""images/causal/causal_series_4/causal_series_4_a.png"" style=""width: 300px; height: 300px;"" />
                   </div>","null","4","1","A","",""
"","","","","","html-keyboard-response","86","659331","0.0-70.0","5300013039424CEEBA19011179000E2E","0199d60f-56e8-7483-be7a-025e189cd361","0199d5ef-c7d4-7cab-a194-b2c3afbaf8e8","","null","<div style=""display: flex; justify-content: center; align-items: center;"">
                     <img src=""images/causal/causal_series_4/causal_series_4_b.png"" style=""width: 300px; height: 300px;"" />
                   </div>","null","4","1","B","",""
"","","","","","html-keyboard-response","87","665332","0.0-71.0","5300013039424CEEBA19011179000E2E","0199d60f-56e8-7483-be7a-025e189cd361","0199d5ef-c7d4-7cab-a194-b2c3afbaf8e8","","null","<div style=""display: flex; justify-content: center; align-items: center;"">
                     <img src=""images/causal/causal_series_4/causal_series_4_c.png"" style=""width: 300px; height: 300px;"" />
                   </div>","null","4","1","C","",""
"","","","","","html-button-response","88","677939","0.0-72.0","5300013039424CEEBA19011179000E2E","0199d60f-56e8-7483-be7a-025e189cd361","0199d5ef-c7d4-7cab-a194-b2c3afbaf8e8","","12606","
        <div style=""display: flex; justify-content: center; align-items: center;"">
          <img src=""images/red_deck_2.png"" style=""width: 300px; height: 300px; margin-right: 10px;"" />
          <img src=""images/blue_deck_1.png"" style=""width: 300px; height: 300px;"" />
        </div>","0","4","1","choice","0",""
"","","","","","html-keyboard-response","89","683939","0.0-73.0-0.0-0.0","5300013039424CEEBA19011179000E2E","0199d60f-56e8-7483-be7a-025e189cd361","0199d5ef-c7d4-7cab-a194-b2c3afbaf8e8","","null","<div style=""display: flex; justify-content: center; align-items: center;"">
                     <img src=""images/causal/causal_series_4/causal_series_4_d.png"" style=""width: 300px; height: 300px;"" />
                   </div>","null","4","1","D","",""
"","","","","","html-keyboard-response","90","689947","0.0-73.0-0.0-1.0","5300013039424CEEBA19011179000E2E","0199d60f-56e8-7483-be7a-025e189cd361","0199d5ef-c7d4-7cab-a194-b2c3afbaf8e8","","null","<div style=""display: flex; justify-content: center; align-items: center;"">
                     <img src=""images/causal/causal_series_4/causal_series_4_e.png"" style=""width: 300px; height: 300px;"" />
                   </div>","null","4","1","E","",""
"","","","","","html-keyboard-response","91","695948","0.0-73.0-0.0-2.0","5300013039424CEEBA19011179000E2E","0199d60f-56e8-7483-be7a-025e189cd361","0199d5ef-c7d4-7cab-a194-b2c3afbaf8e8","","null","<div style=""display: flex; justify-content: center; align-items: center;"">
                     <img src=""images/causal/causal_series_4/causal_series_4_f.png"" style=""width: 300px; height: 300px;"" />
                   </div>","null","4","1","F","",""
"","","","","","survey-likert","92","699326","0.0-74.0","5300013039424CEEBA19011179000E2E","0199d60f-56e8-7483-be7a-025e189cd361","0199d5ef-c7d4-7cab-a194-b2c3afbaf8e8","","3377","","{""Q0"":4}","4","1","surprise_rating","","[0]"
"","","","","","survey-likert","93","700902","0.0-75.0","5300013039424CEEBA19011179000E2E","0199d60f-56e8-7483-be7a-025e189cd361","0199d5ef-c7d4-7cab-a194-b2c3afbaf8e8","","1575","","{""Q0"":4}","4","1","enjoyment_rating","","[0]"
"","","","","","html-keyboard-response","94","706911","0.0-76.0","5300013039424CEEBA19011179000E2E","0199d60f-56e8-7483-be7a-025e189cd361","0199d5ef-c7d4-7cab-a194-b2c3afbaf8e8","","null","<div style=""display: flex; justify-content: center; align-items: center;"">
                     <img src=""images/other/blank.png"" style=""width: 300px; height: 300px;"" />
                   </div>","null","0","0","blank","",""
"","","","","","html-keyboard-response","95","712919","0.0-77.0","5300013039424CEEBA19011179000E2E","0199d60f-56e8-7483-be7a-025e189cd361","0199d5ef-c7d4-7cab-a194-b2c3afbaf8e8","","null","<div style=""display: flex; justify-content: center; align-items: center;"">
                     <img src=""images/causal/causal_series_2/causal_series_2_a.png"" style=""width: 300px; height: 300px;"" />
                   </div>","null","2","1","A","",""
"","","","","","html-keyboard-response","96","718933","0.0-78.0","5300013039424CEEBA19011179000E2E","0199d60f-56e8-7483-be7a-025e189cd361","0199d5ef-c7d4-7cab-a194-b2c3afbaf8e8","","null","<div style=""display: flex; justify-content: center; align-items: center;"">
                     <img src=""images/causal/causal_series_2/causal_series_2_b.png"" style=""width: 300px; height: 300px;"" />
                   </div>","null","2","1","B","",""
"","","","","","html-keyboard-response","97","724937","0.0-79.0","5300013039424CEEBA19011179000E2E","0199d60f-56e8-7483-be7a-025e189cd361","0199d5ef-c7d4-7cab-a194-b2c3afbaf8e8","","null","<div style=""display: flex; justify-content: center; align-items: center;"">
                     <img src=""images/causal/causal_series_2/causal_series_2_c.png"" style=""width: 300px; height: 300px;"" />
                   </div>","null","2","1","C","",""
"","","","","","html-button-response","98","749989","0.0-80.0","5300013039424CEEBA19011179000E2E","0199d60f-56e8-7483-be7a-025e189cd361","0199d5ef-c7d4-7cab-a194-b2c3afbaf8e8","","25051","
        <div style=""display: flex; justify-content: center; align-items: center;"">
          <img src=""images/red_deck_2.png"" style=""width: 300px; height: 300px; margin-right: 10px;"" />
          <img src=""images/blue_deck_1.png"" style=""width: 300px; height: 300px;"" />
        </div>","0","2","1","choice","0",""
"","","","","","html-keyboard-response","99","755990","0.0-81.0-0.0-0.0","5300013039424CEEBA19011179000E2E","0199d60f-56e8-7483-be7a-025e189cd361","0199d5ef-c7d4-7cab-a194-b2c3afbaf8e8","","null","<div style=""display: flex; justify-content: center; align-items: center;"">
                     <img src=""images/causal/causal_series_2/causal_series_2_d.png"" style=""width: 300px; height: 300px;"" />
                   </div>","null","2","1","D","",""
"","","","","","html-keyboard-response","100","761996","0.0-81.0-0.0-1.0","5300013039424CEEBA19011179000E2E","0199d60f-56e8-7483-be7a-025e189cd361","0199d5ef-c7d4-7cab-a194-b2c3afbaf8e8","","null","<div style=""display: flex; justify-content: center; align-items: center;"">
                     <img src=""images/causal/causal_series_2/causal_series_2_e.png"" style=""width: 300px; height: 300px;"" />
                   </div>","null","2","1","E","",""
"","","","","","html-keyboard-response","101","767999","0.0-81.0-0.0-2.0","5300013039424CEEBA19011179000E2E","0199d60f-56e8-7483-be7a-025e189cd361","0199d5ef-c7d4-7cab-a194-b2c3afbaf8e8","","null","<div style=""display: flex; justify-content: center; align-items: center;"">
                     <img src=""images/causal/causal_series_2/causal_series_2_f.png"" style=""width: 300px; height: 300px;"" />
                   </div>","null","2","1","F","",""
"","","","","","survey-likert","102","770536","0.0-82.0","5300013039424CEEBA19011179000E2E","0199d60f-56e8-7483-be7a-025e189cd361","0199d5ef-c7d4-7cab-a194-b2c3afbaf8e8","","2536","","{""Q0"":4}","2","1","surprise_rating","","[0]"
"","","","","","survey-likert","103","777009","0.0-83.0","5300013039424CEEBA19011179000E2E","0199d60f-56e8-7483-be7a-025e189cd361","0199d5ef-c7d4-7cab-a194-b2c3afbaf8e8","","6473","","{""Q0"":3}","2","1","enjoyment_rating","","[0]"
"","","","","","html-keyboard-response","104","783012","0.0-84.0","5300013039424CEEBA19011179000E2E","0199d60f-56e8-7483-be7a-025e189cd361","0199d5ef-c7d4-7cab-a194-b2c3afbaf8e8","","null","<div style=""display: flex; justify-content: center; align-items: center;"">
                     <img src=""images/other/blank.png"" style=""width: 300px; height: 300px;"" />
                   </div>","null","0","0","blank","",""
"","","","","","html-keyboard-response","105","789015","0.0-85.0","5300013039424CEEBA19011179000E2E","0199d60f-56e8-7483-be7a-025e189cd361","0199d5ef-c7d4-7cab-a194-b2c3afbaf8e8","","null","<div style=""display: flex; justify-content: center; align-items: center;"">
                     <img src=""images/causal/causal_series_3/causal_series_3_a.png"" style=""width: 300px; height: 300px;"" />
                   </div>","null","3","1","A","",""
"","","","","","html-keyboard-response","106","795022","0.0-86.0","5300013039424CEEBA19011179000E2E","0199d60f-56e8-7483-be7a-025e189cd361","0199d5ef-c7d4-7cab-a194-b2c3afbaf8e8","","null","<div style=""display: flex; justify-content: center; align-items: center;"">
                     <img src=""images/causal/causal_series_3/causal_series_3_b.png"" style=""width: 300px; height: 300px;"" />
                   </div>","null","3","1","B","",""
"","","","","","html-keyboard-response","107","801029","0.0-87.0","5300013039424CEEBA19011179000E2E","0199d60f-56e8-7483-be7a-025e189cd361","0199d5ef-c7d4-7cab-a194-b2c3afbaf8e8","","null","<div style=""display: flex; justify-content: center; align-items: center;"">
                     <img src=""images/causal/causal_series_3/causal_series_3_c.png"" style=""width: 300px; height: 300px;"" />
                   </div>","null","3","1","C","",""
"","","","","","html-button-response","108","804509","0.0-88.0","5300013039424CEEBA19011179000E2E","0199d60f-56e8-7483-be7a-025e189cd361","0199d5ef-c7d4-7cab-a194-b2c3afbaf8e8","","3479","
        <div style=""display: flex; justify-content: center; align-items: center;"">
          <img src=""images/red_deck_2.png"" style=""width: 300px; height: 300px; margin-right: 10px;"" />
          <img src=""images/blue_deck_1.png"" style=""width: 300px; height: 300px;"" />
        </div>","0","3","1","choice","0",""
"","","","","","html-keyboard-response","109","810514","0.0-89.0-0.0-0.0","5300013039424CEEBA19011179000E2E","0199d60f-56e8-7483-be7a-025e189cd361","0199d5ef-c7d4-7cab-a194-b2c3afbaf8e8","","null","<div style=""display: flex; justify-content: center; align-items: center;"">
                     <img src=""images/causal/causal_series_3/causal_series_3_d.png"" style=""width: 300px; height: 300px;"" />
                   </div>","null","3","1","D","",""
"","","","","","html-keyboard-response","110","816516","0.0-89.0-0.0-1.0","5300013039424CEEBA19011179000E2E","0199d60f-56e8-7483-be7a-025e189cd361","0199d5ef-c7d4-7cab-a194-b2c3afbaf8e8","","null","<div style=""display: flex; justify-content: center; align-items: center;"">
                     <img src=""images/causal/causal_series_3/causal_series_3_e.png"" style=""width: 300px; height: 300px;"" />
                   </div>","null","3","1","E","",""
"","","","","","html-keyboard-response","111","822529","0.0-89.0-0.0-2.0","5300013039424CEEBA19011179000E2E","0199d60f-56e8-7483-be7a-025e189cd361","0199d5ef-c7d4-7cab-a194-b2c3afbaf8e8","","null","<div style=""display: flex; justify-content: center; align-items: center;"">
                     <img src=""images/causal/causal_series_3/causal_series_3_f.png"" style=""width: 300px; height: 300px;"" />
                   </div>","null","3","1","F","",""
"","","","","","survey-likert","112","832001","0.0-90.0","5300013039424CEEBA19011179000E2E","0199d60f-56e8-7483-be7a-025e189cd361","0199d5ef-c7d4-7cab-a194-b2c3afbaf8e8","","9472","","{""Q0"":0}","3","1","surprise_rating","","[0]"
"","","","","","survey-likert","113","835121","0.0-91.0","5300013039424CEEBA19011179000E2E","0199d60f-56e8-7483-be7a-025e189cd361","0199d5ef-c7d4-7cab-a194-b2c3afbaf8e8","","3119","","{""Q0"":1}","3","1","enjoyment_rating","","[0]"
"","","","","","html-keyboard-response","114","841135","0.0-92.0","5300013039424CEEBA19011179000E2E","0199d60f-56e8-7483-be7a-025e189cd361","0199d5ef-c7d4-7cab-a194-b2c3afbaf8e8","","null","<div style=""display: flex; justify-content: center; align-items: center;"">
                     <img src=""images/other/blank.png"" style=""width: 300px; height: 300px;"" />
                   </div>","null","0","0","blank","",""
"","","","","","html-keyboard-response","115","847146","0.0-93.0","5300013039424CEEBA19011179000E2E","0199d60f-56e8-7483-be7a-025e189cd361","0199d5ef-c7d4-7cab-a194-b2c3afbaf8e8","","null","<div style=""display: flex; justify-content: center; align-items: center;"">
                     <img src=""images/causal/causal_series_7/causal_series_7_a.png"" style=""width: 300px; height: 300px;"" />
                   </div>","null","7","1","A","",""
"","","","","","html-keyboard-response","116","853158","0.0-94.0","5300013039424CEEBA19011179000E2E","0199d60f-56e8-7483-be7a-025e189cd361","0199d5ef-c7d4-7cab-a194-b2c3afbaf8e8","","null","<div style=""display: flex; justify-content: center; align-items: center;"">
                     <img src=""images/causal/causal_series_7/causal_series_7_b.png"" style=""width: 300px; height: 300px;"" />
                   </div>","null","7","1","B","",""
"","","","","","html-keyboard-response","117","859171","0.0-95.0","5300013039424CEEBA19011179000E2E","0199d60f-56e8-7483-be7a-025e189cd361","0199d5ef-c7d4-7cab-a194-b2c3afbaf8e8","","null","<div style=""display: flex; justify-content: center; align-items: center;"">
                     <img src=""images/causal/causal_series_7/causal_series_7_c.png"" style=""width: 300px; height: 300px;"" />
                   </div>","null","7","1","C","",""
"","","","","","html-button-response","118","860284","0.0-96.0","5300013039424CEEBA19011179000E2E","0199d60f-56e8-7483-be7a-025e189cd361","0199d5ef-c7d4-7cab-a194-b2c3afbaf8e8","","1113","
        <div style=""display: flex; justify-content: center; align-items: center;"">
          <img src=""images/red_deck_2.png"" style=""width: 300px; height: 300px; margin-right: 10px;"" />
          <img src=""images/blue_deck_1.png"" style=""width: 300px; height: 300px;"" />
        </div>","0","7","1","choice","0",""
"","","","","","html-keyboard-response","119","866291","0.0-97.0-0.0-0.0","5300013039424CEEBA19011179000E2E","0199d60f-56e8-7483-be7a-025e189cd361","0199d5ef-c7d4-7cab-a194-b2c3afbaf8e8","","null","<div style=""display: flex; justify-content: center; align-items: center;"">
                     <img src=""images/causal/causal_series_7/causal_series_7_d.png"" style=""width: 300px; height: 300px;"" />
                   </div>","null","7","1","D","",""
"","","","","","html-keyboard-response","120","872302","0.0-97.0-0.0-1.0","5300013039424CEEBA19011179000E2E","0199d60f-56e8-7483-be7a-025e189cd361","0199d5ef-c7d4-7cab-a194-b2c3afbaf8e8","","null","<div style=""display: flex; justify-content: center; align-items: center;"">
                     <img src=""images/causal/causal_series_7/causal_series_7_e.png"" style=""width: 300px; height: 300px;"" />
                   </div>","null","7","1","E","",""
"","","","","","html-keyboard-response","121","878308","0.0-97.0-0.0-2.0","5300013039424CEEBA19011179000E2E","0199d60f-56e8-7483-be7a-025e189cd361","0199d5ef-c7d4-7cab-a194-b2c3afbaf8e8","","null","<div style=""display: flex; justify-content: center; align-items: center;"">
                     <img src=""images/causal/causal_series_7/causal_series_7_f.png"" style=""width: 300px; height: 300px;"" />
                   </div>","null","7","1","F","",""
"","","","","","survey-likert","122","885216","0.0-98.0","5300013039424CEEBA19011179000E2E","0199d60f-56e8-7483-be7a-025e189cd361","0199d5ef-c7d4-7cab-a194-b2c3afbaf8e8","","6907","","{""Q0"":4}","7","1","surprise_rating","","[0]"
"","","","","","survey-likert","123","888648","0.0-99.0","5300013039424CEEBA19011179000E2E","0199d60f-56e8-7483-be7a-025e189cd361","0199d5ef-c7d4-7cab-a194-b2c3afbaf8e8","","3432","","{""Q0"":3}","7","1","enjoyment_rating","","[0]"
"","","","","","html-keyboard-response","124","894663","0.0-100.0","5300013039424CEEBA19011179000E2E","0199d60f-56e8-7483-be7a-025e189cd361","0199d5ef-c7d4-7cab-a194-b2c3afbaf8e8","","null","<div style=""display: flex; justify-content: center; align-items: center;"">
                     <img src=""images/other/blank.png"" style=""width: 300px; height: 300px;"" />
                   </div>","null","0","0","blank","",""
"","","","","","html-keyboard-response","125","900675","0.0-101.0","5300013039424CEEBA19011179000E2E","0199d60f-56e8-7483-be7a-025e189cd361","0199d5ef-c7d4-7cab-a194-b2c3afbaf8e8","","null","<div style=""display: flex; justify-content: center; align-items: center;"">
                     <img src=""images/causal/causal_series_6/causal_series_6_a.png"" style=""width: 300px; height: 300px;"" />
                   </div>","null","6","2","A","",""
"","","","","","html-keyboard-response","126","906684","0.0-102.0","5300013039424CEEBA19011179000E2E","0199d60f-56e8-7483-be7a-025e189cd361","0199d5ef-c7d4-7cab-a194-b2c3afbaf8e8","","null","<div style=""display: flex; justify-content: center; align-items: center;"">
                     <img src=""images/causal/causal_series_6/causal_series_6_b.png"" style=""width: 300px; height: 300px;"" />
                   </div>","null","6","2","B","",""
"","","","","","html-keyboard-response","127","912690","0.0-103.0","5300013039424CEEBA19011179000E2E","0199d60f-56e8-7483-be7a-025e189cd361","0199d5ef-c7d4-7cab-a194-b2c3afbaf8e8","","null","<div style=""display: flex; justify-content: center; align-items: center;"">
                     <img src=""images/causal/causal_series_6/causal_series_6_c.png"" style=""width: 300px; height: 300px;"" />
                   </div>","null","6","2","C","",""
"","","","","","html-button-response","128","913548","0.0-104.0","5300013039424CEEBA19011179000E2E","0199d60f-56e8-7483-be7a-025e189cd361","0199d5ef-c7d4-7cab-a194-b2c3afbaf8e8","","857","
        <div style=""display: flex; justify-content: center; align-items: center;"">
          <img src=""images/red_deck_2.png"" style=""width: 300px; height: 300px; margin-right: 10px;"" />
          <img src=""images/blue_deck_1.png"" style=""width: 300px; height: 300px;"" />
        </div>","0","6","2","choice","0",""
"","","","","","html-keyboard-response","129","919556","0.0-105.0-0.0-0.0","5300013039424CEEBA19011179000E2E","0199d60f-56e8-7483-be7a-025e189cd361","0199d5ef-c7d4-7cab-a194-b2c3afbaf8e8","","null","<div style=""display: flex; justify-content: center; align-items: center;"">
                     <img src=""images/causal/causal_series_6/causal_series_6_d.png"" style=""width: 300px; height: 300px;"" />
                   </div>","null","6","2","D","",""
"","","","","","html-keyboard-response","130","925564","0.0-105.0-0.0-1.0","5300013039424CEEBA19011179000E2E","0199d60f-56e8-7483-be7a-025e189cd361","0199d5ef-c7d4-7cab-a194-b2c3afbaf8e8","","null","<div style=""display: flex; justify-content: center; align-items: center;"">
                     <img src=""images/causal/causal_series_6/causal_series_6_e.png"" style=""width: 300px; height: 300px;"" />
                   </div>","null","6","2","E","",""
"","","","","","html-keyboard-response","131","931580","0.0-105.0-0.0-2.0","5300013039424CEEBA19011179000E2E","0199d60f-56e8-7483-be7a-025e189cd361","0199d5ef-c7d4-7cab-a194-b2c3afbaf8e8","","null","<div style=""display: flex; justify-content: center; align-items: center;"">
                     <img src=""images/causal/causal_series_6/causal_series_6_f.png"" style=""width: 300px; height: 300px;"" />
                   </div>","null","6","2","F","",""
"","","","","","survey-likert","132","934328","0.0-106.0","5300013039424CEEBA19011179000E2E","0199d60f-56e8-7483-be7a-025e189cd361","0199d5ef-c7d4-7cab-a194-b2c3afbaf8e8","","2747","","{""Q0"":0}","6","2","surprise_rating","","[0]"
"","","","","","survey-likert","133","937631","0.0-107.0","5300013039424CEEBA19011179000E2E","0199d60f-56e8-7483-be7a-025e189cd361","0199d5ef-c7d4-7cab-a194-b2c3afbaf8e8","","3303","","{""Q0"":2}","6","2","enjoyment_rating","","[0]"
"","","","","","html-keyboard-response","134","943635","0.0-108.0","5300013039424CEEBA19011179000E2E","0199d60f-56e8-7483-be7a-025e189cd361","0199d5ef-c7d4-7cab-a194-b2c3afbaf8e8","","null","<div style=""display: flex; justify-content: center; align-items: center;"">
                     <img src=""images/other/blank.png"" style=""width: 300px; height: 300px;"" />
                   </div>","null","0","0","blank","",""
"","","","","","html-keyboard-response","135","949645","0.0-109.0","5300013039424CEEBA19011179000E2E","0199d60f-56e8-7483-be7a-025e189cd361","0199d5ef-c7d4-7cab-a194-b2c3afbaf8e8","","null","<div style=""display: flex; justify-content: center; align-items: center;"">
                     <img src=""images/causal/causal_series_3/causal_series_3_a.png"" style=""width: 300px; height: 300px;"" />
                   </div>","null","3","2","A","",""
"","","","","","html-keyboard-response","136","955647","0.0-110.0","5300013039424CEEBA19011179000E2E","0199d60f-56e8-7483-be7a-025e189cd361","0199d5ef-c7d4-7cab-a194-b2c3afbaf8e8","","null","<div style=""display: flex; justify-content: center; align-items: center;"">
                     <img src=""images/causal/causal_series_3/causal_series_3_b.png"" style=""width: 300px; height: 300px;"" />
                   </div>","null","3","2","B","",""
"","","","","","html-keyboard-response","137","961658","0.0-111.0","5300013039424CEEBA19011179000E2E","0199d60f-56e8-7483-be7a-025e189cd361","0199d5ef-c7d4-7cab-a194-b2c3afbaf8e8","","null","<div style=""display: flex; justify-content: center; align-items: center;"">
                     <img src=""images/causal/causal_series_3/causal_series_3_c.png"" style=""width: 300px; height: 300px;"" />
                   </div>","null","3","2","C","",""
"","","","","","html-button-response","138","962644","0.0-112.0","5300013039424CEEBA19011179000E2E","0199d60f-56e8-7483-be7a-025e189cd361","0199d5ef-c7d4-7cab-a194-b2c3afbaf8e8","","986","
        <div style=""display: flex; justify-content: center; align-items: center;"">
          <img src=""images/red_deck_2.png"" style=""width: 300px; height: 300px; margin-right: 10px;"" />
          <img src=""images/blue_deck_1.png"" style=""width: 300px; height: 300px;"" />
        </div>","1","3","2","choice","1",""
"","","","","","html-keyboard-response","139","968655","0.0-113.0-1.0-0.0","5300013039424CEEBA19011179000E2E","0199d60f-56e8-7483-be7a-025e189cd361","0199d5ef-c7d4-7cab-a194-b2c3afbaf8e8","","null","<div style=""display: flex; justify-content: center; align-items: center;"">
                     <img src=""images/semantic/semantic_series_3/semantic_series_3_d.png"" style=""width: 300px; height: 300px;"" />
                   </div>","null","3","2","D","",""
"","","","","","html-keyboard-response","140","974662","0.0-113.0-1.0-1.0","5300013039424CEEBA19011179000E2E","0199d60f-56e8-7483-be7a-025e189cd361","0199d5ef-c7d4-7cab-a194-b2c3afbaf8e8","","null","<div style=""display: flex; justify-content: center; align-items: center;"">
                     <img src=""images/semantic/semantic_series_3/semantic_series_3_e.png"" style=""width: 300px; height: 300px;"" />
                   </div>","null","3","2","E","",""
"","","","","","html-keyboard-response","141","980672","0.0-113.0-1.0-2.0","5300013039424CEEBA19011179000E2E","0199d60f-56e8-7483-be7a-025e189cd361","0199d5ef-c7d4-7cab-a194-b2c3afbaf8e8","","null","<div style=""display: flex; justify-content: center; align-items: center;"">
                     <img src=""images/semantic/semantic_series_3/semantic_series_3_f.png"" style=""width: 300px; height: 300px;"" />
                   </div>","null","3","2","F","",""
"","","","","","survey-likert","142","983727","0.0-114.0","5300013039424CEEBA19011179000E2E","0199d60f-56e8-7483-be7a-025e189cd361","0199d5ef-c7d4-7cab-a194-b2c3afbaf8e8","","3055","","{""Q0"":4}","3","2","surprise_rating","","[0]"
"","","","","","survey-likert","143","985054","0.0-115.0","5300013039424CEEBA19011179000E2E","0199d60f-56e8-7483-be7a-025e189cd361","0199d5ef-c7d4-7cab-a194-b2c3afbaf8e8","","1326","","{""Q0"":2}","3","2","enjoyment_rating","","[0]"
"","","","","","html-keyboard-response","144","991055","0.0-116.0","5300013039424CEEBA19011179000E2E","0199d60f-56e8-7483-be7a-025e189cd361","0199d5ef-c7d4-7cab-a194-b2c3afbaf8e8","","null","<div style=""display: flex; justify-content: center; align-items: center;"">
                     <img src=""images/other/blank.png"" style=""width: 300px; height: 300px;"" />
                   </div>","null","0","0","blank","",""
"","","","","","html-keyboard-response","145","997072","0.0-117.0","5300013039424CEEBA19011179000E2E","0199d60f-56e8-7483-be7a-025e189cd361","0199d5ef-c7d4-7cab-a194-b2c3afbaf8e8","","null","<div style=""display: flex; justify-content: center; align-items: center;"">
                     <img src=""images/causal/causal_series_5/causal_series_5_a.png"" style=""width: 300px; height: 300px;"" />
                   </div>","null","5","2","A","",""
"","","","","","html-keyboard-response","146","1003087","0.0-118.0","5300013039424CEEBA19011179000E2E","0199d60f-56e8-7483-be7a-025e189cd361","0199d5ef-c7d4-7cab-a194-b2c3afbaf8e8","","null","<div style=""display: flex; justify-content: center; align-items: center;"">
                     <img src=""images/causal/causal_series_5/causal_series_5_b.png"" style=""width: 300px; height: 300px;"" />
                   </div>","null","5","2","B","",""
"","","","","","html-keyboard-response","147","1009089","0.0-119.0","5300013039424CEEBA19011179000E2E","0199d60f-56e8-7483-be7a-025e189cd361","0199d5ef-c7d4-7cab-a194-b2c3afbaf8e8","","null","<div style=""display: flex; justify-content: center; align-items: center;"">
                     <img src=""images/causal/causal_series_5/causal_series_5_c.png"" style=""width: 300px; height: 300px;"" />
                   </div>","null","5","2","C","",""
"","","","","","html-button-response","148","1010442","0.0-120.0","5300013039424CEEBA19011179000E2E","0199d60f-56e8-7483-be7a-025e189cd361","0199d5ef-c7d4-7cab-a194-b2c3afbaf8e8","","1352","
        <div style=""display: flex; justify-content: center; align-items: center;"">
          <img src=""images/red_deck_2.png"" style=""width: 300px; height: 300px; margin-right: 10px;"" />
          <img src=""images/blue_deck_1.png"" style=""width: 300px; height: 300px;"" />
        </div>","0","5","2","choice","0",""
"","","","","","html-keyboard-response","149","1016449","0.0-121.0-0.0-0.0","5300013039424CEEBA19011179000E2E","0199d60f-56e8-7483-be7a-025e189cd361","0199d5ef-c7d4-7cab-a194-b2c3afbaf8e8","","null","<div style=""display: flex; justify-content: center; align-items: center;"">
                     <img src=""images/causal/causal_series_5/causal_series_5_d.png"" style=""width: 300px; height: 300px;"" />
                   </div>","null","5","2","D","",""
"","","","","","html-keyboard-response","150","1022454","0.0-121.0-0.0-1.0","5300013039424CEEBA19011179000E2E","0199d60f-56e8-7483-be7a-025e189cd361","0199d5ef-c7d4-7cab-a194-b2c3afbaf8e8","","null","<div style=""display: flex; justify-content: center; align-items: center;"">
                     <img src=""images/causal/causal_series_5/causal_series_5_e.png"" style=""width: 300px; height: 300px;"" />
                   </div>","null","5","2","E","",""
"","","","","","html-keyboard-response","151","1028462","0.0-121.0-0.0-2.0","5300013039424CEEBA19011179000E2E","0199d60f-56e8-7483-be7a-025e189cd361","0199d5ef-c7d4-7cab-a194-b2c3afbaf8e8","","null","<div style=""display: flex; justify-content: center; align-items: center;"">
                     <img src=""images/causal/causal_series_5/causal_series_5_f.png"" style=""width: 300px; height: 300px;"" />
                   </div>","null","5","2","F","",""
"","","","","","survey-likert","152","1031221","0.0-122.0","5300013039424CEEBA19011179000E2E","0199d60f-56e8-7483-be7a-025e189cd361","0199d5ef-c7d4-7cab-a194-b2c3afbaf8e8","","2758","","{""Q0"":4}","5","2","surprise_rating","","[0]"
"","","","","","survey-likert","153","1032533","0.0-123.0","5300013039424CEEBA19011179000E2E","0199d60f-56e8-7483-be7a-025e189cd361","0199d5ef-c7d4-7cab-a194-b2c3afbaf8e8","","1312","","{""Q0"":2}","5","2","enjoyment_rating","","[0]"
"","","","","","html-keyboard-response","154","1038535","0.0-124.0","5300013039424CEEBA19011179000E2E","0199d60f-56e8-7483-be7a-025e189cd361","0199d5ef-c7d4-7cab-a194-b2c3afbaf8e8","","null","<div style=""display: flex; justify-content: center; align-items: center;"">
                     <img src=""images/other/blank.png"" style=""width: 300px; height: 300px;"" />
                   </div>","null","0","0","blank","",""
"","","","","","html-keyboard-response","155","1044540","0.0-125.0","5300013039424CEEBA19011179000E2E","0199d60f-56e8-7483-be7a-025e189cd361","0199d5ef-c7d4-7cab-a194-b2c3afbaf8e8","","null","<div style=""display: flex; justify-content: center; align-items: center;"">
                     <img src=""images/causal/causal_series_1/causal_series_1_a.png"" style=""width: 300px; height: 300px;"" />
                   </div>","null","1","2","A","",""
"","","","","","html-keyboard-response","156","1050554","0.0-126.0","5300013039424CEEBA19011179000E2E","0199d60f-56e8-7483-be7a-025e189cd361","0199d5ef-c7d4-7cab-a194-b2c3afbaf8e8","","null","<div style=""display: flex; justify-content: center; align-items: center;"">
                     <img src=""images/causal/causal_series_1/causal_series_1_b.png"" style=""width: 300px; height: 300px;"" />
                   </div>","null","1","2","B","",""
"","","","","","html-keyboard-response","157","1056559","0.0-127.0","5300013039424CEEBA19011179000E2E","0199d60f-56e8-7483-be7a-025e189cd361","0199d5ef-c7d4-7cab-a194-b2c3afbaf8e8","","null","<div style=""display: flex; justify-content: center; align-items: center;"">
                     <img src=""images/causal/causal_series_1/causal_series_1_c.png"" style=""width: 300px; height: 300px;"" />
                   </div>","null","1","2","C","",""
"","","","","","html-button-response","158","1057528","0.0-128.0","5300013039424CEEBA19011179000E2E","0199d60f-56e8-7483-be7a-025e189cd361","0199d5ef-c7d4-7cab-a194-b2c3afbaf8e8","","968","
        <div style=""display: flex; justify-content: center; align-items: center;"">
          <img src=""images/red_deck_2.png"" style=""width: 300px; height: 300px; margin-right: 10px;"" />
          <img src=""images/blue_deck_1.png"" style=""width: 300px; height: 300px;"" />
        </div>","0","1","2","choice","0",""
"","","","","","html-keyboard-response","159","1063536","0.0-129.0-0.0-0.0","5300013039424CEEBA19011179000E2E","0199d60f-56e8-7483-be7a-025e189cd361","0199d5ef-c7d4-7cab-a194-b2c3afbaf8e8","","null","<div style=""display: flex; justify-content: center; align-items: center;"">
                     <img src=""images/causal/causal_series_1/causal_series_1_d.png"" style=""width: 300px; height: 300px;"" />
                   </div>","null","1","2","D","",""
"","","","","","html-keyboard-response","160","1069545","0.0-129.0-0.0-1.0","5300013039424CEEBA19011179000E2E","0199d60f-56e8-7483-be7a-025e189cd361","0199d5ef-c7d4-7cab-a194-b2c3afbaf8e8","","null","<div style=""display: flex; justify-content: center; align-items: center;"">
                     <img src=""images/causal/causal_series_1/causal_series_1_e.png"" style=""width: 300px; height: 300px;"" />
                   </div>","null","1","2","E","",""
"","","","","","html-keyboard-response","161","1075546","0.0-129.0-0.0-2.0","5300013039424CEEBA19011179000E2E","0199d60f-56e8-7483-be7a-025e189cd361","0199d5ef-c7d4-7cab-a194-b2c3afbaf8e8","","null","<div style=""display: flex; justify-content: center; align-items: center;"">
                     <img src=""images/causal/causal_series_1/causal_series_1_f.png"" style=""width: 300px; height: 300px;"" />
                   </div>","null","1","2","F","",""
"","","","","","survey-likert","162","1079531","0.0-130.0","5300013039424CEEBA19011179000E2E","0199d60f-56e8-7483-be7a-025e189cd361","0199d5ef-c7d4-7cab-a194-b2c3afbaf8e8","","3984","","{""Q0"":4}","1","2","surprise_rating","","[0]"
"","","","","","survey-likert","163","1081108","0.0-131.0","5300013039424CEEBA19011179000E2E","0199d60f-56e8-7483-be7a-025e189cd361","0199d5ef-c7d4-7cab-a194-b2c3afbaf8e8","","1576","","{""Q0"":3}","1","2","enjoyment_rating","","[0]"
"","","","","","html-keyboard-response","164","1087112","0.0-132.0","5300013039424CEEBA19011179000E2E","0199d60f-56e8-7483-be7a-025e189cd361","0199d5ef-c7d4-7cab-a194-b2c3afbaf8e8","","null","<div style=""display: flex; justify-content: center; align-items: center;"">
                     <img src=""images/other/blank.png"" style=""width: 300px; height: 300px;"" />
                   </div>","null","0","0","blank","",""
"","","","","","html-keyboard-response","165","1093116","0.0-133.0","5300013039424CEEBA19011179000E2E","0199d60f-56e8-7483-be7a-025e189cd361","0199d5ef-c7d4-7cab-a194-b2c3afbaf8e8","","null","<div style=""display: flex; justify-content: center; align-items: center;"">
                     <img src=""images/causal/causal_series_2/causal_series_2_a.png"" style=""width: 300px; height: 300px;"" />
                   </div>","null","2","2","A","",""
"","","","","","html-keyboard-response","166","1099131","0.0-134.0","5300013039424CEEBA19011179000E2E","0199d60f-56e8-7483-be7a-025e189cd361","0199d5ef-c7d4-7cab-a194-b2c3afbaf8e8","","null","<div style=""display: flex; justify-content: center; align-items: center;"">
                     <img src=""images/causal/causal_series_2/causal_series_2_b.png"" style=""width: 300px; height: 300px;"" />
                   </div>","null","2","2","B","",""
"","","","","","html-keyboard-response","167","1105139","0.0-135.0","5300013039424CEEBA19011179000E2E","0199d60f-56e8-7483-be7a-025e189cd361","0199d5ef-c7d4-7cab-a194-b2c3afbaf8e8","","null","<div style=""display: flex; justify-content: center; align-items: center;"">
                     <img src=""images/causal/causal_series_2/causal_series_2_c.png"" style=""width: 300px; height: 300px;"" />
                   </div>","null","2","2","C","",""
"","","","","","html-button-response","168","1112305","0.0-136.0","5300013039424CEEBA19011179000E2E","0199d60f-56e8-7483-be7a-025e189cd361","0199d5ef-c7d4-7cab-a194-b2c3afbaf8e8","","7165","
        <div style=""display: flex; justify-content: center; align-items: center;"">
          <img src=""images/red_deck_2.png"" style=""width: 300px; height: 300px; margin-right: 10px;"" />
          <img src=""images/blue_deck_1.png"" style=""width: 300px; height: 300px;"" />
        </div>","0","2","2","choice","0",""
"","","","","","html-keyboard-response","169","1118310","0.0-137.0-0.0-0.0","5300013039424CEEBA19011179000E2E","0199d60f-56e8-7483-be7a-025e189cd361","0199d5ef-c7d4-7cab-a194-b2c3afbaf8e8","","null","<div style=""display: flex; justify-content: center; align-items: center;"">
                     <img src=""images/causal/causal_series_2/causal_series_2_d.png"" style=""width: 300px; height: 300px;"" />
                   </div>","null","2","2","D","",""
"","","","","","html-keyboard-response","170","1124327","0.0-137.0-0.0-1.0","5300013039424CEEBA19011179000E2E","0199d60f-56e8-7483-be7a-025e189cd361","0199d5ef-c7d4-7cab-a194-b2c3afbaf8e8","","null","<div style=""display: flex; justify-content: center; align-items: center;"">
                     <img src=""images/causal/causal_series_2/causal_series_2_e.png"" style=""width: 300px; height: 300px;"" />
                   </div>","null","2","2","E","",""
"","","","","","html-keyboard-response","171","1130328","0.0-137.0-0.0-2.0","5300013039424CEEBA19011179000E2E","0199d60f-56e8-7483-be7a-025e189cd361","0199d5ef-c7d4-7cab-a194-b2c3afbaf8e8","","null","<div style=""display: flex; justify-content: center; align-items: center;"">
                     <img src=""images/causal/causal_series_2/causal_series_2_f.png"" style=""width: 300px; height: 300px;"" />
                   </div>","null","2","2","F","",""
"","","","","","survey-likert","172","1135476","0.0-138.0","5300013039424CEEBA19011179000E2E","0199d60f-56e8-7483-be7a-025e189cd361","0199d5ef-c7d4-7cab-a194-b2c3afbaf8e8","","5148","","{""Q0"":4}","2","2","surprise_rating","","[0]"
"","","","","","survey-likert","173","1136964","0.0-139.0","5300013039424CEEBA19011179000E2E","0199d60f-56e8-7483-be7a-025e189cd361","0199d5ef-c7d4-7cab-a194-b2c3afbaf8e8","","1487","","{""Q0"":2}","2","2","enjoyment_rating","","[0]"
"","","","","","html-keyboard-response","174","1142967","0.0-140.0","5300013039424CEEBA19011179000E2E","0199d60f-56e8-7483-be7a-025e189cd361","0199d5ef-c7d4-7cab-a194-b2c3afbaf8e8","","null","<div style=""display: flex; justify-content: center; align-items: center;"">
                     <img src=""images/other/blank.png"" style=""width: 300px; height: 300px;"" />
                   </div>","null","0","0","blank","",""
"","","","","","html-keyboard-response","175","1148973","0.0-141.0","5300013039424CEEBA19011179000E2E","0199d60f-56e8-7483-be7a-025e189cd361","0199d5ef-c7d4-7cab-a194-b2c3afbaf8e8","","null","<div style=""display: flex; justify-content: center; align-items: center;"">
                     <img src=""images/causal/causal_series_5/causal_series_5_a.png"" style=""width: 300px; height: 300px;"" />
                   </div>","null","5","1","A","",""
"","","","","","html-keyboard-response","176","1154978","0.0-142.0","5300013039424CEEBA19011179000E2E","0199d60f-56e8-7483-be7a-025e189cd361","0199d5ef-c7d4-7cab-a194-b2c3afbaf8e8","","null","<div style=""display: flex; justify-content: center; align-items: center;"">
                     <img src=""images/causal/causal_series_5/causal_series_5_b.png"" style=""width: 300px; height: 300px;"" />
                   </div>","null","5","1","B","",""
"","","","","","html-keyboard-response","177","1160992","0.0-143.0","5300013039424CEEBA19011179000E2E","0199d60f-56e8-7483-be7a-025e189cd361","0199d5ef-c7d4-7cab-a194-b2c3afbaf8e8","","null","<div style=""display: flex; justify-content: center; align-items: center;"">
                     <img src=""images/causal/causal_series_5/causal_series_5_c.png"" style=""width: 300px; height: 300px;"" />
                   </div>","null","5","1","C","",""
"","","","","","html-button-response","178","1163495","0.0-144.0","5300013039424CEEBA19011179000E2E","0199d60f-56e8-7483-be7a-025e189cd361","0199d5ef-c7d4-7cab-a194-b2c3afbaf8e8","","2502","
        <div style=""display: flex; justify-content: center; align-items: center;"">
          <img src=""images/red_deck_2.png"" style=""width: 300px; height: 300px; margin-right: 10px;"" />
          <img src=""images/blue_deck_1.png"" style=""width: 300px; height: 300px;"" />
        </div>","1","5","1","choice","1",""
"","","","","","html-keyboard-response","179","1169498","0.0-145.0-1.0-0.0","5300013039424CEEBA19011179000E2E","0199d60f-56e8-7483-be7a-025e189cd361","0199d5ef-c7d4-7cab-a194-b2c3afbaf8e8","","null","<div style=""display: flex; justify-content: center; align-items: center;"">
                     <img src=""images/semantic/semantic_series_5/semantic_series_5_d.png"" style=""width: 300px; height: 300px;"" />
                   </div>","null","5","1","D","",""
"","","","","","html-keyboard-response","180","1175512","0.0-145.0-1.0-1.0","5300013039424CEEBA19011179000E2E","0199d60f-56e8-7483-be7a-025e189cd361","0199d5ef-c7d4-7cab-a194-b2c3afbaf8e8","","null","<div style=""display: flex; justify-content: center; align-items: center;"">
                     <img src=""images/semantic/semantic_series_5/semantic_series_5_e.png"" style=""width: 300px; height: 300px;"" />
                   </div>","null","5","1","E","",""
"","","","","","html-keyboard-response","181","1181521","0.0-145.0-1.0-2.0","5300013039424CEEBA19011179000E2E","0199d60f-56e8-7483-be7a-025e189cd361","0199d5ef-c7d4-7cab-a194-b2c3afbaf8e8","","null","<div style=""display: flex; justify-content: center; align-items: center;"">
                     <img src=""images/semantic/semantic_series_5/semantic_series_5_f.png"" style=""width: 300px; height: 300px;"" />
                   </div>","null","5","1","F","",""
"","","","","","survey-likert","182","1183139","0.0-146.0","5300013039424CEEBA19011179000E2E","0199d60f-56e8-7483-be7a-025e189cd361","0199d5ef-c7d4-7cab-a194-b2c3afbaf8e8","","1617","","{""Q0"":4}","5","1","surprise_rating","","[0]"
"","","","","","survey-likert","183","1185628","0.0-147.0","5300013039424CEEBA19011179000E2E","0199d60f-56e8-7483-be7a-025e189cd361","0199d5ef-c7d4-7cab-a194-b2c3afbaf8e8","","2489","","{""Q0"":2}","5","1","enjoyment_rating","","[0]"
"","","","","","html-keyboard-response","184","1191634","0.0-148.0","5300013039424CEEBA19011179000E2E","0199d60f-56e8-7483-be7a-025e189cd361","0199d5ef-c7d4-7cab-a194-b2c3afbaf8e8","","null","<div style=""display: flex; justify-content: center; align-items: center;"">
                     <img src=""images/other/blank.png"" style=""width: 300px; height: 300px;"" />
                   </div>","null","0","0","blank","",""
"","","","","","html-keyboard-response","185","1197642","0.0-149.0","5300013039424CEEBA19011179000E2E","0199d60f-56e8-7483-be7a-025e189cd361","0199d5ef-c7d4-7cab-a194-b2c3afbaf8e8","","null","<div style=""display: flex; justify-content: center; align-items: center;"">
                     <img src=""images/causal/causal_series_8/causal_series_8_a.png"" style=""width: 300px; height: 300px;"" />
                   </div>","null","8","1","A","",""
"","","","","","html-keyboard-response","186","1203653","0.0-150.0","5300013039424CEEBA19011179000E2E","0199d60f-56e8-7483-be7a-025e189cd361","0199d5ef-c7d4-7cab-a194-b2c3afbaf8e8","","null","<div style=""display: flex; justify-content: center; align-items: center;"">
                     <img src=""images/causal/causal_series_8/causal_series_8_b.png"" style=""width: 300px; height: 300px;"" />
                   </div>","null","8","1","B","",""
"","","","","","html-keyboard-response","187","1209662","0.0-151.0","5300013039424CEEBA19011179000E2E","0199d60f-56e8-7483-be7a-025e189cd361","0199d5ef-c7d4-7cab-a194-b2c3afbaf8e8","","null","<div style=""display: flex; justify-content: center; align-items: center;"">
                     <img src=""images/causal/causal_series_8/causal_series_8_c.png"" style=""width: 300px; height: 300px;"" />
                   </div>","null","8","1","C","",""
"","","","","","html-button-response","188","1214286","0.0-152.0","5300013039424CEEBA19011179000E2E","0199d60f-56e8-7483-be7a-025e189cd361","0199d5ef-c7d4-7cab-a194-b2c3afbaf8e8","","4623","
        <div style=""display: flex; justify-content: center; align-items: center;"">
          <img src=""images/red_deck_2.png"" style=""width: 300px; height: 300px; margin-right: 10px;"" />
          <img src=""images/blue_deck_1.png"" style=""width: 300px; height: 300px;"" />
        </div>","0","8","1","choice","0",""
"","","","","","html-keyboard-response","189","1220294","0.0-153.0-0.0-0.0","5300013039424CEEBA19011179000E2E","0199d60f-56e8-7483-be7a-025e189cd361","0199d5ef-c7d4-7cab-a194-b2c3afbaf8e8","","null","<div style=""display: flex; justify-content: center; align-items: center;"">
                     <img src=""images/causal/causal_series_8/causal_series_8_d.png"" style=""width: 300px; height: 300px;"" />
                   </div>","null","8","1","D","",""
"","","","","","html-keyboard-response","190","1226305","0.0-153.0-0.0-1.0","5300013039424CEEBA19011179000E2E","0199d60f-56e8-7483-be7a-025e189cd361","0199d5ef-c7d4-7cab-a194-b2c3afbaf8e8","","null","<div style=""display: flex; justify-content: center; align-items: center;"">
                     <img src=""images/causal/causal_series_8/causal_series_8_e.png"" style=""width: 300px; height: 300px;"" />
                   </div>","null","8","1","E","",""
"","","","","","html-keyboard-response","191","1232306","0.0-153.0-0.0-2.0","5300013039424CEEBA19011179000E2E","0199d60f-56e8-7483-be7a-025e189cd361","0199d5ef-c7d4-7cab-a194-b2c3afbaf8e8","","null","<div style=""display: flex; justify-content: center; align-items: center;"">
                     <img src=""images/causal/causal_series_8/causal_series_8_f.png"" style=""width: 300px; height: 300px;"" />
                   </div>","null","8","1","F","",""
"","","","","","survey-likert","192","1245829","0.0-154.0","5300013039424CEEBA19011179000E2E","0199d60f-56e8-7483-be7a-025e189cd361","0199d5ef-c7d4-7cab-a194-b2c3afbaf8e8","","13522","","{""Q0"":4}","8","1","surprise_rating","","[0]"
"","","","","","survey-likert","193","1251100","0.0-155.0","5300013039424CEEBA19011179000E2E","0199d60f-56e8-7483-be7a-025e189cd361","0199d5ef-c7d4-7cab-a194-b2c3afbaf8e8","","5271","","{""Q0"":2}","8","1","enjoyment_rating","","[0]"
"","","","","","html-keyboard-response","194","1257114","0.0-156.0","5300013039424CEEBA19011179000E2E","0199d60f-56e8-7483-be7a-025e189cd361","0199d5ef-c7d4-7cab-a194-b2c3afbaf8e8","","null","<div style=""display: flex; justify-content: center; align-items: center;"">
                     <img src=""images/other/blank.png"" style=""width: 300px; height: 300px;"" />
                   </div>","null","0","0","blank","",""
"","","","","","html-keyboard-response","195","1263116","0.0-157.0","5300013039424CEEBA19011179000E2E","0199d60f-56e8-7483-be7a-025e189cd361","0199d5ef-c7d4-7cab-a194-b2c3afbaf8e8","","null","<div style=""display: flex; justify-content: center; align-items: center;"">
                     <img src=""images/causal/causal_series_8/causal_series_8_a.png"" style=""width: 300px; height: 300px;"" />
                   </div>","null","8","2","A","",""
"","","","","","html-keyboard-response","196","1269128","0.0-158.0","5300013039424CEEBA19011179000E2E","0199d60f-56e8-7483-be7a-025e189cd361","0199d5ef-c7d4-7cab-a194-b2c3afbaf8e8","","null","<div style=""display: flex; justify-content: center; align-items: center;"">
                     <img src=""images/causal/causal_series_8/causal_series_8_b.png"" style=""width: 300px; height: 300px;"" />
                   </div>","null","8","2","B","",""
"","","","","","html-keyboard-response","197","1275136","0.0-159.0","5300013039424CEEBA19011179000E2E","0199d60f-56e8-7483-be7a-025e189cd361","0199d5ef-c7d4-7cab-a194-b2c3afbaf8e8","","null","<div style=""display: flex; justify-content: center; align-items: center;"">
                     <img src=""images/causal/causal_series_8/causal_series_8_c.png"" style=""width: 300px; height: 300px;"" />
                   </div>","null","8","2","C","",""
"","","","","","html-button-response","198","1275960","0.0-160.0","5300013039424CEEBA19011179000E2E","0199d60f-56e8-7483-be7a-025e189cd361","0199d5ef-c7d4-7cab-a194-b2c3afbaf8e8","","822","
        <div style=""display: flex; justify-content: center; align-items: center;"">
          <img src=""images/red_deck_2.png"" style=""width: 300px; height: 300px; margin-right: 10px;"" />
          <img src=""images/blue_deck_1.png"" style=""width: 300px; height: 300px;"" />
        </div>","1","8","2","choice","1",""
"","","","","","html-keyboard-response","199","1281969","0.0-161.0-1.0-0.0","5300013039424CEEBA19011179000E2E","0199d60f-56e8-7483-be7a-025e189cd361","0199d5ef-c7d4-7cab-a194-b2c3afbaf8e8","","null","<div style=""display: flex; justify-content: center; align-items: center;"">
                     <img src=""images/semantic/semantic_series_8/semantic_series_8_d.png"" style=""width: 300px; height: 300px;"" />
                   </div>","null","8","2","D","",""
"","","","","","html-keyboard-response","200","1287983","0.0-161.0-1.0-1.0","5300013039424CEEBA19011179000E2E","0199d60f-56e8-7483-be7a-025e189cd361","0199d5ef-c7d4-7cab-a194-b2c3afbaf8e8","","null","<div style=""display: flex; justify-content: center; align-items: center;"">
                     <img src=""images/semantic/semantic_series_8/semantic_series_8_e.png"" style=""width: 300px; height: 300px;"" />
                   </div>","null","8","2","E","",""
"","","","","","html-keyboard-response","201","1293997","0.0-161.0-1.0-2.0","5300013039424CEEBA19011179000E2E","0199d60f-56e8-7483-be7a-025e189cd361","0199d5ef-c7d4-7cab-a194-b2c3afbaf8e8","","null","<div style=""display: flex; justify-content: center; align-items: center;"">
                     <img src=""images/semantic/semantic_series_8/semantic_series_8_f.png"" style=""width: 300px; height: 300px;"" />
                   </div>","null","8","2","F","",""
"","","","","","survey-likert","202","1295834","0.0-162.0","5300013039424CEEBA19011179000E2E","0199d60f-56e8-7483-be7a-025e189cd361","0199d5ef-c7d4-7cab-a194-b2c3afbaf8e8","","1837","","{""Q0"":4}","8","2","surprise_rating","","[0]"
"","","","","","survey-likert","203","1297051","0.0-163.0","5300013039424CEEBA19011179000E2E","0199d60f-56e8-7483-be7a-025e189cd361","0199d5ef-c7d4-7cab-a194-b2c3afbaf8e8","","1216","","{""Q0"":2}","8","2","enjoyment_rating","","[0]"
"","","","","","html-keyboard-response","204","1303061","0.0-164.0","5300013039424CEEBA19011179000E2E","0199d60f-56e8-7483-be7a-025e189cd361","0199d5ef-c7d4-7cab-a194-b2c3afbaf8e8","","null","<div style=""display: flex; justify-content: center; align-items: center;"">
                     <img src=""images/other/blank.png"" style=""width: 300px; height: 300px;"" />
                   </div>","null","0","0","blank","",""
"","","","","","survey-text","205","1332616","0.0-165.0","5300013039424CEEBA19011179000E2E","0199d60f-56e8-7483-be7a-025e189cd361","0199d5ef-c7d4-7cab-a194-b2c3afbaf8e8","","29553","","{""Q0"":""One deck seemed realistic while the others read like random dream sequences""}","","","","",""
"","","","","","html-button-response","206","1352882","0.0-166.0","5300013039424CEEBA19011179000E2E","0199d60f-56e8-7483-be7a-025e189cd361","0199d5ef-c7d4-7cab-a194-b2c3afbaf8e8","","20266","Which color deck do the following sentences continue the story from?","0","","","","",""
"","","","","","html-button-response","207","1356307","0.0-167.0","5300013039424CEEBA19011179000E2E","0199d60f-56e8-7483-be7a-025e189cd361","0199d5ef-c7d4-7cab-a194-b2c3afbaf8e8","","3424","Which color deck do the following sentences NOT follow the story from?","1","","","","",""
"","","","","","html-button-response","208","1363924","0.0-168.0","5300013039424CEEBA19011179000E2E","0199d60f-56e8-7483-be7a-025e189cd361","0199d5ef-c7d4-7cab-a194-b2c3afbaf8e8","","7617","Which type of deck did you prefer overall?","0","","","","",""
"","","","","","survey-text","209","1410827","0.0-169.0","5300013039424CEEBA19011179000E2E","0199d60f-56e8-7483-be7a-025e189cd361","0199d5ef-c7d4-7cab-a194-b2c3afbaf8e8","","46901","","{""Q0"":""male"",""Q1"":""29""}","","","","",""
"","","","","","instructions","210","1423509","0.0-170.0","5300013039424CEEBA19011179000E2E","0199d60f-56e8-7483-be7a-025e189cd361","0199d5ef-c7d4-7cab-a194-b2c3afbaf8e8","[{""page_index"":0,""viewing_time"":12681}]","12681","","","","","","",""
