"success","timeout","failed_images","failed_audio","failed_video","trial_type","trial_index","time_elapsed","internal_node_id","subject_id","study_id","session_id","view_history","rt","stimulus","response","choice"
"true","false","[]","[]","[]","preload","0","5238","0.0-0.0","AE5BB3054A9A46FABF7249C579A08B44","9ce5c989-d085-4250-a2b9-216b8d29b14d","683bf07d-1a26-40b1-9cff-5abdc1eed0ee","","","","",""
"","","","","","instructions","1","21061","0.0-1.0","AE5BB3054A9A46FABF7249C579A08B44","9ce5c989-d085-4250-a2b9-216b8d29b14d","683bf07d-1a26-40b1-9cff-5abdc1eed0ee","[{""page_index"":0,""viewing_time"":15821}]","15822","","",""
"","","","","","instructions","2","26609","0.0-2.0","AE5BB3054A9A46FABF7249C579A08B44","9ce5c989-d085-4250-a2b9-216b8d29b14d","683bf07d-1a26-40b1-9cff-5abdc1eed0ee","[{""page_index"":0,""viewing_time"":5547}]","5547","","",""
"true","","","","","fullscreen","3","48137","0.0-3.0","AE5BB3054A9A46FABF7249C579A08B44","9ce5c989-d085-4250-a2b9-216b8d29b14d","683bf07d-1a26-40b1-9cff-5abdc1eed0ee","","20524","","",""
"","","","","","instructions","4","50292","0.0-4.0","AE5BB3054A9A46FABF7249C579A08B44","9ce5c989-d085-4250-a2b9-216b8d29b14d","683bf07d-1a26-40b1-9cff-5abdc1eed0ee","[{""page_index"":0,""viewing_time"":2155}]","2155","","",""
"","","","","","html-keyboard-response","5","53294","0.0-5.0","AE5BB3054A9A46FABF7249C579A08B44","9ce5c989-d085-4250-a2b9-216b8d29b14d","683bf07d-1a26-40b1-9cff-5abdc1eed0ee","","null","<div style=""display: flex; justify-content: center; align-items: center;"">
                <img src=""images/causal/causal_series_6/causal_series_6_a.jpg"" style=""width: 300px; height: 300px;"" />
              </div>","null",""
"","","","","","html-keyboard-response","6","56296","0.0-6.0","AE5BB3054A9A46FABF7249C579A08B44","9ce5c989-d085-4250-a2b9-216b8d29b14d","683bf07d-1a26-40b1-9cff-5abdc1eed0ee","","null","<div style=""display: flex; justify-content: center; align-items: center;"">
                <img src=""images/causal/causal_series_6/causal_series_6_b.jpg"" style=""width: 300px; height: 300px;"" />
              </div>","null",""
"","","","","","html-keyboard-response","7","59298","0.0-7.0","AE5BB3054A9A46FABF7249C579A08B44","9ce5c989-d085-4250-a2b9-216b8d29b14d","683bf07d-1a26-40b1-9cff-5abdc1eed0ee","","null","<div style=""display: flex; justify-content: center; align-items: center;"">
                <img src=""images/causal/causal_series_6/causal_series_6_c.jpg"" style=""width: 300px; height: 300px;"" />
              </div>","null",""
"","","","","","html-button-response","8","61638","0.0-8.0","AE5BB3054A9A46FABF7249C579A08B44","9ce5c989-d085-4250-a2b9-216b8d29b14d","683bf07d-1a26-40b1-9cff-5abdc1eed0ee","","2337","
    <div style=""display: flex; justify-content: center; align-items: center;"">
      <img src=""images/red_deck_2.png"" style=""width: 300px; height: 300px; margin-right: 10px;"" />
      <img src=""images/blue_deck_1.png"" style=""width: 300px; height: 300px;"" />
    </div>","0","0"
"","","","","","html-keyboard-response","9","64640","0.0-9.0-0.0-0.0","AE5BB3054A9A46FABF7249C579A08B44","9ce5c989-d085-4250-a2b9-216b8d29b14d","683bf07d-1a26-40b1-9cff-5abdc1eed0ee","","null","<div style=""display: flex; justify-content: center; align-items: center;"">
                <img src=""images/causal/causal_series_6/causal_series_6_d.jpg"" style=""width: 300px; height: 300px;"" />
              </div>","null",""
"","","","","","html-keyboard-response","10","67643","0.0-10.0","AE5BB3054A9A46FABF7249C579A08B44","9ce5c989-d085-4250-a2b9-216b8d29b14d","683bf07d-1a26-40b1-9cff-5abdc1eed0ee","","null","<div style=""display: flex; justify-content: center; align-items: center;"">
                <img src=""images/other/blank.jpg"" style=""width: 300px; height: 300px;"" />
              </div>","null",""
"","","","","","html-keyboard-response","11","70646","0.0-11.0","AE5BB3054A9A46FABF7249C579A08B44","9ce5c989-d085-4250-a2b9-216b8d29b14d","683bf07d-1a26-40b1-9cff-5abdc1eed0ee","","null","<div style=""display: flex; justify-content: center; align-items: center;"">
                <img src=""images/causal/causal_series_5/causal_series_5_a.jpg"" style=""width: 300px; height: 300px;"" />
              </div>","null",""
"","","","","","html-keyboard-response","12","73648","0.0-12.0","AE5BB3054A9A46FABF7249C579A08B44","9ce5c989-d085-4250-a2b9-216b8d29b14d","683bf07d-1a26-40b1-9cff-5abdc1eed0ee","","null","<div style=""display: flex; justify-content: center; align-items: center;"">
                <img src=""images/causal/causal_series_5/causal_series_5_b.jpg"" style=""width: 300px; height: 300px;"" />
              </div>","null",""
"","","","","","html-keyboard-response","13","76649","0.0-13.0","AE5BB3054A9A46FABF7249C579A08B44","9ce5c989-d085-4250-a2b9-216b8d29b14d","683bf07d-1a26-40b1-9cff-5abdc1eed0ee","","null","<div style=""display: flex; justify-content: center; align-items: center;"">
                <img src=""images/causal/causal_series_5/causal_series_5_c.jpg"" style=""width: 300px; height: 300px;"" />
              </div>","null",""
"","","","","","html-button-response","14","77703","0.0-14.0","AE5BB3054A9A46FABF7249C579A08B44","9ce5c989-d085-4250-a2b9-216b8d29b14d","683bf07d-1a26-40b1-9cff-5abdc1eed0ee","","1051","
    <div style=""display: flex; justify-content: center; align-items: center;"">
      <img src=""images/red_deck_2.png"" style=""width: 300px; height: 300px; margin-right: 10px;"" />
      <img src=""images/blue_deck_1.png"" style=""width: 300px; height: 300px;"" />
    </div>","1","1"
"","","","","","html-keyboard-response","15","80705","0.0-15.0-1.0-0.0","AE5BB3054A9A46FABF7249C579A08B44","9ce5c989-d085-4250-a2b9-216b8d29b14d","683bf07d-1a26-40b1-9cff-5abdc1eed0ee","","null","<div style=""display: flex; justify-content: center; align-items: center;"">
                <img src=""images/semantic/semantic_series_4/semantic_series_4_d.jpg"" style=""width: 300px; height: 300px;"" />
              </div>","null",""
"","","","","","html-keyboard-response","16","83708","0.0-16.0","AE5BB3054A9A46FABF7249C579A08B44","9ce5c989-d085-4250-a2b9-216b8d29b14d","683bf07d-1a26-40b1-9cff-5abdc1eed0ee","","null","<div style=""display: flex; justify-content: center; align-items: center;"">
                <img src=""images/other/blank.jpg"" style=""width: 300px; height: 300px;"" />
              </div>","null",""
"","","","","","html-keyboard-response","17","86710","0.0-17.0","AE5BB3054A9A46FABF7249C579A08B44","9ce5c989-d085-4250-a2b9-216b8d29b14d","683bf07d-1a26-40b1-9cff-5abdc1eed0ee","","null","<div style=""display: flex; justify-content: center; align-items: center;"">
                <img src=""images/causal/causal_series_9/causal_series_9_a.jpg"" style=""width: 300px; height: 300px;"" />
              </div>","null",""
"","","","","","html-keyboard-response","18","89714","0.0-18.0","AE5BB3054A9A46FABF7249C579A08B44","9ce5c989-d085-4250-a2b9-216b8d29b14d","683bf07d-1a26-40b1-9cff-5abdc1eed0ee","","null","<div style=""display: flex; justify-content: center; align-items: center;"">
                <img src=""images/causal/causal_series_9/causal_series_9_b.jpg"" style=""width: 300px; height: 300px;"" />
              </div>","null",""
"","","","","","html-keyboard-response","19","92718","0.0-19.0","AE5BB3054A9A46FABF7249C579A08B44","9ce5c989-d085-4250-a2b9-216b8d29b14d","683bf07d-1a26-40b1-9cff-5abdc1eed0ee","","null","<div style=""display: flex; justify-content: center; align-items: center;"">
                <img src=""images/causal/causal_series_9/causal_series_9_c.jpg"" style=""width: 300px; height: 300px;"" />
              </div>","null",""
"","","","","","html-button-response","20","93762","0.0-20.0","AE5BB3054A9A46FABF7249C579A08B44","9ce5c989-d085-4250-a2b9-216b8d29b14d","683bf07d-1a26-40b1-9cff-5abdc1eed0ee","","1042","
    <div style=""display: flex; justify-content: center; align-items: center;"">
      <img src=""images/red_deck_2.png"" style=""width: 300px; height: 300px; margin-right: 10px;"" />
      <img src=""images/blue_deck_1.png"" style=""width: 300px; height: 300px;"" />
    </div>","0","0"
"","","","","","html-keyboard-response","21","96763","0.0-21.0-0.0-0.0","AE5BB3054A9A46FABF7249C579A08B44","9ce5c989-d085-4250-a2b9-216b8d29b14d","683bf07d-1a26-40b1-9cff-5abdc1eed0ee","","null","<div style=""display: flex; justify-content: center; align-items: center;"">
                <img src=""images/causal/causal_series_9/causal_series_9_d.jpg"" style=""width: 300px; height: 300px;"" />
              </div>","null",""
"","","","","","html-keyboard-response","22","99766","0.0-22.0","AE5BB3054A9A46FABF7249C579A08B44","9ce5c989-d085-4250-a2b9-216b8d29b14d","683bf07d-1a26-40b1-9cff-5abdc1eed0ee","","null","<div style=""display: flex; justify-content: center; align-items: center;"">
                <img src=""images/other/blank.jpg"" style=""width: 300px; height: 300px;"" />
              </div>","null",""
"","","","","","html-keyboard-response","23","102768","0.0-23.0","AE5BB3054A9A46FABF7249C579A08B44","9ce5c989-d085-4250-a2b9-216b8d29b14d","683bf07d-1a26-40b1-9cff-5abdc1eed0ee","","null","<div style=""display: flex; justify-content: center; align-items: center;"">
                <img src=""images/causal/causal_series_1/causal_series_1_a.jpg"" style=""width: 300px; height: 300px;"" />
              </div>","null",""
"","","","","","html-keyboard-response","24","105771","0.0-24.0","AE5BB3054A9A46FABF7249C579A08B44","9ce5c989-d085-4250-a2b9-216b8d29b14d","683bf07d-1a26-40b1-9cff-5abdc1eed0ee","","null","<div style=""display: flex; justify-content: center; align-items: center;"">
                <img src=""images/causal/causal_series_1/causal_series_1_b.jpg"" style=""width: 300px; height: 300px;"" />
              </div>","null",""
"","","","","","html-keyboard-response","25","108774","0.0-25.0","AE5BB3054A9A46FABF7249C579A08B44","9ce5c989-d085-4250-a2b9-216b8d29b14d","683bf07d-1a26-40b1-9cff-5abdc1eed0ee","","null","<div style=""display: flex; justify-content: center; align-items: center;"">
                <img src=""images/causal/causal_series_1/causal_series_1_c.jpg"" style=""width: 300px; height: 300px;"" />
              </div>","null",""
"","","","","","html-button-response","26","109994","0.0-26.0","AE5BB3054A9A46FABF7249C579A08B44","9ce5c989-d085-4250-a2b9-216b8d29b14d","683bf07d-1a26-40b1-9cff-5abdc1eed0ee","","1218","
    <div style=""display: flex; justify-content: center; align-items: center;"">
      <img src=""images/red_deck_2.png"" style=""width: 300px; height: 300px; margin-right: 10px;"" />
      <img src=""images/blue_deck_1.png"" style=""width: 300px; height: 300px;"" />
    </div>","0","0"
"","","","","","html-keyboard-response","27","112997","0.0-27.0-0.0-0.0","AE5BB3054A9A46FABF7249C579A08B44","9ce5c989-d085-4250-a2b9-216b8d29b14d","683bf07d-1a26-40b1-9cff-5abdc1eed0ee","","null","<div style=""display: flex; justify-content: center; align-items: center;"">
                <img src=""images/causal/causal_series_1/causal_series_1_d.jpg"" style=""width: 300px; height: 300px;"" />
              </div>","null",""
"","","","","","html-keyboard-response","28","115999","0.0-28.0","AE5BB3054A9A46FABF7249C579A08B44","9ce5c989-d085-4250-a2b9-216b8d29b14d","683bf07d-1a26-40b1-9cff-5abdc1eed0ee","","null","<div style=""display: flex; justify-content: center; align-items: center;"">
                <img src=""images/other/blank.jpg"" style=""width: 300px; height: 300px;"" />
              </div>","null",""
"","","","","","html-keyboard-response","29","119001","0.0-29.0","AE5BB3054A9A46FABF7249C579A08B44","9ce5c989-d085-4250-a2b9-216b8d29b14d","683bf07d-1a26-40b1-9cff-5abdc1eed0ee","","null","<div style=""display: flex; justify-content: center; align-items: center;"">
                <img src=""images/causal/causal_series_14/causal_series_14_a.jpg"" style=""width: 300px; height: 300px;"" />
              </div>","null",""
"","","","","","html-keyboard-response","30","122003","0.0-30.0","AE5BB3054A9A46FABF7249C579A08B44","9ce5c989-d085-4250-a2b9-216b8d29b14d","683bf07d-1a26-40b1-9cff-5abdc1eed0ee","","null","<div style=""display: flex; justify-content: center; align-items: center;"">
                <img src=""images/causal/causal_series_14/causal_series_14_b.jpg"" style=""width: 300px; height: 300px;"" />
              </div>","null",""
"","","","","","html-keyboard-response","31","125005","0.0-31.0","AE5BB3054A9A46FABF7249C579A08B44","9ce5c989-d085-4250-a2b9-216b8d29b14d","683bf07d-1a26-40b1-9cff-5abdc1eed0ee","","null","<div style=""display: flex; justify-content: center; align-items: center;"">
                <img src=""images/causal/causal_series_14/causal_series_14_c.jpg"" style=""width: 300px; height: 300px;"" />
              </div>","null",""
"","","","","","html-button-response","32","126945","0.0-32.0","AE5BB3054A9A46FABF7249C579A08B44","9ce5c989-d085-4250-a2b9-216b8d29b14d","683bf07d-1a26-40b1-9cff-5abdc1eed0ee","","1938","
    <div style=""display: flex; justify-content: center; align-items: center;"">
      <img src=""images/red_deck_2.png"" style=""width: 300px; height: 300px; margin-right: 10px;"" />
      <img src=""images/blue_deck_1.png"" style=""width: 300px; height: 300px;"" />
    </div>","1","1"
"","","","","","html-keyboard-response","33","129948","0.0-33.0-1.0-0.0","AE5BB3054A9A46FABF7249C579A08B44","9ce5c989-d085-4250-a2b9-216b8d29b14d","683bf07d-1a26-40b1-9cff-5abdc1eed0ee","","null","<div style=""display: flex; justify-content: center; align-items: center;"">
                <img src=""images/semantic/semantic_series_13/semantic_series_13_d.jpg"" style=""width: 300px; height: 300px;"" />
              </div>","null",""
"","","","","","html-keyboard-response","34","132950","0.0-34.0","AE5BB3054A9A46FABF7249C579A08B44","9ce5c989-d085-4250-a2b9-216b8d29b14d","683bf07d-1a26-40b1-9cff-5abdc1eed0ee","","null","<div style=""display: flex; justify-content: center; align-items: center;"">
                <img src=""images/other/blank.jpg"" style=""width: 300px; height: 300px;"" />
              </div>","null",""
"","","","","","html-keyboard-response","35","135952","0.0-35.0","AE5BB3054A9A46FABF7249C579A08B44","9ce5c989-d085-4250-a2b9-216b8d29b14d","683bf07d-1a26-40b1-9cff-5abdc1eed0ee","","null","<div style=""display: flex; justify-content: center; align-items: center;"">
                <img src=""images/causal/causal_series_3/causal_series_3_a.jpg"" style=""width: 300px; height: 300px;"" />
              </div>","null",""
"","","","","","html-keyboard-response","36","138955","0.0-36.0","AE5BB3054A9A46FABF7249C579A08B44","9ce5c989-d085-4250-a2b9-216b8d29b14d","683bf07d-1a26-40b1-9cff-5abdc1eed0ee","","null","<div style=""display: flex; justify-content: center; align-items: center;"">
                <img src=""images/causal/causal_series_3/causal_series_3_b.jpg"" style=""width: 300px; height: 300px;"" />
              </div>","null",""
"","","","","","html-keyboard-response","37","141958","0.0-37.0","AE5BB3054A9A46FABF7249C579A08B44","9ce5c989-d085-4250-a2b9-216b8d29b14d","683bf07d-1a26-40b1-9cff-5abdc1eed0ee","","null","<div style=""display: flex; justify-content: center; align-items: center;"">
                <img src=""images/causal/causal_series_3/causal_series_3_c.jpg"" style=""width: 300px; height: 300px;"" />
              </div>","null",""
"","","","","","html-button-response","38","143248","0.0-38.0","AE5BB3054A9A46FABF7249C579A08B44","9ce5c989-d085-4250-a2b9-216b8d29b14d","683bf07d-1a26-40b1-9cff-5abdc1eed0ee","","1289","
    <div style=""display: flex; justify-content: center; align-items: center;"">
      <img src=""images/red_deck_2.png"" style=""width: 300px; height: 300px; margin-right: 10px;"" />
      <img src=""images/blue_deck_1.png"" style=""width: 300px; height: 300px;"" />
    </div>","1","1"
"","","","","","html-keyboard-response","39","146250","0.0-39.0-1.0-0.0","AE5BB3054A9A46FABF7249C579A08B44","9ce5c989-d085-4250-a2b9-216b8d29b14d","683bf07d-1a26-40b1-9cff-5abdc1eed0ee","","null","<div style=""display: flex; justify-content: center; align-items: center;"">
                <img src=""images/semantic/semantic_series_2/semantic_series_2_d.jpg"" style=""width: 300px; height: 300px;"" />
              </div>","null",""
"","","","","","html-keyboard-response","40","149253","0.0-40.0","AE5BB3054A9A46FABF7249C579A08B44","9ce5c989-d085-4250-a2b9-216b8d29b14d","683bf07d-1a26-40b1-9cff-5abdc1eed0ee","","null","<div style=""display: flex; justify-content: center; align-items: center;"">
                <img src=""images/other/blank.jpg"" style=""width: 300px; height: 300px;"" />
              </div>","null",""
"","","","","","html-keyboard-response","41","152256","0.0-41.0","AE5BB3054A9A46FABF7249C579A08B44","9ce5c989-d085-4250-a2b9-216b8d29b14d","683bf07d-1a26-40b1-9cff-5abdc1eed0ee","","null","<div style=""display: flex; justify-content: center; align-items: center;"">
                <img src=""images/causal/causal_series_12/causal_series_12_a.jpg"" style=""width: 300px; height: 300px;"" />
              </div>","null",""
"","","","","","html-keyboard-response","42","155259","0.0-42.0","AE5BB3054A9A46FABF7249C579A08B44","9ce5c989-d085-4250-a2b9-216b8d29b14d","683bf07d-1a26-40b1-9cff-5abdc1eed0ee","","null","<div style=""display: flex; justify-content: center; align-items: center;"">
                <img src=""images/causal/causal_series_12/causal_series_12_b.jpg"" style=""width: 300px; height: 300px;"" />
              </div>","null",""
"","","","","","html-keyboard-response","43","158262","0.0-43.0","AE5BB3054A9A46FABF7249C579A08B44","9ce5c989-d085-4250-a2b9-216b8d29b14d","683bf07d-1a26-40b1-9cff-5abdc1eed0ee","","null","<div style=""display: flex; justify-content: center; align-items: center;"">
                <img src=""images/causal/causal_series_12/causal_series_12_c.jpg"" style=""width: 300px; height: 300px;"" />
              </div>","null",""
"","","","","","html-button-response","44","159415","0.0-44.0","AE5BB3054A9A46FABF7249C579A08B44","9ce5c989-d085-4250-a2b9-216b8d29b14d","683bf07d-1a26-40b1-9cff-5abdc1eed0ee","","1152","
    <div style=""display: flex; justify-content: center; align-items: center;"">
      <img src=""images/red_deck_2.png"" style=""width: 300px; height: 300px; margin-right: 10px;"" />
      <img src=""images/blue_deck_1.png"" style=""width: 300px; height: 300px;"" />
    </div>","1","1"
"","","","","","html-keyboard-response","45","162417","0.0-45.0-1.0-0.0","AE5BB3054A9A46FABF7249C579A08B44","9ce5c989-d085-4250-a2b9-216b8d29b14d","683bf07d-1a26-40b1-9cff-5abdc1eed0ee","","null","<div style=""display: flex; justify-content: center; align-items: center;"">
                <img src=""images/semantic/semantic_series_11/semantic_series_11_d.jpg"" style=""width: 300px; height: 300px;"" />
              </div>","null",""
"","","","","","html-keyboard-response","46","165419","0.0-46.0","AE5BB3054A9A46FABF7249C579A08B44","9ce5c989-d085-4250-a2b9-216b8d29b14d","683bf07d-1a26-40b1-9cff-5abdc1eed0ee","","null","<div style=""display: flex; justify-content: center; align-items: center;"">
                <img src=""images/other/blank.jpg"" style=""width: 300px; height: 300px;"" />
              </div>","null",""
"","","","","","html-keyboard-response","47","168422","0.0-47.0","AE5BB3054A9A46FABF7249C579A08B44","9ce5c989-d085-4250-a2b9-216b8d29b14d","683bf07d-1a26-40b1-9cff-5abdc1eed0ee","","null","<div style=""display: flex; justify-content: center; align-items: center;"">
                <img src=""images/causal/causal_series_7/causal_series_7_a.jpg"" style=""width: 300px; height: 300px;"" />
              </div>","null",""
"","","","","","html-keyboard-response","48","171423","0.0-48.0","AE5BB3054A9A46FABF7249C579A08B44","9ce5c989-d085-4250-a2b9-216b8d29b14d","683bf07d-1a26-40b1-9cff-5abdc1eed0ee","","null","<div style=""display: flex; justify-content: center; align-items: center;"">
                <img src=""images/causal/causal_series_7/causal_series_7_b.jpg"" style=""width: 300px; height: 300px;"" />
              </div>","null",""
"","","","","","html-keyboard-response","49","174425","0.0-49.0","AE5BB3054A9A46FABF7249C579A08B44","9ce5c989-d085-4250-a2b9-216b8d29b14d","683bf07d-1a26-40b1-9cff-5abdc1eed0ee","","null","<div style=""display: flex; justify-content: center; align-items: center;"">
                <img src=""images/causal/causal_series_7/causal_series_7_c.jpg"" style=""width: 300px; height: 300px;"" />
              </div>","null",""
"","","","","","html-button-response","50","175290","0.0-50.0","AE5BB3054A9A46FABF7249C579A08B44","9ce5c989-d085-4250-a2b9-216b8d29b14d","683bf07d-1a26-40b1-9cff-5abdc1eed0ee","","865","
    <div style=""display: flex; justify-content: center; align-items: center;"">
      <img src=""images/red_deck_2.png"" style=""width: 300px; height: 300px; margin-right: 10px;"" />
      <img src=""images/blue_deck_1.png"" style=""width: 300px; height: 300px;"" />
    </div>","1","1"
"","","","","","html-keyboard-response","51","178293","0.0-51.0-1.0-0.0","AE5BB3054A9A46FABF7249C579A08B44","9ce5c989-d085-4250-a2b9-216b8d29b14d","683bf07d-1a26-40b1-9cff-5abdc1eed0ee","","null","<div style=""display: flex; justify-content: center; align-items: center;"">
                <img src=""images/semantic/semantic_series_6/semantic_series_6_d.jpg"" style=""width: 300px; height: 300px;"" />
              </div>","null",""
"","","","","","html-keyboard-response","52","181296","0.0-52.0","AE5BB3054A9A46FABF7249C579A08B44","9ce5c989-d085-4250-a2b9-216b8d29b14d","683bf07d-1a26-40b1-9cff-5abdc1eed0ee","","null","<div style=""display: flex; justify-content: center; align-items: center;"">
                <img src=""images/other/blank.jpg"" style=""width: 300px; height: 300px;"" />
              </div>","null",""
"","","","","","html-keyboard-response","53","184298","0.0-53.0","AE5BB3054A9A46FABF7249C579A08B44","9ce5c989-d085-4250-a2b9-216b8d29b14d","683bf07d-1a26-40b1-9cff-5abdc1eed0ee","","null","<div style=""display: flex; justify-content: center; align-items: center;"">
                <img src=""images/causal/causal_series_2/causal_series_2_a.jpg"" style=""width: 300px; height: 300px;"" />
              </div>","null",""
"","","","","","html-keyboard-response","54","187301","0.0-54.0","AE5BB3054A9A46FABF7249C579A08B44","9ce5c989-d085-4250-a2b9-216b8d29b14d","683bf07d-1a26-40b1-9cff-5abdc1eed0ee","","null","<div style=""display: flex; justify-content: center; align-items: center;"">
                <img src=""images/causal/causal_series_2/causal_series_2_b.jpg"" style=""width: 300px; height: 300px;"" />
              </div>","null",""
"","","","","","html-keyboard-response","55","190305","0.0-55.0","AE5BB3054A9A46FABF7249C579A08B44","9ce5c989-d085-4250-a2b9-216b8d29b14d","683bf07d-1a26-40b1-9cff-5abdc1eed0ee","","null","<div style=""display: flex; justify-content: center; align-items: center;"">
                <img src=""images/causal/causal_series_2/causal_series_2_c.jpg"" style=""width: 300px; height: 300px;"" />
              </div>","null",""
"","","","","","html-button-response","56","192025","0.0-56.0","AE5BB3054A9A46FABF7249C579A08B44","9ce5c989-d085-4250-a2b9-216b8d29b14d","683bf07d-1a26-40b1-9cff-5abdc1eed0ee","","1718","
    <div style=""display: flex; justify-content: center; align-items: center;"">
      <img src=""images/red_deck_2.png"" style=""width: 300px; height: 300px; margin-right: 10px;"" />
      <img src=""images/blue_deck_1.png"" style=""width: 300px; height: 300px;"" />
    </div>","1","1"
"","","","","","html-keyboard-response","57","195028","0.0-57.0-1.0-0.0","AE5BB3054A9A46FABF7249C579A08B44","9ce5c989-d085-4250-a2b9-216b8d29b14d","683bf07d-1a26-40b1-9cff-5abdc1eed0ee","","null","<div style=""display: flex; justify-content: center; align-items: center;"">
                <img src=""images/semantic/semantic_series_1/semantic_series_1_d.jpg"" style=""width: 300px; height: 300px;"" />
              </div>","null",""
"","","","","","html-keyboard-response","58","198030","0.0-58.0","AE5BB3054A9A46FABF7249C579A08B44","9ce5c989-d085-4250-a2b9-216b8d29b14d","683bf07d-1a26-40b1-9cff-5abdc1eed0ee","","null","<div style=""display: flex; justify-content: center; align-items: center;"">
                <img src=""images/other/blank.jpg"" style=""width: 300px; height: 300px;"" />
              </div>","null",""
"","","","","","html-keyboard-response","59","201033","0.0-59.0","AE5BB3054A9A46FABF7249C579A08B44","9ce5c989-d085-4250-a2b9-216b8d29b14d","683bf07d-1a26-40b1-9cff-5abdc1eed0ee","","null","<div style=""display: flex; justify-content: center; align-items: center;"">
                <img src=""images/causal/causal_series_11/causal_series_11_a.jpg"" style=""width: 300px; height: 300px;"" />
              </div>","null",""
"","","","","","html-keyboard-response","60","204037","0.0-60.0","AE5BB3054A9A46FABF7249C579A08B44","9ce5c989-d085-4250-a2b9-216b8d29b14d","683bf07d-1a26-40b1-9cff-5abdc1eed0ee","","null","<div style=""display: flex; justify-content: center; align-items: center;"">
                <img src=""images/causal/causal_series_11/causal_series_11_b.jpg"" style=""width: 300px; height: 300px;"" />
              </div>","null",""
"","","","","","html-keyboard-response","61","207040","0.0-61.0","AE5BB3054A9A46FABF7249C579A08B44","9ce5c989-d085-4250-a2b9-216b8d29b14d","683bf07d-1a26-40b1-9cff-5abdc1eed0ee","","null","<div style=""display: flex; justify-content: center; align-items: center;"">
                <img src=""images/causal/causal_series_11/causal_series_11_c.jpg"" style=""width: 300px; height: 300px;"" />
              </div>","null",""
"","","","","","html-button-response","62","207862","0.0-62.0","AE5BB3054A9A46FABF7249C579A08B44","9ce5c989-d085-4250-a2b9-216b8d29b14d","683bf07d-1a26-40b1-9cff-5abdc1eed0ee","","820","
    <div style=""display: flex; justify-content: center; align-items: center;"">
      <img src=""images/red_deck_2.png"" style=""width: 300px; height: 300px; margin-right: 10px;"" />
      <img src=""images/blue_deck_1.png"" style=""width: 300px; height: 300px;"" />
    </div>","1","1"
"","","","","","html-keyboard-response","63","210864","0.0-63.0-1.0-0.0","AE5BB3054A9A46FABF7249C579A08B44","9ce5c989-d085-4250-a2b9-216b8d29b14d","683bf07d-1a26-40b1-9cff-5abdc1eed0ee","","null","<div style=""display: flex; justify-content: center; align-items: center;"">
                <img src=""images/semantic/semantic_series_10/semantic_series_10_d.jpg"" style=""width: 300px; height: 300px;"" />
              </div>","null",""
"","","","","","html-keyboard-response","64","213868","0.0-64.0","AE5BB3054A9A46FABF7249C579A08B44","9ce5c989-d085-4250-a2b9-216b8d29b14d","683bf07d-1a26-40b1-9cff-5abdc1eed0ee","","null","<div style=""display: flex; justify-content: center; align-items: center;"">
                <img src=""images/other/blank.jpg"" style=""width: 300px; height: 300px;"" />
              </div>","null",""
"","","","","","html-keyboard-response","65","216871","0.0-65.0","AE5BB3054A9A46FABF7249C579A08B44","9ce5c989-d085-4250-a2b9-216b8d29b14d","683bf07d-1a26-40b1-9cff-5abdc1eed0ee","","null","<div style=""display: flex; justify-content: center; align-items: center;"">
                <img src=""images/causal/causal_series_18/causal_series_18_a.jpg"" style=""width: 300px; height: 300px;"" />
              </div>","null",""
"","","","","","html-keyboard-response","66","219874","0.0-66.0","AE5BB3054A9A46FABF7249C579A08B44","9ce5c989-d085-4250-a2b9-216b8d29b14d","683bf07d-1a26-40b1-9cff-5abdc1eed0ee","","null","<div style=""display: flex; justify-content: center; align-items: center;"">
                <img src=""images/causal/causal_series_18/causal_series_18_b.jpg"" style=""width: 300px; height: 300px;"" />
              </div>","null",""
"","","","","","html-keyboard-response","67","222877","0.0-67.0","AE5BB3054A9A46FABF7249C579A08B44","9ce5c989-d085-4250-a2b9-216b8d29b14d","683bf07d-1a26-40b1-9cff-5abdc1eed0ee","","null","<div style=""display: flex; justify-content: center; align-items: center;"">
                <img src=""images/causal/causal_series_18/causal_series_18_c.jpg"" style=""width: 300px; height: 300px;"" />
              </div>","null",""
"","","","","","html-button-response","68","223857","0.0-68.0","AE5BB3054A9A46FABF7249C579A08B44","9ce5c989-d085-4250-a2b9-216b8d29b14d","683bf07d-1a26-40b1-9cff-5abdc1eed0ee","","978","
    <div style=""display: flex; justify-content: center; align-items: center;"">
      <img src=""images/red_deck_2.png"" style=""width: 300px; height: 300px; margin-right: 10px;"" />
      <img src=""images/blue_deck_1.png"" style=""width: 300px; height: 300px;"" />
    </div>","1","1"
"","","","","","html-keyboard-response","69","226859","0.0-69.0-1.0-0.0","AE5BB3054A9A46FABF7249C579A08B44","9ce5c989-d085-4250-a2b9-216b8d29b14d","683bf07d-1a26-40b1-9cff-5abdc1eed0ee","","null","<div style=""display: flex; justify-content: center; align-items: center;"">
                <img src=""images/semantic/semantic_series_17/semantic_series_17_d.jpg"" style=""width: 300px; height: 300px;"" />
              </div>","null",""
"","","","","","html-keyboard-response","70","229861","0.0-70.0","AE5BB3054A9A46FABF7249C579A08B44","9ce5c989-d085-4250-a2b9-216b8d29b14d","683bf07d-1a26-40b1-9cff-5abdc1eed0ee","","null","<div style=""display: flex; justify-content: center; align-items: center;"">
                <img src=""images/other/blank.jpg"" style=""width: 300px; height: 300px;"" />
              </div>","null",""
"","","","","","html-keyboard-response","71","232863","0.0-71.0","AE5BB3054A9A46FABF7249C579A08B44","9ce5c989-d085-4250-a2b9-216b8d29b14d","683bf07d-1a26-40b1-9cff-5abdc1eed0ee","","null","<div style=""display: flex; justify-content: center; align-items: center;"">
                <img src=""images/causal/causal_series_13/causal_series_13_a.jpg"" style=""width: 300px; height: 300px;"" />
              </div>","null",""
"","","","","","html-keyboard-response","72","235866","0.0-72.0","AE5BB3054A9A46FABF7249C579A08B44","9ce5c989-d085-4250-a2b9-216b8d29b14d","683bf07d-1a26-40b1-9cff-5abdc1eed0ee","","null","<div style=""display: flex; justify-content: center; align-items: center;"">
                <img src=""images/causal/causal_series_13/causal_series_13_b.jpg"" style=""width: 300px; height: 300px;"" />
              </div>","null",""
"","","","","","html-keyboard-response","73","238868","0.0-73.0","AE5BB3054A9A46FABF7249C579A08B44","9ce5c989-d085-4250-a2b9-216b8d29b14d","683bf07d-1a26-40b1-9cff-5abdc1eed0ee","","null","<div style=""display: flex; justify-content: center; align-items: center;"">
                <img src=""images/causal/causal_series_13/causal_series_13_c.jpg"" style=""width: 300px; height: 300px;"" />
              </div>","null",""
"","","","","","html-button-response","74","239842","0.0-74.0","AE5BB3054A9A46FABF7249C579A08B44","9ce5c989-d085-4250-a2b9-216b8d29b14d","683bf07d-1a26-40b1-9cff-5abdc1eed0ee","","973","
    <div style=""display: flex; justify-content: center; align-items: center;"">
      <img src=""images/red_deck_2.png"" style=""width: 300px; height: 300px; margin-right: 10px;"" />
      <img src=""images/blue_deck_1.png"" style=""width: 300px; height: 300px;"" />
    </div>","1","1"
"","","","","","html-keyboard-response","75","242843","0.0-75.0-1.0-0.0","AE5BB3054A9A46FABF7249C579A08B44","9ce5c989-d085-4250-a2b9-216b8d29b14d","683bf07d-1a26-40b1-9cff-5abdc1eed0ee","","null","<div style=""display: flex; justify-content: center; align-items: center;"">
                <img src=""images/semantic/semantic_series_12/semantic_series_12_d.jpg"" style=""width: 300px; height: 300px;"" />
              </div>","null",""
"","","","","","html-keyboard-response","76","245845","0.0-76.0","AE5BB3054A9A46FABF7249C579A08B44","9ce5c989-d085-4250-a2b9-216b8d29b14d","683bf07d-1a26-40b1-9cff-5abdc1eed0ee","","null","<div style=""display: flex; justify-content: center; align-items: center;"">
                <img src=""images/other/blank.jpg"" style=""width: 300px; height: 300px;"" />
              </div>","null",""
"","","","","","html-keyboard-response","77","248847","0.0-77.0","AE5BB3054A9A46FABF7249C579A08B44","9ce5c989-d085-4250-a2b9-216b8d29b14d","683bf07d-1a26-40b1-9cff-5abdc1eed0ee","","null","<div style=""display: flex; justify-content: center; align-items: center;"">
                <img src=""images/causal/causal_series_16/causal_series_16_a.jpg"" style=""width: 300px; height: 300px;"" />
              </div>","null",""
"","","","","","html-keyboard-response","78","251851","0.0-78.0","AE5BB3054A9A46FABF7249C579A08B44","9ce5c989-d085-4250-a2b9-216b8d29b14d","683bf07d-1a26-40b1-9cff-5abdc1eed0ee","","null","<div style=""display: flex; justify-content: center; align-items: center;"">
                <img src=""images/causal/causal_series_16/causal_series_16_b.jpg"" style=""width: 300px; height: 300px;"" />
              </div>","null",""
"","","","","","html-keyboard-response","79","254853","0.0-79.0","AE5BB3054A9A46FABF7249C579A08B44","9ce5c989-d085-4250-a2b9-216b8d29b14d","683bf07d-1a26-40b1-9cff-5abdc1eed0ee","","null","<div style=""display: flex; justify-content: center; align-items: center;"">
                <img src=""images/causal/causal_series_16/causal_series_16_c.jpg"" style=""width: 300px; height: 300px;"" />
              </div>","null",""
"","","","","","html-button-response","80","255763","0.0-80.0","AE5BB3054A9A46FABF7249C579A08B44","9ce5c989-d085-4250-a2b9-216b8d29b14d","683bf07d-1a26-40b1-9cff-5abdc1eed0ee","","907","
    <div style=""display: flex; justify-content: center; align-items: center;"">
      <img src=""images/red_deck_2.png"" style=""width: 300px; height: 300px; margin-right: 10px;"" />
      <img src=""images/blue_deck_1.png"" style=""width: 300px; height: 300px;"" />
    </div>","1","1"
"","","","","","html-keyboard-response","81","258765","0.0-81.0-1.0-0.0","AE5BB3054A9A46FABF7249C579A08B44","9ce5c989-d085-4250-a2b9-216b8d29b14d","683bf07d-1a26-40b1-9cff-5abdc1eed0ee","","null","<div style=""display: flex; justify-content: center; align-items: center;"">
                <img src=""images/semantic/semantic_series_15/semantic_series_15_d.jpg"" style=""width: 300px; height: 300px;"" />
              </div>","null",""
"","","","","","html-keyboard-response","82","261767","0.0-82.0","AE5BB3054A9A46FABF7249C579A08B44","9ce5c989-d085-4250-a2b9-216b8d29b14d","683bf07d-1a26-40b1-9cff-5abdc1eed0ee","","null","<div style=""display: flex; justify-content: center; align-items: center;"">
                <img src=""images/other/blank.jpg"" style=""width: 300px; height: 300px;"" />
              </div>","null",""
"","","","","","html-keyboard-response","83","264769","0.0-83.0","AE5BB3054A9A46FABF7249C579A08B44","9ce5c989-d085-4250-a2b9-216b8d29b14d","683bf07d-1a26-40b1-9cff-5abdc1eed0ee","","null","<div style=""display: flex; justify-content: center; align-items: center;"">
                <img src=""images/causal/causal_series_17/causal_series_17_a.jpg"" style=""width: 300px; height: 300px;"" />
              </div>","null",""
"","","","","","html-keyboard-response","84","267771","0.0-84.0","AE5BB3054A9A46FABF7249C579A08B44","9ce5c989-d085-4250-a2b9-216b8d29b14d","683bf07d-1a26-40b1-9cff-5abdc1eed0ee","","null","<div style=""display: flex; justify-content: center; align-items: center;"">
                <img src=""images/causal/causal_series_17/causal_series_17_b.jpg"" style=""width: 300px; height: 300px;"" />
              </div>","null",""
"","","","","","html-keyboard-response","85","270776","0.0-85.0","AE5BB3054A9A46FABF7249C579A08B44","9ce5c989-d085-4250-a2b9-216b8d29b14d","683bf07d-1a26-40b1-9cff-5abdc1eed0ee","","null","<div style=""display: flex; justify-content: center; align-items: center;"">
                <img src=""images/causal/causal_series_17/causal_series_17_c.jpg"" style=""width: 300px; height: 300px;"" />
              </div>","null",""
"","","","","","html-button-response","86","271916","0.0-86.0","AE5BB3054A9A46FABF7249C579A08B44","9ce5c989-d085-4250-a2b9-216b8d29b14d","683bf07d-1a26-40b1-9cff-5abdc1eed0ee","","1137","
    <div style=""display: flex; justify-content: center; align-items: center;"">
      <img src=""images/red_deck_2.png"" style=""width: 300px; height: 300px; margin-right: 10px;"" />
      <img src=""images/blue_deck_1.png"" style=""width: 300px; height: 300px;"" />
    </div>","0","0"
"","","","","","html-keyboard-response","87","274918","0.0-87.0-0.0-0.0","AE5BB3054A9A46FABF7249C579A08B44","9ce5c989-d085-4250-a2b9-216b8d29b14d","683bf07d-1a26-40b1-9cff-5abdc1eed0ee","","null","<div style=""display: flex; justify-content: center; align-items: center;"">
                <img src=""images/causal/causal_series_17/causal_series_17_d.jpg"" style=""width: 300px; height: 300px;"" />
              </div>","null",""
"","","","","","html-keyboard-response","88","277921","0.0-88.0","AE5BB3054A9A46FABF7249C579A08B44","9ce5c989-d085-4250-a2b9-216b8d29b14d","683bf07d-1a26-40b1-9cff-5abdc1eed0ee","","null","<div style=""display: flex; justify-content: center; align-items: center;"">
                <img src=""images/other/blank.jpg"" style=""width: 300px; height: 300px;"" />
              </div>","null",""
"","","","","","html-keyboard-response","89","280923","0.0-89.0","AE5BB3054A9A46FABF7249C579A08B44","9ce5c989-d085-4250-a2b9-216b8d29b14d","683bf07d-1a26-40b1-9cff-5abdc1eed0ee","","null","<div style=""display: flex; justify-content: center; align-items: center;"">
                <img src=""images/causal/causal_series_4/causal_series_4_a.jpg"" style=""width: 300px; height: 300px;"" />
              </div>","null",""
"","","","","","html-keyboard-response","90","283926","0.0-90.0","AE5BB3054A9A46FABF7249C579A08B44","9ce5c989-d085-4250-a2b9-216b8d29b14d","683bf07d-1a26-40b1-9cff-5abdc1eed0ee","","null","<div style=""display: flex; justify-content: center; align-items: center;"">
                <img src=""images/causal/causal_series_4/causal_series_4_b.jpg"" style=""width: 300px; height: 300px;"" />
              </div>","null",""
"","","","","","html-keyboard-response","91","286928","0.0-91.0","AE5BB3054A9A46FABF7249C579A08B44","9ce5c989-d085-4250-a2b9-216b8d29b14d","683bf07d-1a26-40b1-9cff-5abdc1eed0ee","","null","<div style=""display: flex; justify-content: center; align-items: center;"">
                <img src=""images/causal/causal_series_4/causal_series_4_c.jpg"" style=""width: 300px; height: 300px;"" />
              </div>","null",""
"","","","","","html-button-response","92","288582","0.0-92.0","AE5BB3054A9A46FABF7249C579A08B44","9ce5c989-d085-4250-a2b9-216b8d29b14d","683bf07d-1a26-40b1-9cff-5abdc1eed0ee","","1653","
    <div style=""display: flex; justify-content: center; align-items: center;"">
      <img src=""images/red_deck_2.png"" style=""width: 300px; height: 300px; margin-right: 10px;"" />
      <img src=""images/blue_deck_1.png"" style=""width: 300px; height: 300px;"" />
    </div>","0","0"
"","","","","","html-keyboard-response","93","291585","0.0-93.0-0.0-0.0","AE5BB3054A9A46FABF7249C579A08B44","9ce5c989-d085-4250-a2b9-216b8d29b14d","683bf07d-1a26-40b1-9cff-5abdc1eed0ee","","null","<div style=""display: flex; justify-content: center; align-items: center;"">
                <img src=""images/causal/causal_series_4/causal_series_4_d.jpg"" style=""width: 300px; height: 300px;"" />
              </div>","null",""
"","","","","","html-keyboard-response","94","294587","0.0-94.0","AE5BB3054A9A46FABF7249C579A08B44","9ce5c989-d085-4250-a2b9-216b8d29b14d","683bf07d-1a26-40b1-9cff-5abdc1eed0ee","","null","<div style=""display: flex; justify-content: center; align-items: center;"">
                <img src=""images/other/blank.jpg"" style=""width: 300px; height: 300px;"" />
              </div>","null",""
"","","","","","html-keyboard-response","95","297590","0.0-95.0","AE5BB3054A9A46FABF7249C579A08B44","9ce5c989-d085-4250-a2b9-216b8d29b14d","683bf07d-1a26-40b1-9cff-5abdc1eed0ee","","null","<div style=""display: flex; justify-content: center; align-items: center;"">
                <img src=""images/causal/causal_series_10/causal_series_10_a.jpg"" style=""width: 300px; height: 300px;"" />
              </div>","null",""
"","","","","","html-keyboard-response","96","300593","0.0-96.0","AE5BB3054A9A46FABF7249C579A08B44","9ce5c989-d085-4250-a2b9-216b8d29b14d","683bf07d-1a26-40b1-9cff-5abdc1eed0ee","","null","<div style=""display: flex; justify-content: center; align-items: center;"">
                <img src=""images/causal/causal_series_10/causal_series_10_b.jpg"" style=""width: 300px; height: 300px;"" />
              </div>","null",""
"","","","","","html-keyboard-response","97","303594","0.0-97.0","AE5BB3054A9A46FABF7249C579A08B44","9ce5c989-d085-4250-a2b9-216b8d29b14d","683bf07d-1a26-40b1-9cff-5abdc1eed0ee","","null","<div style=""display: flex; justify-content: center; align-items: center;"">
                <img src=""images/causal/causal_series_10/causal_series_10_c.jpg"" style=""width: 300px; height: 300px;"" />
              </div>","null",""
"","","","","","html-button-response","98","304783","0.0-98.0","AE5BB3054A9A46FABF7249C579A08B44","9ce5c989-d085-4250-a2b9-216b8d29b14d","683bf07d-1a26-40b1-9cff-5abdc1eed0ee","","1189","
    <div style=""display: flex; justify-content: center; align-items: center;"">
      <img src=""images/red_deck_2.png"" style=""width: 300px; height: 300px; margin-right: 10px;"" />
      <img src=""images/blue_deck_1.png"" style=""width: 300px; height: 300px;"" />
    </div>","0","0"
"","","","","","html-keyboard-response","99","307785","0.0-99.0-0.0-0.0","AE5BB3054A9A46FABF7249C579A08B44","9ce5c989-d085-4250-a2b9-216b8d29b14d","683bf07d-1a26-40b1-9cff-5abdc1eed0ee","","null","<div style=""display: flex; justify-content: center; align-items: center;"">
                <img src=""images/causal/causal_series_10/causal_series_10_d.jpg"" style=""width: 300px; height: 300px;"" />
              </div>","null",""
"","","","","","html-keyboard-response","100","310788","0.0-100.0","AE5BB3054A9A46FABF7249C579A08B44","9ce5c989-d085-4250-a2b9-216b8d29b14d","683bf07d-1a26-40b1-9cff-5abdc1eed0ee","","null","<div style=""display: flex; justify-content: center; align-items: center;"">
                <img src=""images/other/blank.jpg"" style=""width: 300px; height: 300px;"" />
              </div>","null",""
"","","","","","html-keyboard-response","101","313790","0.0-101.0","AE5BB3054A9A46FABF7249C579A08B44","9ce5c989-d085-4250-a2b9-216b8d29b14d","683bf07d-1a26-40b1-9cff-5abdc1eed0ee","","null","<div style=""display: flex; justify-content: center; align-items: center;"">
                <img src=""images/causal/causal_series_8/causal_series_8_a.jpg"" style=""width: 300px; height: 300px;"" />
              </div>","null",""
"","","","","","html-keyboard-response","102","316791","0.0-102.0","AE5BB3054A9A46FABF7249C579A08B44","9ce5c989-d085-4250-a2b9-216b8d29b14d","683bf07d-1a26-40b1-9cff-5abdc1eed0ee","","null","<div style=""display: flex; justify-content: center; align-items: center;"">
                <img src=""images/causal/causal_series_8/causal_series_8_b.jpg"" style=""width: 300px; height: 300px;"" />
              </div>","null",""
"","","","","","html-keyboard-response","103","319794","0.0-103.0","AE5BB3054A9A46FABF7249C579A08B44","9ce5c989-d085-4250-a2b9-216b8d29b14d","683bf07d-1a26-40b1-9cff-5abdc1eed0ee","","null","<div style=""display: flex; justify-content: center; align-items: center;"">
                <img src=""images/causal/causal_series_8/causal_series_8_c.jpg"" style=""width: 300px; height: 300px;"" />
              </div>","null",""
"","","","","","html-button-response","104","320936","0.0-104.0","AE5BB3054A9A46FABF7249C579A08B44","9ce5c989-d085-4250-a2b9-216b8d29b14d","683bf07d-1a26-40b1-9cff-5abdc1eed0ee","","1139","
    <div style=""display: flex; justify-content: center; align-items: center;"">
      <img src=""images/red_deck_2.png"" style=""width: 300px; height: 300px; margin-right: 10px;"" />
      <img src=""images/blue_deck_1.png"" style=""width: 300px; height: 300px;"" />
    </div>","0","0"
"","","","","","html-keyboard-response","105","323937","0.0-105.0-0.0-0.0","AE5BB3054A9A46FABF7249C579A08B44","9ce5c989-d085-4250-a2b9-216b8d29b14d","683bf07d-1a26-40b1-9cff-5abdc1eed0ee","","null","<div style=""display: flex; justify-content: center; align-items: center;"">
                <img src=""images/causal/causal_series_8/causal_series_8_d.jpg"" style=""width: 300px; height: 300px;"" />
              </div>","null",""
"","","","","","html-keyboard-response","106","326940","0.0-106.0","AE5BB3054A9A46FABF7249C579A08B44","9ce5c989-d085-4250-a2b9-216b8d29b14d","683bf07d-1a26-40b1-9cff-5abdc1eed0ee","","null","<div style=""display: flex; justify-content: center; align-items: center;"">
                <img src=""images/other/blank.jpg"" style=""width: 300px; height: 300px;"" />
              </div>","null",""
"","","","","","html-keyboard-response","107","329944","0.0-107.0","AE5BB3054A9A46FABF7249C579A08B44","9ce5c989-d085-4250-a2b9-216b8d29b14d","683bf07d-1a26-40b1-9cff-5abdc1eed0ee","","null","<div style=""display: flex; justify-content: center; align-items: center;"">
                <img src=""images/causal/causal_series_15/causal_series_15_a.jpg"" style=""width: 300px; height: 300px;"" />
              </div>","null",""
"","","","","","html-keyboard-response","108","332948","0.0-108.0","AE5BB3054A9A46FABF7249C579A08B44","9ce5c989-d085-4250-a2b9-216b8d29b14d","683bf07d-1a26-40b1-9cff-5abdc1eed0ee","","null","<div style=""display: flex; justify-content: center; align-items: center;"">
                <img src=""images/causal/causal_series_15/causal_series_15_b.jpg"" style=""width: 300px; height: 300px;"" />
              </div>","null",""
"","","","","","html-keyboard-response","109","335950","0.0-109.0","AE5BB3054A9A46FABF7249C579A08B44","9ce5c989-d085-4250-a2b9-216b8d29b14d","683bf07d-1a26-40b1-9cff-5abdc1eed0ee","","null","<div style=""display: flex; justify-content: center; align-items: center;"">
                <img src=""images/causal/causal_series_15/causal_series_15_c.jpg"" style=""width: 300px; height: 300px;"" />
              </div>","null",""
"","","","","","html-button-response","110","337226","0.0-110.0","AE5BB3054A9A46FABF7249C579A08B44","9ce5c989-d085-4250-a2b9-216b8d29b14d","683bf07d-1a26-40b1-9cff-5abdc1eed0ee","","1274","
    <div style=""display: flex; justify-content: center; align-items: center;"">
      <img src=""images/red_deck_2.png"" style=""width: 300px; height: 300px; margin-right: 10px;"" />
      <img src=""images/blue_deck_1.png"" style=""width: 300px; height: 300px;"" />
    </div>","0","0"
"","","","","","html-keyboard-response","111","340228","0.0-111.0-0.0-0.0","AE5BB3054A9A46FABF7249C579A08B44","9ce5c989-d085-4250-a2b9-216b8d29b14d","683bf07d-1a26-40b1-9cff-5abdc1eed0ee","","null","<div style=""display: flex; justify-content: center; align-items: center;"">
                <img src=""images/causal/causal_series_15/causal_series_15_d.jpg"" style=""width: 300px; height: 300px;"" />
              </div>","null",""
"","","","","","html-keyboard-response","112","343231","0.0-112.0","AE5BB3054A9A46FABF7249C579A08B44","9ce5c989-d085-4250-a2b9-216b8d29b14d","683bf07d-1a26-40b1-9cff-5abdc1eed0ee","","null","<div style=""display: flex; justify-content: center; align-items: center;"">
                <img src=""images/other/blank.jpg"" style=""width: 300px; height: 300px;"" />
              </div>","null",""
"","","","","","survey-text","113","364957","0.0-113.0","AE5BB3054A9A46FABF7249C579A08B44","9ce5c989-d085-4250-a2b9-216b8d29b14d","683bf07d-1a26-40b1-9cff-5abdc1eed0ee","","21715","","{""Q0"":""I did not see a noticeable difference between the two decks""}",""
"","","","","","survey-text","114","373541","0.0-114.0","AE5BB3054A9A46FABF7249C579A08B44","9ce5c989-d085-4250-a2b9-216b8d29b14d","683bf07d-1a26-40b1-9cff-5abdc1eed0ee","","8582","","{""Q0"":""Both were interesting and had elements of the same stories""}",""
"","","","","","html-button-response","115","385025","0.0-115.0","AE5BB3054A9A46FABF7249C579A08B44","9ce5c989-d085-4250-a2b9-216b8d29b14d","683bf07d-1a26-40b1-9cff-5abdc1eed0ee","","11484","Which color deck does the fourth image continue the story from the series?","0",""
"","","","","","html-button-response","116","387782","0.0-116.0","AE5BB3054A9A46FABF7249C579A08B44","9ce5c989-d085-4250-a2b9-216b8d29b14d","683bf07d-1a26-40b1-9cff-5abdc1eed0ee","","2756","Which color deck does the fourth image not follow the story from the series?","1",""
"","","","","","survey-text","117","391415","0.0-117.0","AE5BB3054A9A46FABF7249C579A08B44","9ce5c989-d085-4250-a2b9-216b8d29b14d","683bf07d-1a26-40b1-9cff-5abdc1eed0ee","","3632","","{""Q0"":""female"",""Q1"":""34""}",""
"","","","","","instructions","118","395804","0.0-118.0","AE5BB3054A9A46FABF7249C579A08B44","9ce5c989-d085-4250-a2b9-216b8d29b14d","683bf07d-1a26-40b1-9cff-5abdc1eed0ee","[{""page_index"":0,""viewing_time"":4389}]","4389","","",""
