"success","timeout","failed_images","failed_audio","failed_video","trial_type","trial_index","time_elapsed","internal_node_id","subject_id","study_id","session_id","view_history","rt","stimulus","response","choice"
"true","false","[]","[]","[]","preload","0","3746","0.0-0.0","B996FFC736CB4AA59BF5245C9E3DA56B","20d652ff-ceea-4749-a1a9-60d519627286","23db58b9-63b0-4bce-8714-07ce439e665e","","","","",""
"","","","","","instructions","1","6164","0.0-1.0","B996FFC736CB4AA59BF5245C9E3DA56B","20d652ff-ceea-4749-a1a9-60d519627286","23db58b9-63b0-4bce-8714-07ce439e665e","[{""page_index"":0,""viewing_time"":2418}]","2418","","",""
"","","","","","instructions","2","13090","0.0-2.0","B996FFC736CB4AA59BF5245C9E3DA56B","20d652ff-ceea-4749-a1a9-60d519627286","23db58b9-63b0-4bce-8714-07ce439e665e","[{""page_index"":0,""viewing_time"":6925}]","6925","","",""
"true","","","","","fullscreen","3","15659","0.0-3.0","B996FFC736CB4AA59BF5245C9E3DA56B","20d652ff-ceea-4749-a1a9-60d519627286","23db58b9-63b0-4bce-8714-07ce439e665e","","1567","","",""
"","","","","","instructions","4","31890","0.0-4.0","B996FFC736CB4AA59BF5245C9E3DA56B","20d652ff-ceea-4749-a1a9-60d519627286","23db58b9-63b0-4bce-8714-07ce439e665e","[{""page_index"":0,""viewing_time"":16230}]","16231","","",""
"","","","","","html-keyboard-response","5","34906","0.0-5.0","B996FFC736CB4AA59BF5245C9E3DA56B","20d652ff-ceea-4749-a1a9-60d519627286","23db58b9-63b0-4bce-8714-07ce439e665e","","null","<div style=""display: flex; justify-content: center; align-items: center;"">
                <img src=""images/causal/causal_series_17/causal_series_17_a.jpg"" style=""width: 300px; height: 300px;"" />
              </div>","null",""
"","","","","","html-button-response","6","37530","0.0-6.0","B996FFC736CB4AA59BF5245C9E3DA56B","20d652ff-ceea-4749-a1a9-60d519627286","23db58b9-63b0-4bce-8714-07ce439e665e","","2624","
    <div style=""display: flex; justify-content: center; align-items: center;"">
      <img src=""images/red_deck_2.png"" style=""width: 300px; height: 300px; margin-right: 10px;"" />
      <img src=""images/blue_deck_1.png"" style=""width: 300px; height: 300px;"" />
    </div>","0","0"
"","","","","","html-keyboard-response","7","40532","0.0-7.0-0.0-0.0","B996FFC736CB4AA59BF5245C9E3DA56B","20d652ff-ceea-4749-a1a9-60d519627286","23db58b9-63b0-4bce-8714-07ce439e665e","","null","<div style=""display: flex; justify-content: center; align-items: center;"">
                <img src=""images/causal/causal_series_17/causal_series_17_b.jpg"" style=""width: 300px; height: 300px;"" />
              </div>","null",""
"","","","","","html-keyboard-response","8","43532","0.0-7.0-0.0-1.0","B996FFC736CB4AA59BF5245C9E3DA56B","20d652ff-ceea-4749-a1a9-60d519627286","23db58b9-63b0-4bce-8714-07ce439e665e","","null","<div style=""display: flex; justify-content: center; align-items: center;"">
                <img src=""images/causal/causal_series_17/causal_series_17_c.jpg"" style=""width: 300px; height: 300px;"" />
              </div>","null",""
"","","","","","html-keyboard-response","9","46541","0.0-7.0-0.0-2.0","B996FFC736CB4AA59BF5245C9E3DA56B","20d652ff-ceea-4749-a1a9-60d519627286","23db58b9-63b0-4bce-8714-07ce439e665e","","null","<div style=""display: flex; justify-content: center; align-items: center;"">
                <img src=""images/causal/causal_series_17/causal_series_17_d.jpg"" style=""width: 300px; height: 300px;"" />
              </div>","null",""
"","","","","","html-keyboard-response","10","49550","0.0-8.0","B996FFC736CB4AA59BF5245C9E3DA56B","20d652ff-ceea-4749-a1a9-60d519627286","23db58b9-63b0-4bce-8714-07ce439e665e","","null","<div style=""display: flex; justify-content: center; align-items: center;"">
                <img src=""images/other/blank.jpg"" style=""width: 300px; height: 300px;"" />
              </div>","null",""
"","","","","","html-keyboard-response","11","52557","0.0-9.0","B996FFC736CB4AA59BF5245C9E3DA56B","20d652ff-ceea-4749-a1a9-60d519627286","23db58b9-63b0-4bce-8714-07ce439e665e","","null","<div style=""display: flex; justify-content: center; align-items: center;"">
                <img src=""images/causal/causal_series_4/causal_series_4_a.jpg"" style=""width: 300px; height: 300px;"" />
              </div>","null",""
"","","","","","html-button-response","12","55304","0.0-10.0","B996FFC736CB4AA59BF5245C9E3DA56B","20d652ff-ceea-4749-a1a9-60d519627286","23db58b9-63b0-4bce-8714-07ce439e665e","","2746","
    <div style=""display: flex; justify-content: center; align-items: center;"">
      <img src=""images/red_deck_2.png"" style=""width: 300px; height: 300px; margin-right: 10px;"" />
      <img src=""images/blue_deck_1.png"" style=""width: 300px; height: 300px;"" />
    </div>","1","1"
"","","","","","html-keyboard-response","13","58309","0.0-11.0-1.0-0.0","B996FFC736CB4AA59BF5245C9E3DA56B","20d652ff-ceea-4749-a1a9-60d519627286","23db58b9-63b0-4bce-8714-07ce439e665e","","null","<div style=""display: flex; justify-content: center; align-items: center;"">
                <img src=""images/semantic/semantic_series_9/semantic_series_9_d.jpg"" style=""width: 300px; height: 300px;"" />
              </div>","null",""
"","","","","","html-keyboard-response","14","61315","0.0-11.0-1.0-1.0","B996FFC736CB4AA59BF5245C9E3DA56B","20d652ff-ceea-4749-a1a9-60d519627286","23db58b9-63b0-4bce-8714-07ce439e665e","","null","<div style=""display: flex; justify-content: center; align-items: center;"">
                <img src=""images/semantic/semantic_series_10/semantic_series_10_d.jpg"" style=""width: 300px; height: 300px;"" />
              </div>","null",""
"","","","","","html-keyboard-response","15","64319","0.0-11.0-1.0-2.0","B996FFC736CB4AA59BF5245C9E3DA56B","20d652ff-ceea-4749-a1a9-60d519627286","23db58b9-63b0-4bce-8714-07ce439e665e","","null","<div style=""display: flex; justify-content: center; align-items: center;"">
                <img src=""images/semantic/semantic_series_11/semantic_series_11_d.jpg"" style=""width: 300px; height: 300px;"" />
              </div>","null",""
"","","","","","html-keyboard-response","16","67329","0.0-12.0","B996FFC736CB4AA59BF5245C9E3DA56B","20d652ff-ceea-4749-a1a9-60d519627286","23db58b9-63b0-4bce-8714-07ce439e665e","","null","<div style=""display: flex; justify-content: center; align-items: center;"">
                <img src=""images/other/blank.jpg"" style=""width: 300px; height: 300px;"" />
              </div>","null",""
"","","","","","html-keyboard-response","17","70339","0.0-13.0","B996FFC736CB4AA59BF5245C9E3DA56B","20d652ff-ceea-4749-a1a9-60d519627286","23db58b9-63b0-4bce-8714-07ce439e665e","","null","<div style=""display: flex; justify-content: center; align-items: center;"">
                <img src=""images/causal/causal_series_6/causal_series_6_a.jpg"" style=""width: 300px; height: 300px;"" />
              </div>","null",""
"","","","","","html-button-response","18","72514","0.0-14.0","B996FFC736CB4AA59BF5245C9E3DA56B","20d652ff-ceea-4749-a1a9-60d519627286","23db58b9-63b0-4bce-8714-07ce439e665e","","2174","
    <div style=""display: flex; justify-content: center; align-items: center;"">
      <img src=""images/red_deck_2.png"" style=""width: 300px; height: 300px; margin-right: 10px;"" />
      <img src=""images/blue_deck_1.png"" style=""width: 300px; height: 300px;"" />
    </div>","0","0"
"","","","","","html-keyboard-response","19","75526","0.0-15.0-0.0-0.0","B996FFC736CB4AA59BF5245C9E3DA56B","20d652ff-ceea-4749-a1a9-60d519627286","23db58b9-63b0-4bce-8714-07ce439e665e","","null","<div style=""display: flex; justify-content: center; align-items: center;"">
                <img src=""images/causal/causal_series_6/causal_series_6_b.jpg"" style=""width: 300px; height: 300px;"" />
              </div>","null",""
"","","","","","html-keyboard-response","20","78529","0.0-15.0-0.0-1.0","B996FFC736CB4AA59BF5245C9E3DA56B","20d652ff-ceea-4749-a1a9-60d519627286","23db58b9-63b0-4bce-8714-07ce439e665e","","null","<div style=""display: flex; justify-content: center; align-items: center;"">
                <img src=""images/causal/causal_series_6/causal_series_6_c.jpg"" style=""width: 300px; height: 300px;"" />
              </div>","null",""
"","","","","","html-keyboard-response","21","81541","0.0-15.0-0.0-2.0","B996FFC736CB4AA59BF5245C9E3DA56B","20d652ff-ceea-4749-a1a9-60d519627286","23db58b9-63b0-4bce-8714-07ce439e665e","","null","<div style=""display: flex; justify-content: center; align-items: center;"">
                <img src=""images/causal/causal_series_6/causal_series_6_d.jpg"" style=""width: 300px; height: 300px;"" />
              </div>","null",""
"","","","","","html-keyboard-response","22","84541","0.0-16.0","B996FFC736CB4AA59BF5245C9E3DA56B","20d652ff-ceea-4749-a1a9-60d519627286","23db58b9-63b0-4bce-8714-07ce439e665e","","null","<div style=""display: flex; justify-content: center; align-items: center;"">
                <img src=""images/other/blank.jpg"" style=""width: 300px; height: 300px;"" />
              </div>","null",""
"","","","","","html-keyboard-response","23","87544","0.0-17.0","B996FFC736CB4AA59BF5245C9E3DA56B","20d652ff-ceea-4749-a1a9-60d519627286","23db58b9-63b0-4bce-8714-07ce439e665e","","null","<div style=""display: flex; justify-content: center; align-items: center;"">
                <img src=""images/causal/causal_series_3/causal_series_3_a.jpg"" style=""width: 300px; height: 300px;"" />
              </div>","null",""
"","","","","","html-button-response","24","88556","0.0-18.0","B996FFC736CB4AA59BF5245C9E3DA56B","20d652ff-ceea-4749-a1a9-60d519627286","23db58b9-63b0-4bce-8714-07ce439e665e","","1011","
    <div style=""display: flex; justify-content: center; align-items: center;"">
      <img src=""images/red_deck_2.png"" style=""width: 300px; height: 300px; margin-right: 10px;"" />
      <img src=""images/blue_deck_1.png"" style=""width: 300px; height: 300px;"" />
    </div>","0","0"
"","","","","","html-keyboard-response","25","91570","0.0-19.0-0.0-0.0","B996FFC736CB4AA59BF5245C9E3DA56B","20d652ff-ceea-4749-a1a9-60d519627286","23db58b9-63b0-4bce-8714-07ce439e665e","","null","<div style=""display: flex; justify-content: center; align-items: center;"">
                <img src=""images/causal/causal_series_3/causal_series_3_b.jpg"" style=""width: 300px; height: 300px;"" />
              </div>","null",""
"","","","","","html-keyboard-response","26","94573","0.0-19.0-0.0-1.0","B996FFC736CB4AA59BF5245C9E3DA56B","20d652ff-ceea-4749-a1a9-60d519627286","23db58b9-63b0-4bce-8714-07ce439e665e","","null","<div style=""display: flex; justify-content: center; align-items: center;"">
                <img src=""images/causal/causal_series_3/causal_series_3_c.jpg"" style=""width: 300px; height: 300px;"" />
              </div>","null",""
"","","","","","html-keyboard-response","27","97581","0.0-19.0-0.0-2.0","B996FFC736CB4AA59BF5245C9E3DA56B","20d652ff-ceea-4749-a1a9-60d519627286","23db58b9-63b0-4bce-8714-07ce439e665e","","null","<div style=""display: flex; justify-content: center; align-items: center;"">
                <img src=""images/causal/causal_series_3/causal_series_3_d.jpg"" style=""width: 300px; height: 300px;"" />
              </div>","null",""
"","","","","","html-keyboard-response","28","100591","0.0-20.0","B996FFC736CB4AA59BF5245C9E3DA56B","20d652ff-ceea-4749-a1a9-60d519627286","23db58b9-63b0-4bce-8714-07ce439e665e","","null","<div style=""display: flex; justify-content: center; align-items: center;"">
                <img src=""images/other/blank.jpg"" style=""width: 300px; height: 300px;"" />
              </div>","null",""
"","","","","","html-keyboard-response","29","103600","0.0-21.0","B996FFC736CB4AA59BF5245C9E3DA56B","20d652ff-ceea-4749-a1a9-60d519627286","23db58b9-63b0-4bce-8714-07ce439e665e","","null","<div style=""display: flex; justify-content: center; align-items: center;"">
                <img src=""images/causal/causal_series_5/causal_series_5_a.jpg"" style=""width: 300px; height: 300px;"" />
              </div>","null",""
"","","","","","html-button-response","30","104538","0.0-22.0","B996FFC736CB4AA59BF5245C9E3DA56B","20d652ff-ceea-4749-a1a9-60d519627286","23db58b9-63b0-4bce-8714-07ce439e665e","","937","
    <div style=""display: flex; justify-content: center; align-items: center;"">
      <img src=""images/red_deck_2.png"" style=""width: 300px; height: 300px; margin-right: 10px;"" />
      <img src=""images/blue_deck_1.png"" style=""width: 300px; height: 300px;"" />
    </div>","0","0"
"","","","","","html-keyboard-response","31","107540","0.0-23.0-0.0-0.0","B996FFC736CB4AA59BF5245C9E3DA56B","20d652ff-ceea-4749-a1a9-60d519627286","23db58b9-63b0-4bce-8714-07ce439e665e","","null","<div style=""display: flex; justify-content: center; align-items: center;"">
                <img src=""images/causal/causal_series_5/causal_series_5_b.jpg"" style=""width: 300px; height: 300px;"" />
              </div>","null",""
"","","","","","html-keyboard-response","32","110543","0.0-23.0-0.0-1.0","B996FFC736CB4AA59BF5245C9E3DA56B","20d652ff-ceea-4749-a1a9-60d519627286","23db58b9-63b0-4bce-8714-07ce439e665e","","null","<div style=""display: flex; justify-content: center; align-items: center;"">
                <img src=""images/causal/causal_series_5/causal_series_5_c.jpg"" style=""width: 300px; height: 300px;"" />
              </div>","null",""
"","","","","","html-keyboard-response","33","113544","0.0-23.0-0.0-2.0","B996FFC736CB4AA59BF5245C9E3DA56B","20d652ff-ceea-4749-a1a9-60d519627286","23db58b9-63b0-4bce-8714-07ce439e665e","","null","<div style=""display: flex; justify-content: center; align-items: center;"">
                <img src=""images/causal/causal_series_5/causal_series_5_d.jpg"" style=""width: 300px; height: 300px;"" />
              </div>","null",""
"","","","","","html-keyboard-response","34","116549","0.0-24.0","B996FFC736CB4AA59BF5245C9E3DA56B","20d652ff-ceea-4749-a1a9-60d519627286","23db58b9-63b0-4bce-8714-07ce439e665e","","null","<div style=""display: flex; justify-content: center; align-items: center;"">
                <img src=""images/other/blank.jpg"" style=""width: 300px; height: 300px;"" />
              </div>","null",""
"","","","","","html-keyboard-response","35","119559","0.0-25.0","B996FFC736CB4AA59BF5245C9E3DA56B","20d652ff-ceea-4749-a1a9-60d519627286","23db58b9-63b0-4bce-8714-07ce439e665e","","null","<div style=""display: flex; justify-content: center; align-items: center;"">
                <img src=""images/causal/causal_series_9/causal_series_9_a.jpg"" style=""width: 300px; height: 300px;"" />
              </div>","null",""
"","","","","","html-button-response","36","120750","0.0-26.0","B996FFC736CB4AA59BF5245C9E3DA56B","20d652ff-ceea-4749-a1a9-60d519627286","23db58b9-63b0-4bce-8714-07ce439e665e","","1190","
    <div style=""display: flex; justify-content: center; align-items: center;"">
      <img src=""images/red_deck_2.png"" style=""width: 300px; height: 300px; margin-right: 10px;"" />
      <img src=""images/blue_deck_1.png"" style=""width: 300px; height: 300px;"" />
    </div>","1","1"
"","","","","","html-keyboard-response","37","123762","0.0-27.0-1.0-0.0","B996FFC736CB4AA59BF5245C9E3DA56B","20d652ff-ceea-4749-a1a9-60d519627286","23db58b9-63b0-4bce-8714-07ce439e665e","","null","<div style=""display: flex; justify-content: center; align-items: center;"">
                <img src=""images/semantic/semantic_series_6/semantic_series_6_d.jpg"" style=""width: 300px; height: 300px;"" />
              </div>","null",""
"","","","","","html-keyboard-response","38","126777","0.0-27.0-1.0-1.0","B996FFC736CB4AA59BF5245C9E3DA56B","20d652ff-ceea-4749-a1a9-60d519627286","23db58b9-63b0-4bce-8714-07ce439e665e","","null","<div style=""display: flex; justify-content: center; align-items: center;"">
                <img src=""images/semantic/semantic_series_7/semantic_series_7_d.jpg"" style=""width: 300px; height: 300px;"" />
              </div>","null",""
"","","","","","html-keyboard-response","39","129778","0.0-27.0-1.0-2.0","B996FFC736CB4AA59BF5245C9E3DA56B","20d652ff-ceea-4749-a1a9-60d519627286","23db58b9-63b0-4bce-8714-07ce439e665e","","null","<div style=""display: flex; justify-content: center; align-items: center;"">
                <img src=""images/semantic/semantic_series_8/semantic_series_8_d.jpg"" style=""width: 300px; height: 300px;"" />
              </div>","null",""
"","","","","","html-keyboard-response","40","132779","0.0-28.0","B996FFC736CB4AA59BF5245C9E3DA56B","20d652ff-ceea-4749-a1a9-60d519627286","23db58b9-63b0-4bce-8714-07ce439e665e","","null","<div style=""display: flex; justify-content: center; align-items: center;"">
                <img src=""images/other/blank.jpg"" style=""width: 300px; height: 300px;"" />
              </div>","null",""
"","","","","","html-keyboard-response","41","135795","0.0-29.0","B996FFC736CB4AA59BF5245C9E3DA56B","20d652ff-ceea-4749-a1a9-60d519627286","23db58b9-63b0-4bce-8714-07ce439e665e","","null","<div style=""display: flex; justify-content: center; align-items: center;"">
                <img src=""images/causal/causal_series_8/causal_series_8_a.jpg"" style=""width: 300px; height: 300px;"" />
              </div>","null",""
"","","","","","html-button-response","42","136932","0.0-30.0","B996FFC736CB4AA59BF5245C9E3DA56B","20d652ff-ceea-4749-a1a9-60d519627286","23db58b9-63b0-4bce-8714-07ce439e665e","","1137","
    <div style=""display: flex; justify-content: center; align-items: center;"">
      <img src=""images/red_deck_2.png"" style=""width: 300px; height: 300px; margin-right: 10px;"" />
      <img src=""images/blue_deck_1.png"" style=""width: 300px; height: 300px;"" />
    </div>","0","0"
"","","","","","html-keyboard-response","43","139934","0.0-31.0-0.0-0.0","B996FFC736CB4AA59BF5245C9E3DA56B","20d652ff-ceea-4749-a1a9-60d519627286","23db58b9-63b0-4bce-8714-07ce439e665e","","null","<div style=""display: flex; justify-content: center; align-items: center;"">
                <img src=""images/causal/causal_series_8/causal_series_8_b.jpg"" style=""width: 300px; height: 300px;"" />
              </div>","null",""
"","","","","","html-keyboard-response","44","142941","0.0-31.0-0.0-1.0","B996FFC736CB4AA59BF5245C9E3DA56B","20d652ff-ceea-4749-a1a9-60d519627286","23db58b9-63b0-4bce-8714-07ce439e665e","","null","<div style=""display: flex; justify-content: center; align-items: center;"">
                <img src=""images/causal/causal_series_8/causal_series_8_c.jpg"" style=""width: 300px; height: 300px;"" />
              </div>","null",""
"","","","","","html-keyboard-response","45","145952","0.0-31.0-0.0-2.0","B996FFC736CB4AA59BF5245C9E3DA56B","20d652ff-ceea-4749-a1a9-60d519627286","23db58b9-63b0-4bce-8714-07ce439e665e","","null","<div style=""display: flex; justify-content: center; align-items: center;"">
                <img src=""images/causal/causal_series_8/causal_series_8_d.jpg"" style=""width: 300px; height: 300px;"" />
              </div>","null",""
"","","","","","html-keyboard-response","46","148965","0.0-32.0","B996FFC736CB4AA59BF5245C9E3DA56B","20d652ff-ceea-4749-a1a9-60d519627286","23db58b9-63b0-4bce-8714-07ce439e665e","","null","<div style=""display: flex; justify-content: center; align-items: center;"">
                <img src=""images/other/blank.jpg"" style=""width: 300px; height: 300px;"" />
              </div>","null",""
"","","","","","html-keyboard-response","47","151968","0.0-33.0","B996FFC736CB4AA59BF5245C9E3DA56B","20d652ff-ceea-4749-a1a9-60d519627286","23db58b9-63b0-4bce-8714-07ce439e665e","","null","<div style=""display: flex; justify-content: center; align-items: center;"">
                <img src=""images/causal/causal_series_12/causal_series_12_a.jpg"" style=""width: 300px; height: 300px;"" />
              </div>","null",""
"","","","","","html-button-response","48","153132","0.0-34.0","B996FFC736CB4AA59BF5245C9E3DA56B","20d652ff-ceea-4749-a1a9-60d519627286","23db58b9-63b0-4bce-8714-07ce439e665e","","1163","
    <div style=""display: flex; justify-content: center; align-items: center;"">
      <img src=""images/red_deck_2.png"" style=""width: 300px; height: 300px; margin-right: 10px;"" />
      <img src=""images/blue_deck_1.png"" style=""width: 300px; height: 300px;"" />
    </div>","0","0"
"","","","","","html-keyboard-response","49","156139","0.0-35.0-0.0-0.0","B996FFC736CB4AA59BF5245C9E3DA56B","20d652ff-ceea-4749-a1a9-60d519627286","23db58b9-63b0-4bce-8714-07ce439e665e","","null","<div style=""display: flex; justify-content: center; align-items: center;"">
                <img src=""images/causal/causal_series_12/causal_series_12_b.jpg"" style=""width: 300px; height: 300px;"" />
              </div>","null",""
"","","","","","html-keyboard-response","50","159145","0.0-35.0-0.0-1.0","B996FFC736CB4AA59BF5245C9E3DA56B","20d652ff-ceea-4749-a1a9-60d519627286","23db58b9-63b0-4bce-8714-07ce439e665e","","null","<div style=""display: flex; justify-content: center; align-items: center;"">
                <img src=""images/causal/causal_series_12/causal_series_12_c.jpg"" style=""width: 300px; height: 300px;"" />
              </div>","null",""
"","","","","","html-keyboard-response","51","162152","0.0-35.0-0.0-2.0","B996FFC736CB4AA59BF5245C9E3DA56B","20d652ff-ceea-4749-a1a9-60d519627286","23db58b9-63b0-4bce-8714-07ce439e665e","","null","<div style=""display: flex; justify-content: center; align-items: center;"">
                <img src=""images/causal/causal_series_12/causal_series_12_d.jpg"" style=""width: 300px; height: 300px;"" />
              </div>","null",""
"","","","","","html-keyboard-response","52","165165","0.0-36.0","B996FFC736CB4AA59BF5245C9E3DA56B","20d652ff-ceea-4749-a1a9-60d519627286","23db58b9-63b0-4bce-8714-07ce439e665e","","null","<div style=""display: flex; justify-content: center; align-items: center;"">
                <img src=""images/other/blank.jpg"" style=""width: 300px; height: 300px;"" />
              </div>","null",""
"","","","","","html-keyboard-response","53","168166","0.0-37.0","B996FFC736CB4AA59BF5245C9E3DA56B","20d652ff-ceea-4749-a1a9-60d519627286","23db58b9-63b0-4bce-8714-07ce439e665e","","null","<div style=""display: flex; justify-content: center; align-items: center;"">
                <img src=""images/causal/causal_series_10/causal_series_10_a.jpg"" style=""width: 300px; height: 300px;"" />
              </div>","null",""
"","","","","","html-button-response","54","168915","0.0-38.0","B996FFC736CB4AA59BF5245C9E3DA56B","20d652ff-ceea-4749-a1a9-60d519627286","23db58b9-63b0-4bce-8714-07ce439e665e","","749","
    <div style=""display: flex; justify-content: center; align-items: center;"">
      <img src=""images/red_deck_2.png"" style=""width: 300px; height: 300px; margin-right: 10px;"" />
      <img src=""images/blue_deck_1.png"" style=""width: 300px; height: 300px;"" />
    </div>","0","0"
"","","","","","html-keyboard-response","55","171917","0.0-39.0-0.0-0.0","B996FFC736CB4AA59BF5245C9E3DA56B","20d652ff-ceea-4749-a1a9-60d519627286","23db58b9-63b0-4bce-8714-07ce439e665e","","null","<div style=""display: flex; justify-content: center; align-items: center;"">
                <img src=""images/causal/causal_series_10/causal_series_10_b.jpg"" style=""width: 300px; height: 300px;"" />
              </div>","null",""
"","","","","","html-keyboard-response","56","174920","0.0-39.0-0.0-1.0","B996FFC736CB4AA59BF5245C9E3DA56B","20d652ff-ceea-4749-a1a9-60d519627286","23db58b9-63b0-4bce-8714-07ce439e665e","","null","<div style=""display: flex; justify-content: center; align-items: center;"">
                <img src=""images/causal/causal_series_10/causal_series_10_c.jpg"" style=""width: 300px; height: 300px;"" />
              </div>","null",""
"","","","","","html-keyboard-response","57","177934","0.0-39.0-0.0-2.0","B996FFC736CB4AA59BF5245C9E3DA56B","20d652ff-ceea-4749-a1a9-60d519627286","23db58b9-63b0-4bce-8714-07ce439e665e","","null","<div style=""display: flex; justify-content: center; align-items: center;"">
                <img src=""images/causal/causal_series_10/causal_series_10_d.jpg"" style=""width: 300px; height: 300px;"" />
              </div>","null",""
"","","","","","html-keyboard-response","58","180939","0.0-40.0","B996FFC736CB4AA59BF5245C9E3DA56B","20d652ff-ceea-4749-a1a9-60d519627286","23db58b9-63b0-4bce-8714-07ce439e665e","","null","<div style=""display: flex; justify-content: center; align-items: center;"">
                <img src=""images/other/blank.jpg"" style=""width: 300px; height: 300px;"" />
              </div>","null",""
"","","","","","html-keyboard-response","59","183954","0.0-41.0","B996FFC736CB4AA59BF5245C9E3DA56B","20d652ff-ceea-4749-a1a9-60d519627286","23db58b9-63b0-4bce-8714-07ce439e665e","","null","<div style=""display: flex; justify-content: center; align-items: center;"">
                <img src=""images/causal/causal_series_16/causal_series_16_a.jpg"" style=""width: 300px; height: 300px;"" />
              </div>","null",""
"","","","","","html-button-response","60","184718","0.0-42.0","B996FFC736CB4AA59BF5245C9E3DA56B","20d652ff-ceea-4749-a1a9-60d519627286","23db58b9-63b0-4bce-8714-07ce439e665e","","763","
    <div style=""display: flex; justify-content: center; align-items: center;"">
      <img src=""images/red_deck_2.png"" style=""width: 300px; height: 300px; margin-right: 10px;"" />
      <img src=""images/blue_deck_1.png"" style=""width: 300px; height: 300px;"" />
    </div>","1","1"
"","","","","","html-keyboard-response","61","187731","0.0-43.0-1.0-0.0","B996FFC736CB4AA59BF5245C9E3DA56B","20d652ff-ceea-4749-a1a9-60d519627286","23db58b9-63b0-4bce-8714-07ce439e665e","","null","<div style=""display: flex; justify-content: center; align-items: center;"">
                <img src=""images/semantic/semantic_series_9/semantic_series_9_d.jpg"" style=""width: 300px; height: 300px;"" />
              </div>","null",""
"","","","","","html-keyboard-response","62","190743","0.0-43.0-1.0-1.0","B996FFC736CB4AA59BF5245C9E3DA56B","20d652ff-ceea-4749-a1a9-60d519627286","23db58b9-63b0-4bce-8714-07ce439e665e","","null","<div style=""display: flex; justify-content: center; align-items: center;"">
                <img src=""images/semantic/semantic_series_10/semantic_series_10_d.jpg"" style=""width: 300px; height: 300px;"" />
              </div>","null",""
"","","","","","html-keyboard-response","63","193745","0.0-43.0-1.0-2.0","B996FFC736CB4AA59BF5245C9E3DA56B","20d652ff-ceea-4749-a1a9-60d519627286","23db58b9-63b0-4bce-8714-07ce439e665e","","null","<div style=""display: flex; justify-content: center; align-items: center;"">
                <img src=""images/semantic/semantic_series_11/semantic_series_11_d.jpg"" style=""width: 300px; height: 300px;"" />
              </div>","null",""
"","","","","","html-keyboard-response","64","196747","0.0-44.0","B996FFC736CB4AA59BF5245C9E3DA56B","20d652ff-ceea-4749-a1a9-60d519627286","23db58b9-63b0-4bce-8714-07ce439e665e","","null","<div style=""display: flex; justify-content: center; align-items: center;"">
                <img src=""images/other/blank.jpg"" style=""width: 300px; height: 300px;"" />
              </div>","null",""
"","","","","","html-keyboard-response","65","199758","0.0-45.0","B996FFC736CB4AA59BF5245C9E3DA56B","20d652ff-ceea-4749-a1a9-60d519627286","23db58b9-63b0-4bce-8714-07ce439e665e","","null","<div style=""display: flex; justify-content: center; align-items: center;"">
                <img src=""images/causal/causal_series_2/causal_series_2_a.jpg"" style=""width: 300px; height: 300px;"" />
              </div>","null",""
"","","","","","html-button-response","66","200798","0.0-46.0","B996FFC736CB4AA59BF5245C9E3DA56B","20d652ff-ceea-4749-a1a9-60d519627286","23db58b9-63b0-4bce-8714-07ce439e665e","","1039","
    <div style=""display: flex; justify-content: center; align-items: center;"">
      <img src=""images/red_deck_2.png"" style=""width: 300px; height: 300px; margin-right: 10px;"" />
      <img src=""images/blue_deck_1.png"" style=""width: 300px; height: 300px;"" />
    </div>","0","0"
"","","","","","html-keyboard-response","67","203799","0.0-47.0-0.0-0.0","B996FFC736CB4AA59BF5245C9E3DA56B","20d652ff-ceea-4749-a1a9-60d519627286","23db58b9-63b0-4bce-8714-07ce439e665e","","null","<div style=""display: flex; justify-content: center; align-items: center;"">
                <img src=""images/causal/causal_series_2/causal_series_2_b.jpg"" style=""width: 300px; height: 300px;"" />
              </div>","null",""
"","","","","","html-keyboard-response","68","206801","0.0-47.0-0.0-1.0","B996FFC736CB4AA59BF5245C9E3DA56B","20d652ff-ceea-4749-a1a9-60d519627286","23db58b9-63b0-4bce-8714-07ce439e665e","","null","<div style=""display: flex; justify-content: center; align-items: center;"">
                <img src=""images/causal/causal_series_2/causal_series_2_c.jpg"" style=""width: 300px; height: 300px;"" />
              </div>","null",""
"","","","","","html-keyboard-response","69","209810","0.0-47.0-0.0-2.0","B996FFC736CB4AA59BF5245C9E3DA56B","20d652ff-ceea-4749-a1a9-60d519627286","23db58b9-63b0-4bce-8714-07ce439e665e","","null","<div style=""display: flex; justify-content: center; align-items: center;"">
                <img src=""images/causal/causal_series_2/causal_series_2_d.jpg"" style=""width: 300px; height: 300px;"" />
              </div>","null",""
"","","","","","html-keyboard-response","70","212811","0.0-48.0","B996FFC736CB4AA59BF5245C9E3DA56B","20d652ff-ceea-4749-a1a9-60d519627286","23db58b9-63b0-4bce-8714-07ce439e665e","","null","<div style=""display: flex; justify-content: center; align-items: center;"">
                <img src=""images/other/blank.jpg"" style=""width: 300px; height: 300px;"" />
              </div>","null",""
"","","","","","html-keyboard-response","71","215816","0.0-49.0","B996FFC736CB4AA59BF5245C9E3DA56B","20d652ff-ceea-4749-a1a9-60d519627286","23db58b9-63b0-4bce-8714-07ce439e665e","","null","<div style=""display: flex; justify-content: center; align-items: center;"">
                <img src=""images/causal/causal_series_14/causal_series_14_a.jpg"" style=""width: 300px; height: 300px;"" />
              </div>","null",""
"","","","","","html-button-response","72","216688","0.0-50.0","B996FFC736CB4AA59BF5245C9E3DA56B","20d652ff-ceea-4749-a1a9-60d519627286","23db58b9-63b0-4bce-8714-07ce439e665e","","871","
    <div style=""display: flex; justify-content: center; align-items: center;"">
      <img src=""images/red_deck_2.png"" style=""width: 300px; height: 300px; margin-right: 10px;"" />
      <img src=""images/blue_deck_1.png"" style=""width: 300px; height: 300px;"" />
    </div>","0","0"
"","","","","","html-keyboard-response","73","219698","0.0-51.0-0.0-0.0","B996FFC736CB4AA59BF5245C9E3DA56B","20d652ff-ceea-4749-a1a9-60d519627286","23db58b9-63b0-4bce-8714-07ce439e665e","","null","<div style=""display: flex; justify-content: center; align-items: center;"">
                <img src=""images/causal/causal_series_14/causal_series_14_b.jpg"" style=""width: 300px; height: 300px;"" />
              </div>","null",""
"","","","","","html-keyboard-response","74","222710","0.0-51.0-0.0-1.0","B996FFC736CB4AA59BF5245C9E3DA56B","20d652ff-ceea-4749-a1a9-60d519627286","23db58b9-63b0-4bce-8714-07ce439e665e","","null","<div style=""display: flex; justify-content: center; align-items: center;"">
                <img src=""images/causal/causal_series_14/causal_series_14_c.jpg"" style=""width: 300px; height: 300px;"" />
              </div>","null",""
"","","","","","html-keyboard-response","75","225715","0.0-51.0-0.0-2.0","B996FFC736CB4AA59BF5245C9E3DA56B","20d652ff-ceea-4749-a1a9-60d519627286","23db58b9-63b0-4bce-8714-07ce439e665e","","null","<div style=""display: flex; justify-content: center; align-items: center;"">
                <img src=""images/causal/causal_series_14/causal_series_14_d.jpg"" style=""width: 300px; height: 300px;"" />
              </div>","null",""
"","","","","","html-keyboard-response","76","228716","0.0-52.0","B996FFC736CB4AA59BF5245C9E3DA56B","20d652ff-ceea-4749-a1a9-60d519627286","23db58b9-63b0-4bce-8714-07ce439e665e","","null","<div style=""display: flex; justify-content: center; align-items: center;"">
                <img src=""images/other/blank.jpg"" style=""width: 300px; height: 300px;"" />
              </div>","null",""
"","","","","","html-keyboard-response","77","231719","0.0-53.0","B996FFC736CB4AA59BF5245C9E3DA56B","20d652ff-ceea-4749-a1a9-60d519627286","23db58b9-63b0-4bce-8714-07ce439e665e","","null","<div style=""display: flex; justify-content: center; align-items: center;"">
                <img src=""images/causal/causal_series_7/causal_series_7_a.jpg"" style=""width: 300px; height: 300px;"" />
              </div>","null",""
"","","","","","html-button-response","78","233054","0.0-54.0","B996FFC736CB4AA59BF5245C9E3DA56B","20d652ff-ceea-4749-a1a9-60d519627286","23db58b9-63b0-4bce-8714-07ce439e665e","","1334","
    <div style=""display: flex; justify-content: center; align-items: center;"">
      <img src=""images/red_deck_2.png"" style=""width: 300px; height: 300px; margin-right: 10px;"" />
      <img src=""images/blue_deck_1.png"" style=""width: 300px; height: 300px;"" />
    </div>","1","1"
"","","","","","html-keyboard-response","79","236055","0.0-55.0-1.0-0.0","B996FFC736CB4AA59BF5245C9E3DA56B","20d652ff-ceea-4749-a1a9-60d519627286","23db58b9-63b0-4bce-8714-07ce439e665e","","null","<div style=""display: flex; justify-content: center; align-items: center;"">
                <img src=""images/semantic/semantic_series_18/semantic_series_18_d.jpg"" style=""width: 300px; height: 300px;"" />
              </div>","null",""
"","","","","","html-keyboard-response","80","239069","0.0-55.0-1.0-1.0","B996FFC736CB4AA59BF5245C9E3DA56B","20d652ff-ceea-4749-a1a9-60d519627286","23db58b9-63b0-4bce-8714-07ce439e665e","","null","<div style=""display: flex; justify-content: center; align-items: center;"">
                <img src=""images/semantic/semantic_series_1/semantic_series_1_d.jpg"" style=""width: 300px; height: 300px;"" />
              </div>","null",""
"","","","","","html-keyboard-response","81","242083","0.0-55.0-1.0-2.0","B996FFC736CB4AA59BF5245C9E3DA56B","20d652ff-ceea-4749-a1a9-60d519627286","23db58b9-63b0-4bce-8714-07ce439e665e","","null","<div style=""display: flex; justify-content: center; align-items: center;"">
                <img src=""images/semantic/semantic_series_2/semantic_series_2_d.jpg"" style=""width: 300px; height: 300px;"" />
              </div>","null",""
"","","","","","html-keyboard-response","82","245086","0.0-56.0","B996FFC736CB4AA59BF5245C9E3DA56B","20d652ff-ceea-4749-a1a9-60d519627286","23db58b9-63b0-4bce-8714-07ce439e665e","","null","<div style=""display: flex; justify-content: center; align-items: center;"">
                <img src=""images/other/blank.jpg"" style=""width: 300px; height: 300px;"" />
              </div>","null",""
"","","","","","html-keyboard-response","83","248099","0.0-57.0","B996FFC736CB4AA59BF5245C9E3DA56B","20d652ff-ceea-4749-a1a9-60d519627286","23db58b9-63b0-4bce-8714-07ce439e665e","","null","<div style=""display: flex; justify-content: center; align-items: center;"">
                <img src=""images/causal/causal_series_15/causal_series_15_a.jpg"" style=""width: 300px; height: 300px;"" />
              </div>","null",""
"","","","","","html-button-response","84","249162","0.0-58.0","B996FFC736CB4AA59BF5245C9E3DA56B","20d652ff-ceea-4749-a1a9-60d519627286","23db58b9-63b0-4bce-8714-07ce439e665e","","1062","
    <div style=""display: flex; justify-content: center; align-items: center;"">
      <img src=""images/red_deck_2.png"" style=""width: 300px; height: 300px; margin-right: 10px;"" />
      <img src=""images/blue_deck_1.png"" style=""width: 300px; height: 300px;"" />
    </div>","0","0"
"","","","","","html-keyboard-response","85","252167","0.0-59.0-0.0-0.0","B996FFC736CB4AA59BF5245C9E3DA56B","20d652ff-ceea-4749-a1a9-60d519627286","23db58b9-63b0-4bce-8714-07ce439e665e","","null","<div style=""display: flex; justify-content: center; align-items: center;"">
                <img src=""images/causal/causal_series_15/causal_series_15_b.jpg"" style=""width: 300px; height: 300px;"" />
              </div>","null",""
"","","","","","html-keyboard-response","86","255178","0.0-59.0-0.0-1.0","B996FFC736CB4AA59BF5245C9E3DA56B","20d652ff-ceea-4749-a1a9-60d519627286","23db58b9-63b0-4bce-8714-07ce439e665e","","null","<div style=""display: flex; justify-content: center; align-items: center;"">
                <img src=""images/causal/causal_series_15/causal_series_15_c.jpg"" style=""width: 300px; height: 300px;"" />
              </div>","null",""
"","","","","","html-keyboard-response","87","258188","0.0-59.0-0.0-2.0","B996FFC736CB4AA59BF5245C9E3DA56B","20d652ff-ceea-4749-a1a9-60d519627286","23db58b9-63b0-4bce-8714-07ce439e665e","","null","<div style=""display: flex; justify-content: center; align-items: center;"">
                <img src=""images/causal/causal_series_15/causal_series_15_d.jpg"" style=""width: 300px; height: 300px;"" />
              </div>","null",""
"","","","","","html-keyboard-response","88","261192","0.0-60.0","B996FFC736CB4AA59BF5245C9E3DA56B","20d652ff-ceea-4749-a1a9-60d519627286","23db58b9-63b0-4bce-8714-07ce439e665e","","null","<div style=""display: flex; justify-content: center; align-items: center;"">
                <img src=""images/other/blank.jpg"" style=""width: 300px; height: 300px;"" />
              </div>","null",""
"","","","","","html-keyboard-response","89","264197","0.0-61.0","B996FFC736CB4AA59BF5245C9E3DA56B","20d652ff-ceea-4749-a1a9-60d519627286","23db58b9-63b0-4bce-8714-07ce439e665e","","null","<div style=""display: flex; justify-content: center; align-items: center;"">
                <img src=""images/causal/causal_series_11/causal_series_11_a.jpg"" style=""width: 300px; height: 300px;"" />
              </div>","null",""
"","","","","","html-button-response","90","265146","0.0-62.0","B996FFC736CB4AA59BF5245C9E3DA56B","20d652ff-ceea-4749-a1a9-60d519627286","23db58b9-63b0-4bce-8714-07ce439e665e","","948","
    <div style=""display: flex; justify-content: center; align-items: center;"">
      <img src=""images/red_deck_2.png"" style=""width: 300px; height: 300px; margin-right: 10px;"" />
      <img src=""images/blue_deck_1.png"" style=""width: 300px; height: 300px;"" />
    </div>","0","0"
"","","","","","html-keyboard-response","91","268153","0.0-63.0-0.0-0.0","B996FFC736CB4AA59BF5245C9E3DA56B","20d652ff-ceea-4749-a1a9-60d519627286","23db58b9-63b0-4bce-8714-07ce439e665e","","null","<div style=""display: flex; justify-content: center; align-items: center;"">
                <img src=""images/causal/causal_series_11/causal_series_11_b.jpg"" style=""width: 300px; height: 300px;"" />
              </div>","null",""
"","","","","","html-keyboard-response","92","271156","0.0-63.0-0.0-1.0","B996FFC736CB4AA59BF5245C9E3DA56B","20d652ff-ceea-4749-a1a9-60d519627286","23db58b9-63b0-4bce-8714-07ce439e665e","","null","<div style=""display: flex; justify-content: center; align-items: center;"">
                <img src=""images/causal/causal_series_11/causal_series_11_c.jpg"" style=""width: 300px; height: 300px;"" />
              </div>","null",""
"","","","","","html-keyboard-response","93","274157","0.0-63.0-0.0-2.0","B996FFC736CB4AA59BF5245C9E3DA56B","20d652ff-ceea-4749-a1a9-60d519627286","23db58b9-63b0-4bce-8714-07ce439e665e","","null","<div style=""display: flex; justify-content: center; align-items: center;"">
                <img src=""images/causal/causal_series_11/causal_series_11_d.jpg"" style=""width: 300px; height: 300px;"" />
              </div>","null",""
"","","","","","html-keyboard-response","94","277169","0.0-64.0","B996FFC736CB4AA59BF5245C9E3DA56B","20d652ff-ceea-4749-a1a9-60d519627286","23db58b9-63b0-4bce-8714-07ce439e665e","","null","<div style=""display: flex; justify-content: center; align-items: center;"">
                <img src=""images/other/blank.jpg"" style=""width: 300px; height: 300px;"" />
              </div>","null",""
"","","","","","html-keyboard-response","95","280182","0.0-65.0","B996FFC736CB4AA59BF5245C9E3DA56B","20d652ff-ceea-4749-a1a9-60d519627286","23db58b9-63b0-4bce-8714-07ce439e665e","","null","<div style=""display: flex; justify-content: center; align-items: center;"">
                <img src=""images/causal/causal_series_13/causal_series_13_a.jpg"" style=""width: 300px; height: 300px;"" />
              </div>","null",""
"","","","","","html-button-response","96","281180","0.0-66.0","B996FFC736CB4AA59BF5245C9E3DA56B","20d652ff-ceea-4749-a1a9-60d519627286","23db58b9-63b0-4bce-8714-07ce439e665e","","997","
    <div style=""display: flex; justify-content: center; align-items: center;"">
      <img src=""images/red_deck_2.png"" style=""width: 300px; height: 300px; margin-right: 10px;"" />
      <img src=""images/blue_deck_1.png"" style=""width: 300px; height: 300px;"" />
    </div>","0","0"
"","","","","","html-keyboard-response","97","284182","0.0-67.0-0.0-0.0","B996FFC736CB4AA59BF5245C9E3DA56B","20d652ff-ceea-4749-a1a9-60d519627286","23db58b9-63b0-4bce-8714-07ce439e665e","","null","<div style=""display: flex; justify-content: center; align-items: center;"">
                <img src=""images/causal/causal_series_13/causal_series_13_b.jpg"" style=""width: 300px; height: 300px;"" />
              </div>","null",""
"","","","","","html-keyboard-response","98","287196","0.0-67.0-0.0-1.0","B996FFC736CB4AA59BF5245C9E3DA56B","20d652ff-ceea-4749-a1a9-60d519627286","23db58b9-63b0-4bce-8714-07ce439e665e","","null","<div style=""display: flex; justify-content: center; align-items: center;"">
                <img src=""images/causal/causal_series_13/causal_series_13_c.jpg"" style=""width: 300px; height: 300px;"" />
              </div>","null",""
"","","","","","html-keyboard-response","99","290208","0.0-67.0-0.0-2.0","B996FFC736CB4AA59BF5245C9E3DA56B","20d652ff-ceea-4749-a1a9-60d519627286","23db58b9-63b0-4bce-8714-07ce439e665e","","null","<div style=""display: flex; justify-content: center; align-items: center;"">
                <img src=""images/causal/causal_series_13/causal_series_13_d.jpg"" style=""width: 300px; height: 300px;"" />
              </div>","null",""
"","","","","","html-keyboard-response","100","293215","0.0-68.0","B996FFC736CB4AA59BF5245C9E3DA56B","20d652ff-ceea-4749-a1a9-60d519627286","23db58b9-63b0-4bce-8714-07ce439e665e","","null","<div style=""display: flex; justify-content: center; align-items: center;"">
                <img src=""images/other/blank.jpg"" style=""width: 300px; height: 300px;"" />
              </div>","null",""
"","","","","","html-keyboard-response","101","296215","0.0-69.0","B996FFC736CB4AA59BF5245C9E3DA56B","20d652ff-ceea-4749-a1a9-60d519627286","23db58b9-63b0-4bce-8714-07ce439e665e","","null","<div style=""display: flex; justify-content: center; align-items: center;"">
                <img src=""images/causal/causal_series_1/causal_series_1_a.jpg"" style=""width: 300px; height: 300px;"" />
              </div>","null",""
"","","","","","html-button-response","102","296966","0.0-70.0","B996FFC736CB4AA59BF5245C9E3DA56B","20d652ff-ceea-4749-a1a9-60d519627286","23db58b9-63b0-4bce-8714-07ce439e665e","","750","
    <div style=""display: flex; justify-content: center; align-items: center;"">
      <img src=""images/red_deck_2.png"" style=""width: 300px; height: 300px; margin-right: 10px;"" />
      <img src=""images/blue_deck_1.png"" style=""width: 300px; height: 300px;"" />
    </div>","0","0"
"","","","","","html-keyboard-response","103","299978","0.0-71.0-0.0-0.0","B996FFC736CB4AA59BF5245C9E3DA56B","20d652ff-ceea-4749-a1a9-60d519627286","23db58b9-63b0-4bce-8714-07ce439e665e","","null","<div style=""display: flex; justify-content: center; align-items: center;"">
                <img src=""images/causal/causal_series_1/causal_series_1_b.jpg"" style=""width: 300px; height: 300px;"" />
              </div>","null",""
"","","","","","html-keyboard-response","104","302979","0.0-71.0-0.0-1.0","B996FFC736CB4AA59BF5245C9E3DA56B","20d652ff-ceea-4749-a1a9-60d519627286","23db58b9-63b0-4bce-8714-07ce439e665e","","null","<div style=""display: flex; justify-content: center; align-items: center;"">
                <img src=""images/causal/causal_series_1/causal_series_1_c.jpg"" style=""width: 300px; height: 300px;"" />
              </div>","null",""
"","","","","","html-keyboard-response","105","305981","0.0-71.0-0.0-2.0","B996FFC736CB4AA59BF5245C9E3DA56B","20d652ff-ceea-4749-a1a9-60d519627286","23db58b9-63b0-4bce-8714-07ce439e665e","","null","<div style=""display: flex; justify-content: center; align-items: center;"">
                <img src=""images/causal/causal_series_1/causal_series_1_d.jpg"" style=""width: 300px; height: 300px;"" />
              </div>","null",""
"","","","","","html-keyboard-response","106","308994","0.0-72.0","B996FFC736CB4AA59BF5245C9E3DA56B","20d652ff-ceea-4749-a1a9-60d519627286","23db58b9-63b0-4bce-8714-07ce439e665e","","null","<div style=""display: flex; justify-content: center; align-items: center;"">
                <img src=""images/other/blank.jpg"" style=""width: 300px; height: 300px;"" />
              </div>","null",""
"","","","","","html-keyboard-response","107","312007","0.0-73.0","B996FFC736CB4AA59BF5245C9E3DA56B","20d652ff-ceea-4749-a1a9-60d519627286","23db58b9-63b0-4bce-8714-07ce439e665e","","null","<div style=""display: flex; justify-content: center; align-items: center;"">
                <img src=""images/causal/causal_series_18/causal_series_18_a.jpg"" style=""width: 300px; height: 300px;"" />
              </div>","null",""
"","","","","","html-button-response","108","313140","0.0-74.0","B996FFC736CB4AA59BF5245C9E3DA56B","20d652ff-ceea-4749-a1a9-60d519627286","23db58b9-63b0-4bce-8714-07ce439e665e","","1132","
    <div style=""display: flex; justify-content: center; align-items: center;"">
      <img src=""images/red_deck_2.png"" style=""width: 300px; height: 300px; margin-right: 10px;"" />
      <img src=""images/blue_deck_1.png"" style=""width: 300px; height: 300px;"" />
    </div>","0","0"
"","","","","","html-keyboard-response","109","316144","0.0-75.0-0.0-0.0","B996FFC736CB4AA59BF5245C9E3DA56B","20d652ff-ceea-4749-a1a9-60d519627286","23db58b9-63b0-4bce-8714-07ce439e665e","","null","<div style=""display: flex; justify-content: center; align-items: center;"">
                <img src=""images/causal/causal_series_18/causal_series_18_b.jpg"" style=""width: 300px; height: 300px;"" />
              </div>","null",""
"","","","","","html-keyboard-response","110","319147","0.0-75.0-0.0-1.0","B996FFC736CB4AA59BF5245C9E3DA56B","20d652ff-ceea-4749-a1a9-60d519627286","23db58b9-63b0-4bce-8714-07ce439e665e","","null","<div style=""display: flex; justify-content: center; align-items: center;"">
                <img src=""images/causal/causal_series_18/causal_series_18_c.jpg"" style=""width: 300px; height: 300px;"" />
              </div>","null",""
"","","","","","html-keyboard-response","111","322153","0.0-75.0-0.0-2.0","B996FFC736CB4AA59BF5245C9E3DA56B","20d652ff-ceea-4749-a1a9-60d519627286","23db58b9-63b0-4bce-8714-07ce439e665e","","null","<div style=""display: flex; justify-content: center; align-items: center;"">
                <img src=""images/causal/causal_series_18/causal_series_18_d.jpg"" style=""width: 300px; height: 300px;"" />
              </div>","null",""
"","","","","","html-keyboard-response","112","325161","0.0-76.0","B996FFC736CB4AA59BF5245C9E3DA56B","20d652ff-ceea-4749-a1a9-60d519627286","23db58b9-63b0-4bce-8714-07ce439e665e","","null","<div style=""display: flex; justify-content: center; align-items: center;"">
                <img src=""images/other/blank.jpg"" style=""width: 300px; height: 300px;"" />
              </div>","null",""
"","","","","","survey-text","113","357244","0.0-77.0","B996FFC736CB4AA59BF5245C9E3DA56B","20d652ff-ceea-4749-a1a9-60d519627286","23db58b9-63b0-4bce-8714-07ce439e665e","","32081","","{""Q0"":""Red (left) deck carried out a story in order, the right deck was random things""}",""
"","","","","","survey-text","114","363046","0.0-78.0","B996FFC736CB4AA59BF5245C9E3DA56B","20d652ff-ceea-4749-a1a9-60d519627286","23db58b9-63b0-4bce-8714-07ce439e665e","","5799","","{""Q0"":""left""}",""
"","","","","","html-button-response","115","371464","0.0-79.0","B996FFC736CB4AA59BF5245C9E3DA56B","20d652ff-ceea-4749-a1a9-60d519627286","23db58b9-63b0-4bce-8714-07ce439e665e","","8417","Which color deck does the fourth image continue the story from the series?","0",""
"","","","","","html-button-response","116","376710","0.0-80.0","B996FFC736CB4AA59BF5245C9E3DA56B","20d652ff-ceea-4749-a1a9-60d519627286","23db58b9-63b0-4bce-8714-07ce439e665e","","5246","Which color deck does the fourth image not follow the story from the series?","0",""
"","","","","","survey-text","117","386386","0.0-81.0","B996FFC736CB4AA59BF5245C9E3DA56B","20d652ff-ceea-4749-a1a9-60d519627286","23db58b9-63b0-4bce-8714-07ce439e665e","","9674","","{""Q0"":""male"",""Q1"":""35""}",""
"","","","","","instructions","118","389620","0.0-82.0","B996FFC736CB4AA59BF5245C9E3DA56B","20d652ff-ceea-4749-a1a9-60d519627286","23db58b9-63b0-4bce-8714-07ce439e665e","[{""page_index"":0,""viewing_time"":3233}]","3233","","",""
