"success","timeout","failed_images","failed_audio","failed_video","trial_type","trial_index","time_elapsed","internal_node_id","subject_id","study_id","session_id","view_history","rt","stimulus","response","choice","question_order"
"true","false","[]","[]","[]","preload","0","642","0.0-0.0","C79E8002797D479487A51EDC4B03077C","0199d465-135b-7057-9b1f-a4e8b69a59bc","0199d451-ca34-77f1-938e-4880a3ab641f","","","","","",""
"","","","","","instructions","1","4709","0.0-1.0","C79E8002797D479487A51EDC4B03077C","0199d465-135b-7057-9b1f-a4e8b69a59bc","0199d451-ca34-77f1-938e-4880a3ab641f","[{""page_index"":0,""viewing_time"":4066}]","4066","","","",""
"","","","","","instructions","2","10869","0.0-2.0","C79E8002797D479487A51EDC4B03077C","0199d465-135b-7057-9b1f-a4e8b69a59bc","0199d451-ca34-77f1-938e-4880a3ab641f","[{""page_index"":0,""viewing_time"":6159}]","6159","","","",""
"true","","","","","fullscreen","3","14784","0.0-3.0","C79E8002797D479487A51EDC4B03077C","0199d465-135b-7057-9b1f-a4e8b69a59bc","0199d451-ca34-77f1-938e-4880a3ab641f","","2912","","","",""
"","","","","","instructions","4","27707","0.0-4.0","C79E8002797D479487A51EDC4B03077C","0199d465-135b-7057-9b1f-a4e8b69a59bc","0199d451-ca34-77f1-938e-4880a3ab641f","[{""page_index"":0,""viewing_time"":12920}]","12921","","","",""
"","","","","","html-keyboard-response","5","34712","0.0-5.0","C79E8002797D479487A51EDC4B03077C","0199d465-135b-7057-9b1f-a4e8b69a59bc","0199d451-ca34-77f1-938e-4880a3ab641f","","null","<div style=""display: flex; justify-content: center; align-items: center;"">
                     <img src=""images/causal/causal_series_9/causal_series_9_a.png"" style=""width: 300px; height: 300px;"" />
                   </div>","null","",""
"","","","","","html-keyboard-response","6","41714","0.0-6.0","C79E8002797D479487A51EDC4B03077C","0199d465-135b-7057-9b1f-a4e8b69a59bc","0199d451-ca34-77f1-938e-4880a3ab641f","","null","<div style=""display: flex; justify-content: center; align-items: center;"">
                     <img src=""images/causal/causal_series_9/causal_series_9_b.png"" style=""width: 300px; height: 300px;"" />
                   </div>","null","",""
"","","","","","html-keyboard-response","7","48717","0.0-7.0","C79E8002797D479487A51EDC4B03077C","0199d465-135b-7057-9b1f-a4e8b69a59bc","0199d451-ca34-77f1-938e-4880a3ab641f","","null","<div style=""display: flex; justify-content: center; align-items: center;"">
                     <img src=""images/causal/causal_series_9/causal_series_9_c.png"" style=""width: 300px; height: 300px;"" />
                   </div>","null","",""
"","","","","","html-button-response","8","52903","0.0-8.0","C79E8002797D479487A51EDC4B03077C","0199d465-135b-7057-9b1f-a4e8b69a59bc","0199d451-ca34-77f1-938e-4880a3ab641f","","4183","
        <div style=""display: flex; justify-content: center; align-items: center;"">
          <img src=""images/red_deck_2.png"" style=""width: 300px; height: 300px; margin-right: 10px;"" />
          <img src=""images/blue_deck_1.png"" style=""width: 300px; height: 300px;"" />
        </div>","0","0",""
"","","","","","html-keyboard-response","9","59905","0.0-9.0-0.0-0.0","C79E8002797D479487A51EDC4B03077C","0199d465-135b-7057-9b1f-a4e8b69a59bc","0199d451-ca34-77f1-938e-4880a3ab641f","","null","<div style=""display: flex; justify-content: center; align-items: center;"">
                     <img src=""images/causal/causal_series_9/causal_series_9_d.png"" style=""width: 300px; height: 300px;"" />
                   </div>","null","",""
"","","","","","survey-likert","10","65628","0.0-10.0","C79E8002797D479487A51EDC4B03077C","0199d465-135b-7057-9b1f-a4e8b69a59bc","0199d451-ca34-77f1-938e-4880a3ab641f","","5718","","{""Q0"":3}","","[0]"
"","","","","","survey-likert","11","78081","0.0-11.0","C79E8002797D479487A51EDC4B03077C","0199d465-135b-7057-9b1f-a4e8b69a59bc","0199d451-ca34-77f1-938e-4880a3ab641f","","12451","","{""Q0"":2}","","[0]"
"","","","","","html-keyboard-response","12","85085","0.0-12.0","C79E8002797D479487A51EDC4B03077C","0199d465-135b-7057-9b1f-a4e8b69a59bc","0199d451-ca34-77f1-938e-4880a3ab641f","","null","<div style=""display: flex; justify-content: center; align-items: center;"">
                     <img src=""images/other/blank.png"" style=""width: 300px; height: 300px;"" />
                   </div>","null","",""
"","","","","","html-keyboard-response","13","92087","0.0-13.0","C79E8002797D479487A51EDC4B03077C","0199d465-135b-7057-9b1f-a4e8b69a59bc","0199d451-ca34-77f1-938e-4880a3ab641f","","null","<div style=""display: flex; justify-content: center; align-items: center;"">
                     <img src=""images/causal/causal_series_10/causal_series_10_a.png"" style=""width: 300px; height: 300px;"" />
                   </div>","null","",""
"","","","","","html-keyboard-response","14","99089","0.0-14.0","C79E8002797D479487A51EDC4B03077C","0199d465-135b-7057-9b1f-a4e8b69a59bc","0199d451-ca34-77f1-938e-4880a3ab641f","","null","<div style=""display: flex; justify-content: center; align-items: center;"">
                     <img src=""images/causal/causal_series_10/causal_series_10_b.png"" style=""width: 300px; height: 300px;"" />
                   </div>","null","",""
"","","","","","html-keyboard-response","15","106091","0.0-15.0","C79E8002797D479487A51EDC4B03077C","0199d465-135b-7057-9b1f-a4e8b69a59bc","0199d451-ca34-77f1-938e-4880a3ab641f","","null","<div style=""display: flex; justify-content: center; align-items: center;"">
                     <img src=""images/causal/causal_series_10/causal_series_10_c.png"" style=""width: 300px; height: 300px;"" />
                   </div>","null","",""
"","","","","","html-button-response","16","109901","0.0-16.0","C79E8002797D479487A51EDC4B03077C","0199d465-135b-7057-9b1f-a4e8b69a59bc","0199d451-ca34-77f1-938e-4880a3ab641f","","3806","
        <div style=""display: flex; justify-content: center; align-items: center;"">
          <img src=""images/red_deck_2.png"" style=""width: 300px; height: 300px; margin-right: 10px;"" />
          <img src=""images/blue_deck_1.png"" style=""width: 300px; height: 300px;"" />
        </div>","1","1",""
"","","","","","html-keyboard-response","17","116904","0.0-17.0-1.0-0.0","C79E8002797D479487A51EDC4B03077C","0199d465-135b-7057-9b1f-a4e8b69a59bc","0199d451-ca34-77f1-938e-4880a3ab641f","","null","<div style=""display: flex; justify-content: center; align-items: center;"">
                     <img src=""images/semantic/semantic_series_10/semantic_series_10_d.png"" style=""width: 300px; height: 300px;"" />
                   </div>","null","",""
"","","","","","survey-likert","18","123440","0.0-18.0","C79E8002797D479487A51EDC4B03077C","0199d465-135b-7057-9b1f-a4e8b69a59bc","0199d451-ca34-77f1-938e-4880a3ab641f","","6534","","{""Q0"":4}","","[0]"
"","","","","","survey-likert","19","126866","0.0-19.0","C79E8002797D479487A51EDC4B03077C","0199d465-135b-7057-9b1f-a4e8b69a59bc","0199d451-ca34-77f1-938e-4880a3ab641f","","3423","","{""Q0"":1}","","[0]"
"","","","","","html-keyboard-response","20","133870","0.0-20.0","C79E8002797D479487A51EDC4B03077C","0199d465-135b-7057-9b1f-a4e8b69a59bc","0199d451-ca34-77f1-938e-4880a3ab641f","","null","<div style=""display: flex; justify-content: center; align-items: center;"">
                     <img src=""images/other/blank.png"" style=""width: 300px; height: 300px;"" />
                   </div>","null","",""
"","","","","","html-keyboard-response","21","140872","0.0-21.0","C79E8002797D479487A51EDC4B03077C","0199d465-135b-7057-9b1f-a4e8b69a59bc","0199d451-ca34-77f1-938e-4880a3ab641f","","null","<div style=""display: flex; justify-content: center; align-items: center;"">
                     <img src=""images/causal/causal_series_3/causal_series_3_a.png"" style=""width: 300px; height: 300px;"" />
                   </div>","null","",""
"","","","","","html-keyboard-response","22","147874","0.0-22.0","C79E8002797D479487A51EDC4B03077C","0199d465-135b-7057-9b1f-a4e8b69a59bc","0199d451-ca34-77f1-938e-4880a3ab641f","","null","<div style=""display: flex; justify-content: center; align-items: center;"">
                     <img src=""images/causal/causal_series_3/causal_series_3_b.png"" style=""width: 300px; height: 300px;"" />
                   </div>","null","",""
"","","","","","html-keyboard-response","23","154877","0.0-23.0","C79E8002797D479487A51EDC4B03077C","0199d465-135b-7057-9b1f-a4e8b69a59bc","0199d451-ca34-77f1-938e-4880a3ab641f","","null","<div style=""display: flex; justify-content: center; align-items: center;"">
                     <img src=""images/causal/causal_series_3/causal_series_3_c.png"" style=""width: 300px; height: 300px;"" />
                   </div>","null","",""
"","","","","","html-button-response","24","159030","0.0-24.0","C79E8002797D479487A51EDC4B03077C","0199d465-135b-7057-9b1f-a4e8b69a59bc","0199d451-ca34-77f1-938e-4880a3ab641f","","4151","
        <div style=""display: flex; justify-content: center; align-items: center;"">
          <img src=""images/red_deck_2.png"" style=""width: 300px; height: 300px; margin-right: 10px;"" />
          <img src=""images/blue_deck_1.png"" style=""width: 300px; height: 300px;"" />
        </div>","0","0",""
"","","","","","html-keyboard-response","25","166032","0.0-25.0-0.0-0.0","C79E8002797D479487A51EDC4B03077C","0199d465-135b-7057-9b1f-a4e8b69a59bc","0199d451-ca34-77f1-938e-4880a3ab641f","","null","<div style=""display: flex; justify-content: center; align-items: center;"">
                     <img src=""images/causal/causal_series_3/causal_series_3_d.png"" style=""width: 300px; height: 300px;"" />
                   </div>","null","",""
"","","","","","survey-likert","26","171392","0.0-26.0","C79E8002797D479487A51EDC4B03077C","0199d465-135b-7057-9b1f-a4e8b69a59bc","0199d451-ca34-77f1-938e-4880a3ab641f","","5358","","{""Q0"":4}","","[0]"
"","","","","","survey-likert","27","173534","0.0-27.0","C79E8002797D479487A51EDC4B03077C","0199d465-135b-7057-9b1f-a4e8b69a59bc","0199d451-ca34-77f1-938e-4880a3ab641f","","2140","","{""Q0"":3}","","[0]"
"","","","","","html-keyboard-response","28","180536","0.0-28.0","C79E8002797D479487A51EDC4B03077C","0199d465-135b-7057-9b1f-a4e8b69a59bc","0199d451-ca34-77f1-938e-4880a3ab641f","","null","<div style=""display: flex; justify-content: center; align-items: center;"">
                     <img src=""images/other/blank.png"" style=""width: 300px; height: 300px;"" />
                   </div>","null","",""
"","","","","","html-keyboard-response","29","187538","0.0-29.0","C79E8002797D479487A51EDC4B03077C","0199d465-135b-7057-9b1f-a4e8b69a59bc","0199d451-ca34-77f1-938e-4880a3ab641f","","null","<div style=""display: flex; justify-content: center; align-items: center;"">
                     <img src=""images/causal/causal_series_5/causal_series_5_a.png"" style=""width: 300px; height: 300px;"" />
                   </div>","null","",""
"","","","","","html-keyboard-response","30","194540","0.0-30.0","C79E8002797D479487A51EDC4B03077C","0199d465-135b-7057-9b1f-a4e8b69a59bc","0199d451-ca34-77f1-938e-4880a3ab641f","","null","<div style=""display: flex; justify-content: center; align-items: center;"">
                     <img src=""images/causal/causal_series_5/causal_series_5_b.png"" style=""width: 300px; height: 300px;"" />
                   </div>","null","",""
"","","","","","html-keyboard-response","31","201542","0.0-31.0","C79E8002797D479487A51EDC4B03077C","0199d465-135b-7057-9b1f-a4e8b69a59bc","0199d451-ca34-77f1-938e-4880a3ab641f","","null","<div style=""display: flex; justify-content: center; align-items: center;"">
                     <img src=""images/causal/causal_series_5/causal_series_5_c.png"" style=""width: 300px; height: 300px;"" />
                   </div>","null","",""
"","","","","","html-button-response","32","204540","0.0-32.0","C79E8002797D479487A51EDC4B03077C","0199d465-135b-7057-9b1f-a4e8b69a59bc","0199d451-ca34-77f1-938e-4880a3ab641f","","2996","
        <div style=""display: flex; justify-content: center; align-items: center;"">
          <img src=""images/red_deck_2.png"" style=""width: 300px; height: 300px; margin-right: 10px;"" />
          <img src=""images/blue_deck_1.png"" style=""width: 300px; height: 300px;"" />
        </div>","1","1",""
"","","","","","html-keyboard-response","33","211542","0.0-33.0-1.0-0.0","C79E8002797D479487A51EDC4B03077C","0199d465-135b-7057-9b1f-a4e8b69a59bc","0199d451-ca34-77f1-938e-4880a3ab641f","","null","<div style=""display: flex; justify-content: center; align-items: center;"">
                     <img src=""images/semantic/semantic_series_5/semantic_series_5_d.png"" style=""width: 300px; height: 300px;"" />
                   </div>","null","",""
"","","","","","survey-likert","34","215696","0.0-34.0","C79E8002797D479487A51EDC4B03077C","0199d465-135b-7057-9b1f-a4e8b69a59bc","0199d451-ca34-77f1-938e-4880a3ab641f","","4152","","{""Q0"":3}","","[0]"
"","","","","","survey-likert","35","218828","0.0-35.0","C79E8002797D479487A51EDC4B03077C","0199d465-135b-7057-9b1f-a4e8b69a59bc","0199d451-ca34-77f1-938e-4880a3ab641f","","3130","","{""Q0"":2}","","[0]"
"","","","","","html-keyboard-response","36","225831","0.0-36.0","C79E8002797D479487A51EDC4B03077C","0199d465-135b-7057-9b1f-a4e8b69a59bc","0199d451-ca34-77f1-938e-4880a3ab641f","","null","<div style=""display: flex; justify-content: center; align-items: center;"">
                     <img src=""images/other/blank.png"" style=""width: 300px; height: 300px;"" />
                   </div>","null","",""
"","","","","","html-keyboard-response","37","232833","0.0-37.0","C79E8002797D479487A51EDC4B03077C","0199d465-135b-7057-9b1f-a4e8b69a59bc","0199d451-ca34-77f1-938e-4880a3ab641f","","null","<div style=""display: flex; justify-content: center; align-items: center;"">
                     <img src=""images/causal/causal_series_6/causal_series_6_a.png"" style=""width: 300px; height: 300px;"" />
                   </div>","null","",""
"","","","","","html-keyboard-response","38","239835","0.0-38.0","C79E8002797D479487A51EDC4B03077C","0199d465-135b-7057-9b1f-a4e8b69a59bc","0199d451-ca34-77f1-938e-4880a3ab641f","","null","<div style=""display: flex; justify-content: center; align-items: center;"">
                     <img src=""images/causal/causal_series_6/causal_series_6_b.png"" style=""width: 300px; height: 300px;"" />
                   </div>","null","",""
"","","","","","html-keyboard-response","39","246837","0.0-39.0","C79E8002797D479487A51EDC4B03077C","0199d465-135b-7057-9b1f-a4e8b69a59bc","0199d451-ca34-77f1-938e-4880a3ab641f","","null","<div style=""display: flex; justify-content: center; align-items: center;"">
                     <img src=""images/causal/causal_series_6/causal_series_6_c.png"" style=""width: 300px; height: 300px;"" />
                   </div>","null","",""
"","","","","","html-button-response","40","249350","0.0-40.0","C79E8002797D479487A51EDC4B03077C","0199d465-135b-7057-9b1f-a4e8b69a59bc","0199d451-ca34-77f1-938e-4880a3ab641f","","2510","
        <div style=""display: flex; justify-content: center; align-items: center;"">
          <img src=""images/red_deck_2.png"" style=""width: 300px; height: 300px; margin-right: 10px;"" />
          <img src=""images/blue_deck_1.png"" style=""width: 300px; height: 300px;"" />
        </div>","0","0",""
"","","","","","html-keyboard-response","41","256352","0.0-41.0-0.0-0.0","C79E8002797D479487A51EDC4B03077C","0199d465-135b-7057-9b1f-a4e8b69a59bc","0199d451-ca34-77f1-938e-4880a3ab641f","","null","<div style=""display: flex; justify-content: center; align-items: center;"">
                     <img src=""images/causal/causal_series_6/causal_series_6_d.png"" style=""width: 300px; height: 300px;"" />
                   </div>","null","",""
"","","","","","survey-likert","42","259798","0.0-42.0","C79E8002797D479487A51EDC4B03077C","0199d465-135b-7057-9b1f-a4e8b69a59bc","0199d451-ca34-77f1-938e-4880a3ab641f","","3443","","{""Q0"":4}","","[0]"
"","","","","","survey-likert","43","263031","0.0-43.0","C79E8002797D479487A51EDC4B03077C","0199d465-135b-7057-9b1f-a4e8b69a59bc","0199d451-ca34-77f1-938e-4880a3ab641f","","3229","","{""Q0"":2}","","[0]"
"","","","","","html-keyboard-response","44","270033","0.0-44.0","C79E8002797D479487A51EDC4B03077C","0199d465-135b-7057-9b1f-a4e8b69a59bc","0199d451-ca34-77f1-938e-4880a3ab641f","","null","<div style=""display: flex; justify-content: center; align-items: center;"">
                     <img src=""images/other/blank.png"" style=""width: 300px; height: 300px;"" />
                   </div>","null","",""
"","","","","","html-keyboard-response","45","277034","0.0-45.0","C79E8002797D479487A51EDC4B03077C","0199d465-135b-7057-9b1f-a4e8b69a59bc","0199d451-ca34-77f1-938e-4880a3ab641f","","null","<div style=""display: flex; justify-content: center; align-items: center;"">
                     <img src=""images/causal/causal_series_4/causal_series_4_a.png"" style=""width: 300px; height: 300px;"" />
                   </div>","null","",""
"","","","","","html-keyboard-response","46","284036","0.0-46.0","C79E8002797D479487A51EDC4B03077C","0199d465-135b-7057-9b1f-a4e8b69a59bc","0199d451-ca34-77f1-938e-4880a3ab641f","","null","<div style=""display: flex; justify-content: center; align-items: center;"">
                     <img src=""images/causal/causal_series_4/causal_series_4_b.png"" style=""width: 300px; height: 300px;"" />
                   </div>","null","",""
"","","","","","html-keyboard-response","47","291038","0.0-47.0","C79E8002797D479487A51EDC4B03077C","0199d465-135b-7057-9b1f-a4e8b69a59bc","0199d451-ca34-77f1-938e-4880a3ab641f","","null","<div style=""display: flex; justify-content: center; align-items: center;"">
                     <img src=""images/causal/causal_series_4/causal_series_4_c.png"" style=""width: 300px; height: 300px;"" />
                   </div>","null","",""
"","","","","","html-button-response","48","300269","0.0-48.0","C79E8002797D479487A51EDC4B03077C","0199d465-135b-7057-9b1f-a4e8b69a59bc","0199d451-ca34-77f1-938e-4880a3ab641f","","9228","
        <div style=""display: flex; justify-content: center; align-items: center;"">
          <img src=""images/red_deck_2.png"" style=""width: 300px; height: 300px; margin-right: 10px;"" />
          <img src=""images/blue_deck_1.png"" style=""width: 300px; height: 300px;"" />
        </div>","0","0",""
"","","","","","html-keyboard-response","49","307272","0.0-49.0-0.0-0.0","C79E8002797D479487A51EDC4B03077C","0199d465-135b-7057-9b1f-a4e8b69a59bc","0199d451-ca34-77f1-938e-4880a3ab641f","","null","<div style=""display: flex; justify-content: center; align-items: center;"">
                     <img src=""images/causal/causal_series_4/causal_series_4_d.png"" style=""width: 300px; height: 300px;"" />
                   </div>","null","",""
"","","","","","survey-likert","50","311334","0.0-50.0","C79E8002797D479487A51EDC4B03077C","0199d465-135b-7057-9b1f-a4e8b69a59bc","0199d451-ca34-77f1-938e-4880a3ab641f","","4059","","{""Q0"":3}","","[0]"
"","","","","","survey-likert","51","313804","0.0-51.0","C79E8002797D479487A51EDC4B03077C","0199d465-135b-7057-9b1f-a4e8b69a59bc","0199d451-ca34-77f1-938e-4880a3ab641f","","2466","","{""Q0"":3}","","[0]"
"","","","","","html-keyboard-response","52","320808","0.0-52.0","C79E8002797D479487A51EDC4B03077C","0199d465-135b-7057-9b1f-a4e8b69a59bc","0199d451-ca34-77f1-938e-4880a3ab641f","","null","<div style=""display: flex; justify-content: center; align-items: center;"">
                     <img src=""images/other/blank.png"" style=""width: 300px; height: 300px;"" />
                   </div>","null","",""
"","","","","","html-keyboard-response","53","327810","0.0-53.0","C79E8002797D479487A51EDC4B03077C","0199d465-135b-7057-9b1f-a4e8b69a59bc","0199d451-ca34-77f1-938e-4880a3ab641f","","null","<div style=""display: flex; justify-content: center; align-items: center;"">
                     <img src=""images/causal/causal_series_8/causal_series_8_a.png"" style=""width: 300px; height: 300px;"" />
                   </div>","null","",""
"","","","","","html-keyboard-response","54","334812","0.0-54.0","C79E8002797D479487A51EDC4B03077C","0199d465-135b-7057-9b1f-a4e8b69a59bc","0199d451-ca34-77f1-938e-4880a3ab641f","","null","<div style=""display: flex; justify-content: center; align-items: center;"">
                     <img src=""images/causal/causal_series_8/causal_series_8_b.png"" style=""width: 300px; height: 300px;"" />
                   </div>","null","",""
"","","","","","html-keyboard-response","55","341814","0.0-55.0","C79E8002797D479487A51EDC4B03077C","0199d465-135b-7057-9b1f-a4e8b69a59bc","0199d451-ca34-77f1-938e-4880a3ab641f","","null","<div style=""display: flex; justify-content: center; align-items: center;"">
                     <img src=""images/causal/causal_series_8/causal_series_8_c.png"" style=""width: 300px; height: 300px;"" />
                   </div>","null","",""
"","","","","","html-button-response","56","345204","0.0-56.0","C79E8002797D479487A51EDC4B03077C","0199d465-135b-7057-9b1f-a4e8b69a59bc","0199d451-ca34-77f1-938e-4880a3ab641f","","3387","
        <div style=""display: flex; justify-content: center; align-items: center;"">
          <img src=""images/red_deck_2.png"" style=""width: 300px; height: 300px; margin-right: 10px;"" />
          <img src=""images/blue_deck_1.png"" style=""width: 300px; height: 300px;"" />
        </div>","1","1",""
"","","","","","html-keyboard-response","57","352206","0.0-57.0-1.0-0.0","C79E8002797D479487A51EDC4B03077C","0199d465-135b-7057-9b1f-a4e8b69a59bc","0199d451-ca34-77f1-938e-4880a3ab641f","","null","<div style=""display: flex; justify-content: center; align-items: center;"">
                     <img src=""images/semantic/semantic_series_8/semantic_series_8_d.png"" style=""width: 300px; height: 300px;"" />
                   </div>","null","",""
"","","","","","survey-likert","58","355027","0.0-58.0","C79E8002797D479487A51EDC4B03077C","0199d465-135b-7057-9b1f-a4e8b69a59bc","0199d451-ca34-77f1-938e-4880a3ab641f","","2819","","{""Q0"":2}","","[0]"
"","","","","","survey-likert","59","358165","0.0-59.0","C79E8002797D479487A51EDC4B03077C","0199d465-135b-7057-9b1f-a4e8b69a59bc","0199d451-ca34-77f1-938e-4880a3ab641f","","3134","","{""Q0"":2}","","[0]"
"","","","","","html-keyboard-response","60","365168","0.0-60.0","C79E8002797D479487A51EDC4B03077C","0199d465-135b-7057-9b1f-a4e8b69a59bc","0199d451-ca34-77f1-938e-4880a3ab641f","","null","<div style=""display: flex; justify-content: center; align-items: center;"">
                     <img src=""images/other/blank.png"" style=""width: 300px; height: 300px;"" />
                   </div>","null","",""
"","","","","","html-keyboard-response","61","372170","0.0-61.0","C79E8002797D479487A51EDC4B03077C","0199d465-135b-7057-9b1f-a4e8b69a59bc","0199d451-ca34-77f1-938e-4880a3ab641f","","null","<div style=""display: flex; justify-content: center; align-items: center;"">
                     <img src=""images/causal/causal_series_7/causal_series_7_a.png"" style=""width: 300px; height: 300px;"" />
                   </div>","null","",""
"","","","","","html-keyboard-response","62","379172","0.0-62.0","C79E8002797D479487A51EDC4B03077C","0199d465-135b-7057-9b1f-a4e8b69a59bc","0199d451-ca34-77f1-938e-4880a3ab641f","","null","<div style=""display: flex; justify-content: center; align-items: center;"">
                     <img src=""images/causal/causal_series_7/causal_series_7_b.png"" style=""width: 300px; height: 300px;"" />
                   </div>","null","",""
"","","","","","html-keyboard-response","63","386174","0.0-63.0","C79E8002797D479487A51EDC4B03077C","0199d465-135b-7057-9b1f-a4e8b69a59bc","0199d451-ca34-77f1-938e-4880a3ab641f","","null","<div style=""display: flex; justify-content: center; align-items: center;"">
                     <img src=""images/causal/causal_series_7/causal_series_7_c.png"" style=""width: 300px; height: 300px;"" />
                   </div>","null","",""
"","","","","","html-button-response","64","394372","0.0-64.0","C79E8002797D479487A51EDC4B03077C","0199d465-135b-7057-9b1f-a4e8b69a59bc","0199d451-ca34-77f1-938e-4880a3ab641f","","8196","
        <div style=""display: flex; justify-content: center; align-items: center;"">
          <img src=""images/red_deck_2.png"" style=""width: 300px; height: 300px; margin-right: 10px;"" />
          <img src=""images/blue_deck_1.png"" style=""width: 300px; height: 300px;"" />
        </div>","1","1",""
"","","","","","html-keyboard-response","65","401374","0.0-65.0-1.0-0.0","C79E8002797D479487A51EDC4B03077C","0199d465-135b-7057-9b1f-a4e8b69a59bc","0199d451-ca34-77f1-938e-4880a3ab641f","","null","<div style=""display: flex; justify-content: center; align-items: center;"">
                     <img src=""images/semantic/semantic_series_7/semantic_series_7_d.png"" style=""width: 300px; height: 300px;"" />
                   </div>","null","",""
"","","","","","survey-likert","66","406261","0.0-66.0","C79E8002797D479487A51EDC4B03077C","0199d465-135b-7057-9b1f-a4e8b69a59bc","0199d451-ca34-77f1-938e-4880a3ab641f","","4884","","{""Q0"":1}","","[0]"
"","","","","","survey-likert","67","411825","0.0-67.0","C79E8002797D479487A51EDC4B03077C","0199d465-135b-7057-9b1f-a4e8b69a59bc","0199d451-ca34-77f1-938e-4880a3ab641f","","5561","","{""Q0"":1}","","[0]"
"","","","","","html-keyboard-response","68","418828","0.0-68.0","C79E8002797D479487A51EDC4B03077C","0199d465-135b-7057-9b1f-a4e8b69a59bc","0199d451-ca34-77f1-938e-4880a3ab641f","","null","<div style=""display: flex; justify-content: center; align-items: center;"">
                     <img src=""images/other/blank.png"" style=""width: 300px; height: 300px;"" />
                   </div>","null","",""
"","","","","","html-keyboard-response","69","425830","0.0-69.0","C79E8002797D479487A51EDC4B03077C","0199d465-135b-7057-9b1f-a4e8b69a59bc","0199d451-ca34-77f1-938e-4880a3ab641f","","null","<div style=""display: flex; justify-content: center; align-items: center;"">
                     <img src=""images/causal/causal_series_1/causal_series_1_a.png"" style=""width: 300px; height: 300px;"" />
                   </div>","null","",""
"","","","","","html-keyboard-response","70","432832","0.0-70.0","C79E8002797D479487A51EDC4B03077C","0199d465-135b-7057-9b1f-a4e8b69a59bc","0199d451-ca34-77f1-938e-4880a3ab641f","","null","<div style=""display: flex; justify-content: center; align-items: center;"">
                     <img src=""images/causal/causal_series_1/causal_series_1_b.png"" style=""width: 300px; height: 300px;"" />
                   </div>","null","",""
"","","","","","html-keyboard-response","71","439834","0.0-71.0","C79E8002797D479487A51EDC4B03077C","0199d465-135b-7057-9b1f-a4e8b69a59bc","0199d451-ca34-77f1-938e-4880a3ab641f","","null","<div style=""display: flex; justify-content: center; align-items: center;"">
                     <img src=""images/causal/causal_series_1/causal_series_1_c.png"" style=""width: 300px; height: 300px;"" />
                   </div>","null","",""
"","","","","","html-button-response","72","445619","0.0-72.0","C79E8002797D479487A51EDC4B03077C","0199d465-135b-7057-9b1f-a4e8b69a59bc","0199d451-ca34-77f1-938e-4880a3ab641f","","5782","
        <div style=""display: flex; justify-content: center; align-items: center;"">
          <img src=""images/red_deck_2.png"" style=""width: 300px; height: 300px; margin-right: 10px;"" />
          <img src=""images/blue_deck_1.png"" style=""width: 300px; height: 300px;"" />
        </div>","0","0",""
"","","","","","html-keyboard-response","73","452622","0.0-73.0-0.0-0.0","C79E8002797D479487A51EDC4B03077C","0199d465-135b-7057-9b1f-a4e8b69a59bc","0199d451-ca34-77f1-938e-4880a3ab641f","","null","<div style=""display: flex; justify-content: center; align-items: center;"">
                     <img src=""images/causal/causal_series_1/causal_series_1_d.png"" style=""width: 300px; height: 300px;"" />
                   </div>","null","",""
"","","","","","survey-likert","74","456868","0.0-74.0","C79E8002797D479487A51EDC4B03077C","0199d465-135b-7057-9b1f-a4e8b69a59bc","0199d451-ca34-77f1-938e-4880a3ab641f","","4244","","{""Q0"":3}","","[0]"
"","","","","","survey-likert","75","460336","0.0-75.0","C79E8002797D479487A51EDC4B03077C","0199d465-135b-7057-9b1f-a4e8b69a59bc","0199d451-ca34-77f1-938e-4880a3ab641f","","3465","","{""Q0"":3}","","[0]"
"","","","","","html-keyboard-response","76","467340","0.0-76.0","C79E8002797D479487A51EDC4B03077C","0199d465-135b-7057-9b1f-a4e8b69a59bc","0199d451-ca34-77f1-938e-4880a3ab641f","","null","<div style=""display: flex; justify-content: center; align-items: center;"">
                     <img src=""images/other/blank.png"" style=""width: 300px; height: 300px;"" />
                   </div>","null","",""
"","","","","","html-keyboard-response","77","474342","0.0-77.0","C79E8002797D479487A51EDC4B03077C","0199d465-135b-7057-9b1f-a4e8b69a59bc","0199d451-ca34-77f1-938e-4880a3ab641f","","null","<div style=""display: flex; justify-content: center; align-items: center;"">
                     <img src=""images/causal/causal_series_2/causal_series_2_a.png"" style=""width: 300px; height: 300px;"" />
                   </div>","null","",""
"","","","","","html-keyboard-response","78","481344","0.0-78.0","C79E8002797D479487A51EDC4B03077C","0199d465-135b-7057-9b1f-a4e8b69a59bc","0199d451-ca34-77f1-938e-4880a3ab641f","","null","<div style=""display: flex; justify-content: center; align-items: center;"">
                     <img src=""images/causal/causal_series_2/causal_series_2_b.png"" style=""width: 300px; height: 300px;"" />
                   </div>","null","",""
"","","","","","html-keyboard-response","79","488346","0.0-79.0","C79E8002797D479487A51EDC4B03077C","0199d465-135b-7057-9b1f-a4e8b69a59bc","0199d451-ca34-77f1-938e-4880a3ab641f","","null","<div style=""display: flex; justify-content: center; align-items: center;"">
                     <img src=""images/causal/causal_series_2/causal_series_2_c.png"" style=""width: 300px; height: 300px;"" />
                   </div>","null","",""
"","","","","","html-button-response","80","491783","0.0-80.0","C79E8002797D479487A51EDC4B03077C","0199d465-135b-7057-9b1f-a4e8b69a59bc","0199d451-ca34-77f1-938e-4880a3ab641f","","3435","
        <div style=""display: flex; justify-content: center; align-items: center;"">
          <img src=""images/red_deck_2.png"" style=""width: 300px; height: 300px; margin-right: 10px;"" />
          <img src=""images/blue_deck_1.png"" style=""width: 300px; height: 300px;"" />
        </div>","1","1",""
"","","","","","html-keyboard-response","81","498785","0.0-81.0-1.0-0.0","C79E8002797D479487A51EDC4B03077C","0199d465-135b-7057-9b1f-a4e8b69a59bc","0199d451-ca34-77f1-938e-4880a3ab641f","","null","<div style=""display: flex; justify-content: center; align-items: center;"">
                     <img src=""images/semantic/semantic_series_2/semantic_series_2_d.png"" style=""width: 300px; height: 300px;"" />
                   </div>","null","",""
"","","","","","survey-likert","82","509640","0.0-82.0","C79E8002797D479487A51EDC4B03077C","0199d465-135b-7057-9b1f-a4e8b69a59bc","0199d451-ca34-77f1-938e-4880a3ab641f","","10854","","{""Q0"":3}","","[0]"
"","","","","","survey-likert","83","512346","0.0-83.0","C79E8002797D479487A51EDC4B03077C","0199d465-135b-7057-9b1f-a4e8b69a59bc","0199d451-ca34-77f1-938e-4880a3ab641f","","2703","","{""Q0"":3}","","[0]"
"","","","","","html-keyboard-response","84","519350","0.0-84.0","C79E8002797D479487A51EDC4B03077C","0199d465-135b-7057-9b1f-a4e8b69a59bc","0199d451-ca34-77f1-938e-4880a3ab641f","","null","<div style=""display: flex; justify-content: center; align-items: center;"">
                     <img src=""images/other/blank.png"" style=""width: 300px; height: 300px;"" />
                   </div>","null","",""
"","","","","","survey-text","85","551981","0.0-85.0","C79E8002797D479487A51EDC4B03077C","0199d465-135b-7057-9b1f-a4e8b69a59bc","0199d451-ca34-77f1-938e-4880a3ab641f","","32621","","{""Q0"":""one was red one was blue ""}","",""
"","","","","","html-button-response","86","557179","0.0-86.0","C79E8002797D479487A51EDC4B03077C","0199d465-135b-7057-9b1f-a4e8b69a59bc","0199d451-ca34-77f1-938e-4880a3ab641f","","5195","Which color deck do the following images continue the story from?","0","",""
"","","","","","html-button-response","87","558579","0.0-87.0","C79E8002797D479487A51EDC4B03077C","0199d465-135b-7057-9b1f-a4e8b69a59bc","0199d451-ca34-77f1-938e-4880a3ab641f","","1398","Which color deck do the following images NOT follow the story from?","1","",""
"","","","","","html-button-response","88","561058","0.0-88.0","C79E8002797D479487A51EDC4B03077C","0199d465-135b-7057-9b1f-a4e8b69a59bc","0199d451-ca34-77f1-938e-4880a3ab641f","","2477","Which type of deck did you prefer overall?","1","",""
"","","","","","survey-text","89","570057","0.0-89.0","C79E8002797D479487A51EDC4B03077C","0199d465-135b-7057-9b1f-a4e8b69a59bc","0199d451-ca34-77f1-938e-4880a3ab641f","","8996","","{""Q0"":""female"",""Q1"":""28""}","",""
"","","","","","instructions","90","576422","0.0-90.0","C79E8002797D479487A51EDC4B03077C","0199d465-135b-7057-9b1f-a4e8b69a59bc","0199d451-ca34-77f1-938e-4880a3ab641f","[{""page_index"":0,""viewing_time"":6364}]","6364","","","",""
