"success","timeout","failed_images","failed_audio","failed_video","trial_type","trial_index","time_elapsed","internal_node_id","subject_id","study_id","session_id","view_history","rt","stimulus","response","series","repetition","phase","choice","question_order"
"true","false","[]","[]","[]","preload","0","1259","0.0-0.0","A4E885E312A8418AB78D58FE669F0ACC","0199dba9-537b-715b-9268-217bfc1435d9","0199dba2-79c8-7e9d-9c1e-4c8d6614b755","","","","","","","","",""
"","","","","","instructions","1","5595","0.0-1.0","A4E885E312A8418AB78D58FE669F0ACC","0199dba9-537b-715b-9268-217bfc1435d9","0199dba2-79c8-7e9d-9c1e-4c8d6614b755","[{""page_index"":0,""viewing_time"":4335}]","4335","","","","","","",""
"","","","","","instructions","2","15307","0.0-2.0","A4E885E312A8418AB78D58FE669F0ACC","0199dba9-537b-715b-9268-217bfc1435d9","0199dba2-79c8-7e9d-9c1e-4c8d6614b755","[{""page_index"":0,""viewing_time"":9711}]","9712","","","","","","",""
"true","","","","","fullscreen","3","18577","0.0-3.0","A4E885E312A8418AB78D58FE669F0ACC","0199dba9-537b-715b-9268-217bfc1435d9","0199dba2-79c8-7e9d-9c1e-4c8d6614b755","","2267","","","","","","",""
"","","","","","instructions","4","40378","0.0-4.0","A4E885E312A8418AB78D58FE669F0ACC","0199dba9-537b-715b-9268-217bfc1435d9","0199dba2-79c8-7e9d-9c1e-4c8d6614b755","[{""page_index"":0,""viewing_time"":21800}]","21801","","","","","","",""
"","","","","","html-keyboard-response","5","46380","0.0-5.0","A4E885E312A8418AB78D58FE669F0ACC","0199dba9-537b-715b-9268-217bfc1435d9","0199dba2-79c8-7e9d-9c1e-4c8d6614b755","","null","<div style=""display: flex; justify-content: center; align-items: center;"">
                     <img src=""images/causal/causal_series_6/causal_series_6_a.png"" style=""width: 300px; height: 300px;"" />
                   </div>","null","6","1","A","",""
"","","","","","html-keyboard-response","6","52382","0.0-6.0","A4E885E312A8418AB78D58FE669F0ACC","0199dba9-537b-715b-9268-217bfc1435d9","0199dba2-79c8-7e9d-9c1e-4c8d6614b755","","null","<div style=""display: flex; justify-content: center; align-items: center;"">
                     <img src=""images/causal/causal_series_6/causal_series_6_b.png"" style=""width: 300px; height: 300px;"" />
                   </div>","null","6","1","B","",""
"","","","","","html-keyboard-response","7","58383","0.0-7.0","A4E885E312A8418AB78D58FE669F0ACC","0199dba9-537b-715b-9268-217bfc1435d9","0199dba2-79c8-7e9d-9c1e-4c8d6614b755","","null","<div style=""display: flex; justify-content: center; align-items: center;"">
                     <img src=""images/causal/causal_series_6/causal_series_6_c.png"" style=""width: 300px; height: 300px;"" />
                   </div>","null","6","1","C","",""
"","","","","","html-button-response","8","61662","0.0-8.0","A4E885E312A8418AB78D58FE669F0ACC","0199dba9-537b-715b-9268-217bfc1435d9","0199dba2-79c8-7e9d-9c1e-4c8d6614b755","","3278","
        <div style=""display: flex; justify-content: center; align-items: center;"">
          <img src=""images/red_deck_2.png"" style=""width: 300px; height: 300px; margin-right: 10px;"" />
          <img src=""images/blue_deck_1.png"" style=""width: 300px; height: 300px;"" />
        </div>","0","6","1","choice","0",""
"","","","","","html-keyboard-response","9","67664","0.0-9.0-0.0-0.0","A4E885E312A8418AB78D58FE669F0ACC","0199dba9-537b-715b-9268-217bfc1435d9","0199dba2-79c8-7e9d-9c1e-4c8d6614b755","","null","<div style=""display: flex; justify-content: center; align-items: center;"">
                     <img src=""images/causal/causal_series_6/causal_series_6_d.png"" style=""width: 300px; height: 300px;"" />
                   </div>","null","6","1","D","",""
"","","","","","survey-likert","10","73536","0.0-10.0","A4E885E312A8418AB78D58FE669F0ACC","0199dba9-537b-715b-9268-217bfc1435d9","0199dba2-79c8-7e9d-9c1e-4c8d6614b755","","5869","","{""Q0"":0}","6","1","surprise_rating","","[0]"
"","","","","","survey-likert","11","77003","0.0-11.0","A4E885E312A8418AB78D58FE669F0ACC","0199dba9-537b-715b-9268-217bfc1435d9","0199dba2-79c8-7e9d-9c1e-4c8d6614b755","","3466","","{""Q0"":2}","6","1","enjoyment_rating","","[0]"
"","","","","","html-keyboard-response","12","83004","0.0-12.0","A4E885E312A8418AB78D58FE669F0ACC","0199dba9-537b-715b-9268-217bfc1435d9","0199dba2-79c8-7e9d-9c1e-4c8d6614b755","","null","<div style=""display: flex; justify-content: center; align-items: center;"">
                     <img src=""images/other/blank.png"" style=""width: 300px; height: 300px;"" />
                   </div>","null","0","0","blank","",""
"","","","","","html-keyboard-response","13","89005","0.0-13.0","A4E885E312A8418AB78D58FE669F0ACC","0199dba9-537b-715b-9268-217bfc1435d9","0199dba2-79c8-7e9d-9c1e-4c8d6614b755","","null","<div style=""display: flex; justify-content: center; align-items: center;"">
                     <img src=""images/causal/causal_series_8/causal_series_8_a.png"" style=""width: 300px; height: 300px;"" />
                   </div>","null","8","1","A","",""
"","","","","","html-keyboard-response","14","95007","0.0-14.0","A4E885E312A8418AB78D58FE669F0ACC","0199dba9-537b-715b-9268-217bfc1435d9","0199dba2-79c8-7e9d-9c1e-4c8d6614b755","","null","<div style=""display: flex; justify-content: center; align-items: center;"">
                     <img src=""images/causal/causal_series_8/causal_series_8_b.png"" style=""width: 300px; height: 300px;"" />
                   </div>","null","8","1","B","",""
"","","","","","html-keyboard-response","15","101010","0.0-15.0","A4E885E312A8418AB78D58FE669F0ACC","0199dba9-537b-715b-9268-217bfc1435d9","0199dba2-79c8-7e9d-9c1e-4c8d6614b755","","null","<div style=""display: flex; justify-content: center; align-items: center;"">
                     <img src=""images/causal/causal_series_8/causal_series_8_c.png"" style=""width: 300px; height: 300px;"" />
                   </div>","null","8","1","C","",""
"","","","","","html-button-response","16","102606","0.0-16.0","A4E885E312A8418AB78D58FE669F0ACC","0199dba9-537b-715b-9268-217bfc1435d9","0199dba2-79c8-7e9d-9c1e-4c8d6614b755","","1595","
        <div style=""display: flex; justify-content: center; align-items: center;"">
          <img src=""images/red_deck_2.png"" style=""width: 300px; height: 300px; margin-right: 10px;"" />
          <img src=""images/blue_deck_1.png"" style=""width: 300px; height: 300px;"" />
        </div>","1","8","1","choice","1",""
"","","","","","html-keyboard-response","17","108608","0.0-17.0-1.0-0.0","A4E885E312A8418AB78D58FE669F0ACC","0199dba9-537b-715b-9268-217bfc1435d9","0199dba2-79c8-7e9d-9c1e-4c8d6614b755","","null","<div style=""display: flex; justify-content: center; align-items: center;"">
                     <img src=""images/semantic/semantic_series_8/semantic_series_8_d.png"" style=""width: 300px; height: 300px;"" />
                   </div>","null","8","1","D","",""
"","","","","","survey-likert","18","111915","0.0-18.0","A4E885E312A8418AB78D58FE669F0ACC","0199dba9-537b-715b-9268-217bfc1435d9","0199dba2-79c8-7e9d-9c1e-4c8d6614b755","","3305","","{""Q0"":4}","8","1","surprise_rating","","[0]"
"","","","","","survey-likert","19","114266","0.0-19.0","A4E885E312A8418AB78D58FE669F0ACC","0199dba9-537b-715b-9268-217bfc1435d9","0199dba2-79c8-7e9d-9c1e-4c8d6614b755","","2351","","{""Q0"":4}","8","1","enjoyment_rating","","[0]"
"","","","","","html-keyboard-response","20","120267","0.0-20.0","A4E885E312A8418AB78D58FE669F0ACC","0199dba9-537b-715b-9268-217bfc1435d9","0199dba2-79c8-7e9d-9c1e-4c8d6614b755","","null","<div style=""display: flex; justify-content: center; align-items: center;"">
                     <img src=""images/other/blank.png"" style=""width: 300px; height: 300px;"" />
                   </div>","null","0","0","blank","",""
"","","","","","html-keyboard-response","21","126269","0.0-21.0","A4E885E312A8418AB78D58FE669F0ACC","0199dba9-537b-715b-9268-217bfc1435d9","0199dba2-79c8-7e9d-9c1e-4c8d6614b755","","null","<div style=""display: flex; justify-content: center; align-items: center;"">
                     <img src=""images/causal/causal_series_7/causal_series_7_a.png"" style=""width: 300px; height: 300px;"" />
                   </div>","null","7","1","A","",""
"","","","","","html-keyboard-response","22","132271","0.0-22.0","A4E885E312A8418AB78D58FE669F0ACC","0199dba9-537b-715b-9268-217bfc1435d9","0199dba2-79c8-7e9d-9c1e-4c8d6614b755","","null","<div style=""display: flex; justify-content: center; align-items: center;"">
                     <img src=""images/causal/causal_series_7/causal_series_7_b.png"" style=""width: 300px; height: 300px;"" />
                   </div>","null","7","1","B","",""
"","","","","","html-keyboard-response","23","138273","0.0-23.0","A4E885E312A8418AB78D58FE669F0ACC","0199dba9-537b-715b-9268-217bfc1435d9","0199dba2-79c8-7e9d-9c1e-4c8d6614b755","","null","<div style=""display: flex; justify-content: center; align-items: center;"">
                     <img src=""images/causal/causal_series_7/causal_series_7_c.png"" style=""width: 300px; height: 300px;"" />
                   </div>","null","7","1","C","",""
"","","","","","html-button-response","24","139601","0.0-24.0","A4E885E312A8418AB78D58FE669F0ACC","0199dba9-537b-715b-9268-217bfc1435d9","0199dba2-79c8-7e9d-9c1e-4c8d6614b755","","1327","
        <div style=""display: flex; justify-content: center; align-items: center;"">
          <img src=""images/red_deck_2.png"" style=""width: 300px; height: 300px; margin-right: 10px;"" />
          <img src=""images/blue_deck_1.png"" style=""width: 300px; height: 300px;"" />
        </div>","1","7","1","choice","1",""
"","","","","","html-keyboard-response","25","145603","0.0-25.0-1.0-0.0","A4E885E312A8418AB78D58FE669F0ACC","0199dba9-537b-715b-9268-217bfc1435d9","0199dba2-79c8-7e9d-9c1e-4c8d6614b755","","null","<div style=""display: flex; justify-content: center; align-items: center;"">
                     <img src=""images/semantic/semantic_series_7/semantic_series_7_d.png"" style=""width: 300px; height: 300px;"" />
                   </div>","null","7","1","D","",""
"","","","","","survey-likert","26","148106","0.0-26.0","A4E885E312A8418AB78D58FE669F0ACC","0199dba9-537b-715b-9268-217bfc1435d9","0199dba2-79c8-7e9d-9c1e-4c8d6614b755","","2502","","{""Q0"":4}","7","1","surprise_rating","","[0]"
"","","","","","survey-likert","27","151429","0.0-27.0","A4E885E312A8418AB78D58FE669F0ACC","0199dba9-537b-715b-9268-217bfc1435d9","0199dba2-79c8-7e9d-9c1e-4c8d6614b755","","3322","","{""Q0"":4}","7","1","enjoyment_rating","","[0]"
"","","","","","html-keyboard-response","28","157430","0.0-28.0","A4E885E312A8418AB78D58FE669F0ACC","0199dba9-537b-715b-9268-217bfc1435d9","0199dba2-79c8-7e9d-9c1e-4c8d6614b755","","null","<div style=""display: flex; justify-content: center; align-items: center;"">
                     <img src=""images/other/blank.png"" style=""width: 300px; height: 300px;"" />
                   </div>","null","0","0","blank","",""
"","","","","","html-keyboard-response","29","163432","0.0-29.0","A4E885E312A8418AB78D58FE669F0ACC","0199dba9-537b-715b-9268-217bfc1435d9","0199dba2-79c8-7e9d-9c1e-4c8d6614b755","","null","<div style=""display: flex; justify-content: center; align-items: center;"">
                     <img src=""images/causal/causal_series_1/causal_series_1_a.png"" style=""width: 300px; height: 300px;"" />
                   </div>","null","1","1","A","",""
"","","","","","html-keyboard-response","30","169433","0.0-30.0","A4E885E312A8418AB78D58FE669F0ACC","0199dba9-537b-715b-9268-217bfc1435d9","0199dba2-79c8-7e9d-9c1e-4c8d6614b755","","null","<div style=""display: flex; justify-content: center; align-items: center;"">
                     <img src=""images/causal/causal_series_1/causal_series_1_b.png"" style=""width: 300px; height: 300px;"" />
                   </div>","null","1","1","B","",""
"","","","","","html-keyboard-response","31","175434","0.0-31.0","A4E885E312A8418AB78D58FE669F0ACC","0199dba9-537b-715b-9268-217bfc1435d9","0199dba2-79c8-7e9d-9c1e-4c8d6614b755","","null","<div style=""display: flex; justify-content: center; align-items: center;"">
                     <img src=""images/causal/causal_series_1/causal_series_1_c.png"" style=""width: 300px; height: 300px;"" />
                   </div>","null","1","1","C","",""
"","","","","","html-button-response","32","176441","0.0-32.0","A4E885E312A8418AB78D58FE669F0ACC","0199dba9-537b-715b-9268-217bfc1435d9","0199dba2-79c8-7e9d-9c1e-4c8d6614b755","","1006","
        <div style=""display: flex; justify-content: center; align-items: center;"">
          <img src=""images/red_deck_2.png"" style=""width: 300px; height: 300px; margin-right: 10px;"" />
          <img src=""images/blue_deck_1.png"" style=""width: 300px; height: 300px;"" />
        </div>","1","1","1","choice","1",""
"","","","","","html-keyboard-response","33","182442","0.0-33.0-1.0-0.0","A4E885E312A8418AB78D58FE669F0ACC","0199dba9-537b-715b-9268-217bfc1435d9","0199dba2-79c8-7e9d-9c1e-4c8d6614b755","","null","<div style=""display: flex; justify-content: center; align-items: center;"">
                     <img src=""images/semantic/semantic_series_1/semantic_series_1_d.png"" style=""width: 300px; height: 300px;"" />
                   </div>","null","1","1","D","",""
"","","","","","survey-likert","34","186252","0.0-34.0","A4E885E312A8418AB78D58FE669F0ACC","0199dba9-537b-715b-9268-217bfc1435d9","0199dba2-79c8-7e9d-9c1e-4c8d6614b755","","3808","","{""Q0"":3}","1","1","surprise_rating","","[0]"
"","","","","","survey-likert","35","188220","0.0-35.0","A4E885E312A8418AB78D58FE669F0ACC","0199dba9-537b-715b-9268-217bfc1435d9","0199dba2-79c8-7e9d-9c1e-4c8d6614b755","","1967","","{""Q0"":3}","1","1","enjoyment_rating","","[0]"
"","","","","","html-keyboard-response","36","194226","0.0-36.0","A4E885E312A8418AB78D58FE669F0ACC","0199dba9-537b-715b-9268-217bfc1435d9","0199dba2-79c8-7e9d-9c1e-4c8d6614b755","","null","<div style=""display: flex; justify-content: center; align-items: center;"">
                     <img src=""images/other/blank.png"" style=""width: 300px; height: 300px;"" />
                   </div>","null","0","0","blank","",""
"","","","","","html-keyboard-response","37","200227","0.0-37.0","A4E885E312A8418AB78D58FE669F0ACC","0199dba9-537b-715b-9268-217bfc1435d9","0199dba2-79c8-7e9d-9c1e-4c8d6614b755","","null","<div style=""display: flex; justify-content: center; align-items: center;"">
                     <img src=""images/causal/causal_series_5/causal_series_5_a.png"" style=""width: 300px; height: 300px;"" />
                   </div>","null","5","1","A","",""
"","","","","","html-keyboard-response","38","206230","0.0-38.0","A4E885E312A8418AB78D58FE669F0ACC","0199dba9-537b-715b-9268-217bfc1435d9","0199dba2-79c8-7e9d-9c1e-4c8d6614b755","","null","<div style=""display: flex; justify-content: center; align-items: center;"">
                     <img src=""images/causal/causal_series_5/causal_series_5_b.png"" style=""width: 300px; height: 300px;"" />
                   </div>","null","5","1","B","",""
"","","","","","html-keyboard-response","39","212232","0.0-39.0","A4E885E312A8418AB78D58FE669F0ACC","0199dba9-537b-715b-9268-217bfc1435d9","0199dba2-79c8-7e9d-9c1e-4c8d6614b755","","null","<div style=""display: flex; justify-content: center; align-items: center;"">
                     <img src=""images/causal/causal_series_5/causal_series_5_c.png"" style=""width: 300px; height: 300px;"" />
                   </div>","null","5","1","C","",""
"","","","","","html-button-response","40","213144","0.0-40.0","A4E885E312A8418AB78D58FE669F0ACC","0199dba9-537b-715b-9268-217bfc1435d9","0199dba2-79c8-7e9d-9c1e-4c8d6614b755","","911","
        <div style=""display: flex; justify-content: center; align-items: center;"">
          <img src=""images/red_deck_2.png"" style=""width: 300px; height: 300px; margin-right: 10px;"" />
          <img src=""images/blue_deck_1.png"" style=""width: 300px; height: 300px;"" />
        </div>","1","5","1","choice","1",""
"","","","","","html-keyboard-response","41","219145","0.0-41.0-1.0-0.0","A4E885E312A8418AB78D58FE669F0ACC","0199dba9-537b-715b-9268-217bfc1435d9","0199dba2-79c8-7e9d-9c1e-4c8d6614b755","","null","<div style=""display: flex; justify-content: center; align-items: center;"">
                     <img src=""images/semantic/semantic_series_5/semantic_series_5_d.png"" style=""width: 300px; height: 300px;"" />
                   </div>","null","5","1","D","",""
"","","","","","survey-likert","42","222233","0.0-42.0","A4E885E312A8418AB78D58FE669F0ACC","0199dba9-537b-715b-9268-217bfc1435d9","0199dba2-79c8-7e9d-9c1e-4c8d6614b755","","3087","","{""Q0"":2}","5","1","surprise_rating","","[0]"
"","","","","","survey-likert","43","225040","0.0-43.0","A4E885E312A8418AB78D58FE669F0ACC","0199dba9-537b-715b-9268-217bfc1435d9","0199dba2-79c8-7e9d-9c1e-4c8d6614b755","","2807","","{""Q0"":0}","5","1","enjoyment_rating","","[0]"
"","","","","","html-keyboard-response","44","231042","0.0-44.0","A4E885E312A8418AB78D58FE669F0ACC","0199dba9-537b-715b-9268-217bfc1435d9","0199dba2-79c8-7e9d-9c1e-4c8d6614b755","","null","<div style=""display: flex; justify-content: center; align-items: center;"">
                     <img src=""images/other/blank.png"" style=""width: 300px; height: 300px;"" />
                   </div>","null","0","0","blank","",""
"","","","","","html-keyboard-response","45","237044","0.0-45.0","A4E885E312A8418AB78D58FE669F0ACC","0199dba9-537b-715b-9268-217bfc1435d9","0199dba2-79c8-7e9d-9c1e-4c8d6614b755","","null","<div style=""display: flex; justify-content: center; align-items: center;"">
                     <img src=""images/causal/causal_series_9/causal_series_9_a.png"" style=""width: 300px; height: 300px;"" />
                   </div>","null","9","1","A","",""
"","","","","","html-keyboard-response","46","243045","0.0-46.0","A4E885E312A8418AB78D58FE669F0ACC","0199dba9-537b-715b-9268-217bfc1435d9","0199dba2-79c8-7e9d-9c1e-4c8d6614b755","","null","<div style=""display: flex; justify-content: center; align-items: center;"">
                     <img src=""images/causal/causal_series_9/causal_series_9_b.png"" style=""width: 300px; height: 300px;"" />
                   </div>","null","9","1","B","",""
"","","","","","html-keyboard-response","47","249047","0.0-47.0","A4E885E312A8418AB78D58FE669F0ACC","0199dba9-537b-715b-9268-217bfc1435d9","0199dba2-79c8-7e9d-9c1e-4c8d6614b755","","null","<div style=""display: flex; justify-content: center; align-items: center;"">
                     <img src=""images/causal/causal_series_9/causal_series_9_c.png"" style=""width: 300px; height: 300px;"" />
                   </div>","null","9","1","C","",""
"","","","","","html-button-response","48","250331","0.0-48.0","A4E885E312A8418AB78D58FE669F0ACC","0199dba9-537b-715b-9268-217bfc1435d9","0199dba2-79c8-7e9d-9c1e-4c8d6614b755","","1284","
        <div style=""display: flex; justify-content: center; align-items: center;"">
          <img src=""images/red_deck_2.png"" style=""width: 300px; height: 300px; margin-right: 10px;"" />
          <img src=""images/blue_deck_1.png"" style=""width: 300px; height: 300px;"" />
        </div>","1","9","1","choice","1",""
"","","","","","html-keyboard-response","49","256333","0.0-49.0-1.0-0.0","A4E885E312A8418AB78D58FE669F0ACC","0199dba9-537b-715b-9268-217bfc1435d9","0199dba2-79c8-7e9d-9c1e-4c8d6614b755","","null","<div style=""display: flex; justify-content: center; align-items: center;"">
                     <img src=""images/semantic/semantic_series_9/semantic_series_9_d.png"" style=""width: 300px; height: 300px;"" />
                   </div>","null","9","1","D","",""
"","","","","","survey-likert","50","258671","0.0-50.0","A4E885E312A8418AB78D58FE669F0ACC","0199dba9-537b-715b-9268-217bfc1435d9","0199dba2-79c8-7e9d-9c1e-4c8d6614b755","","2337","","{""Q0"":0}","9","1","surprise_rating","","[0]"
"","","","","","survey-likert","51","260495","0.0-51.0","A4E885E312A8418AB78D58FE669F0ACC","0199dba9-537b-715b-9268-217bfc1435d9","0199dba2-79c8-7e9d-9c1e-4c8d6614b755","","1823","","{""Q0"":0}","9","1","enjoyment_rating","","[0]"
"","","","","","html-keyboard-response","52","266497","0.0-52.0","A4E885E312A8418AB78D58FE669F0ACC","0199dba9-537b-715b-9268-217bfc1435d9","0199dba2-79c8-7e9d-9c1e-4c8d6614b755","","null","<div style=""display: flex; justify-content: center; align-items: center;"">
                     <img src=""images/other/blank.png"" style=""width: 300px; height: 300px;"" />
                   </div>","null","0","0","blank","",""
"","","","","","html-keyboard-response","53","272499","0.0-53.0","A4E885E312A8418AB78D58FE669F0ACC","0199dba9-537b-715b-9268-217bfc1435d9","0199dba2-79c8-7e9d-9c1e-4c8d6614b755","","null","<div style=""display: flex; justify-content: center; align-items: center;"">
                     <img src=""images/causal/causal_series_2/causal_series_2_a.png"" style=""width: 300px; height: 300px;"" />
                   </div>","null","2","1","A","",""
"","","","","","html-keyboard-response","54","278504","0.0-54.0","A4E885E312A8418AB78D58FE669F0ACC","0199dba9-537b-715b-9268-217bfc1435d9","0199dba2-79c8-7e9d-9c1e-4c8d6614b755","","null","<div style=""display: flex; justify-content: center; align-items: center;"">
                     <img src=""images/causal/causal_series_2/causal_series_2_b.png"" style=""width: 300px; height: 300px;"" />
                   </div>","null","2","1","B","",""
"","","","","","html-keyboard-response","55","284514","0.0-55.0","A4E885E312A8418AB78D58FE669F0ACC","0199dba9-537b-715b-9268-217bfc1435d9","0199dba2-79c8-7e9d-9c1e-4c8d6614b755","","null","<div style=""display: flex; justify-content: center; align-items: center;"">
                     <img src=""images/causal/causal_series_2/causal_series_2_c.png"" style=""width: 300px; height: 300px;"" />
                   </div>","null","2","1","C","",""
"","","","","","html-button-response","56","285251","0.0-56.0","A4E885E312A8418AB78D58FE669F0ACC","0199dba9-537b-715b-9268-217bfc1435d9","0199dba2-79c8-7e9d-9c1e-4c8d6614b755","","736","
        <div style=""display: flex; justify-content: center; align-items: center;"">
          <img src=""images/red_deck_2.png"" style=""width: 300px; height: 300px; margin-right: 10px;"" />
          <img src=""images/blue_deck_1.png"" style=""width: 300px; height: 300px;"" />
        </div>","0","2","1","choice","0",""
"","","","","","html-keyboard-response","57","291252","0.0-57.0-0.0-0.0","A4E885E312A8418AB78D58FE669F0ACC","0199dba9-537b-715b-9268-217bfc1435d9","0199dba2-79c8-7e9d-9c1e-4c8d6614b755","","null","<div style=""display: flex; justify-content: center; align-items: center;"">
                     <img src=""images/causal/causal_series_2/causal_series_2_d.png"" style=""width: 300px; height: 300px;"" />
                   </div>","null","2","1","D","",""
"","","","","","survey-likert","58","295555","0.0-58.0","A4E885E312A8418AB78D58FE669F0ACC","0199dba9-537b-715b-9268-217bfc1435d9","0199dba2-79c8-7e9d-9c1e-4c8d6614b755","","4302","","{""Q0"":2}","2","1","surprise_rating","","[0]"
"","","","","","survey-likert","59","296562","0.0-59.0","A4E885E312A8418AB78D58FE669F0ACC","0199dba9-537b-715b-9268-217bfc1435d9","0199dba2-79c8-7e9d-9c1e-4c8d6614b755","","1007","","{""Q0"":2}","2","1","enjoyment_rating","","[0]"
"","","","","","html-keyboard-response","60","302563","0.0-60.0","A4E885E312A8418AB78D58FE669F0ACC","0199dba9-537b-715b-9268-217bfc1435d9","0199dba2-79c8-7e9d-9c1e-4c8d6614b755","","null","<div style=""display: flex; justify-content: center; align-items: center;"">
                     <img src=""images/other/blank.png"" style=""width: 300px; height: 300px;"" />
                   </div>","null","0","0","blank","",""
"","","","","","html-keyboard-response","61","308565","0.0-61.0","A4E885E312A8418AB78D58FE669F0ACC","0199dba9-537b-715b-9268-217bfc1435d9","0199dba2-79c8-7e9d-9c1e-4c8d6614b755","","null","<div style=""display: flex; justify-content: center; align-items: center;"">
                     <img src=""images/causal/causal_series_3/causal_series_3_a.png"" style=""width: 300px; height: 300px;"" />
                   </div>","null","3","1","A","",""
"","","","","","html-keyboard-response","62","314567","0.0-62.0","A4E885E312A8418AB78D58FE669F0ACC","0199dba9-537b-715b-9268-217bfc1435d9","0199dba2-79c8-7e9d-9c1e-4c8d6614b755","","null","<div style=""display: flex; justify-content: center; align-items: center;"">
                     <img src=""images/causal/causal_series_3/causal_series_3_b.png"" style=""width: 300px; height: 300px;"" />
                   </div>","null","3","1","B","",""
"","","","","","html-keyboard-response","63","320569","0.0-63.0","A4E885E312A8418AB78D58FE669F0ACC","0199dba9-537b-715b-9268-217bfc1435d9","0199dba2-79c8-7e9d-9c1e-4c8d6614b755","","null","<div style=""display: flex; justify-content: center; align-items: center;"">
                     <img src=""images/causal/causal_series_3/causal_series_3_c.png"" style=""width: 300px; height: 300px;"" />
                   </div>","null","3","1","C","",""
"","","","","","html-button-response","64","324766","0.0-64.0","A4E885E312A8418AB78D58FE669F0ACC","0199dba9-537b-715b-9268-217bfc1435d9","0199dba2-79c8-7e9d-9c1e-4c8d6614b755","","4195","
        <div style=""display: flex; justify-content: center; align-items: center;"">
          <img src=""images/red_deck_2.png"" style=""width: 300px; height: 300px; margin-right: 10px;"" />
          <img src=""images/blue_deck_1.png"" style=""width: 300px; height: 300px;"" />
        </div>","0","3","1","choice","0",""
"","","","","","html-keyboard-response","65","330768","0.0-65.0-0.0-0.0","A4E885E312A8418AB78D58FE669F0ACC","0199dba9-537b-715b-9268-217bfc1435d9","0199dba2-79c8-7e9d-9c1e-4c8d6614b755","","null","<div style=""display: flex; justify-content: center; align-items: center;"">
                     <img src=""images/causal/causal_series_3/causal_series_3_d.png"" style=""width: 300px; height: 300px;"" />
                   </div>","null","3","1","D","",""
"","","","","","survey-likert","66","332550","0.0-66.0","A4E885E312A8418AB78D58FE669F0ACC","0199dba9-537b-715b-9268-217bfc1435d9","0199dba2-79c8-7e9d-9c1e-4c8d6614b755","","1781","","{""Q0"":0}","3","1","surprise_rating","","[0]"
"","","","","","survey-likert","67","335762","0.0-67.0","A4E885E312A8418AB78D58FE669F0ACC","0199dba9-537b-715b-9268-217bfc1435d9","0199dba2-79c8-7e9d-9c1e-4c8d6614b755","","3211","","{""Q0"":2}","3","1","enjoyment_rating","","[0]"
"","","","","","html-keyboard-response","68","341764","0.0-68.0","A4E885E312A8418AB78D58FE669F0ACC","0199dba9-537b-715b-9268-217bfc1435d9","0199dba2-79c8-7e9d-9c1e-4c8d6614b755","","null","<div style=""display: flex; justify-content: center; align-items: center;"">
                     <img src=""images/other/blank.png"" style=""width: 300px; height: 300px;"" />
                   </div>","null","0","0","blank","",""
"","","","","","html-keyboard-response","69","347766","0.0-69.0","A4E885E312A8418AB78D58FE669F0ACC","0199dba9-537b-715b-9268-217bfc1435d9","0199dba2-79c8-7e9d-9c1e-4c8d6614b755","","null","<div style=""display: flex; justify-content: center; align-items: center;"">
                     <img src=""images/causal/causal_series_4/causal_series_4_a.png"" style=""width: 300px; height: 300px;"" />
                   </div>","null","4","1","A","",""
"","","","","","html-keyboard-response","70","353767","0.0-70.0","A4E885E312A8418AB78D58FE669F0ACC","0199dba9-537b-715b-9268-217bfc1435d9","0199dba2-79c8-7e9d-9c1e-4c8d6614b755","","null","<div style=""display: flex; justify-content: center; align-items: center;"">
                     <img src=""images/causal/causal_series_4/causal_series_4_b.png"" style=""width: 300px; height: 300px;"" />
                   </div>","null","4","1","B","",""
"","","","","","html-keyboard-response","71","359769","0.0-71.0","A4E885E312A8418AB78D58FE669F0ACC","0199dba9-537b-715b-9268-217bfc1435d9","0199dba2-79c8-7e9d-9c1e-4c8d6614b755","","null","<div style=""display: flex; justify-content: center; align-items: center;"">
                     <img src=""images/causal/causal_series_4/causal_series_4_c.png"" style=""width: 300px; height: 300px;"" />
                   </div>","null","4","1","C","",""
"","","","","","html-button-response","72","360662","0.0-72.0","A4E885E312A8418AB78D58FE669F0ACC","0199dba9-537b-715b-9268-217bfc1435d9","0199dba2-79c8-7e9d-9c1e-4c8d6614b755","","892","
        <div style=""display: flex; justify-content: center; align-items: center;"">
          <img src=""images/red_deck_2.png"" style=""width: 300px; height: 300px; margin-right: 10px;"" />
          <img src=""images/blue_deck_1.png"" style=""width: 300px; height: 300px;"" />
        </div>","1","4","1","choice","1",""
"","","","","","html-keyboard-response","73","366663","0.0-73.0-1.0-0.0","A4E885E312A8418AB78D58FE669F0ACC","0199dba9-537b-715b-9268-217bfc1435d9","0199dba2-79c8-7e9d-9c1e-4c8d6614b755","","null","<div style=""display: flex; justify-content: center; align-items: center;"">
                     <img src=""images/semantic/semantic_series_4/semantic_series_4_d.png"" style=""width: 300px; height: 300px;"" />
                   </div>","null","4","1","D","",""
"","","","","","survey-likert","74","370017","0.0-74.0","A4E885E312A8418AB78D58FE669F0ACC","0199dba9-537b-715b-9268-217bfc1435d9","0199dba2-79c8-7e9d-9c1e-4c8d6614b755","","3354","","{""Q0"":0}","4","1","surprise_rating","","[0]"
"","","","","","survey-likert","75","371921","0.0-75.0","A4E885E312A8418AB78D58FE669F0ACC","0199dba9-537b-715b-9268-217bfc1435d9","0199dba2-79c8-7e9d-9c1e-4c8d6614b755","","1904","","{""Q0"":1}","4","1","enjoyment_rating","","[0]"
"","","","","","html-keyboard-response","76","377923","0.0-76.0","A4E885E312A8418AB78D58FE669F0ACC","0199dba9-537b-715b-9268-217bfc1435d9","0199dba2-79c8-7e9d-9c1e-4c8d6614b755","","null","<div style=""display: flex; justify-content: center; align-items: center;"">
                     <img src=""images/other/blank.png"" style=""width: 300px; height: 300px;"" />
                   </div>","null","0","0","blank","",""
"","","","","","html-keyboard-response","77","383925","0.0-77.0","A4E885E312A8418AB78D58FE669F0ACC","0199dba9-537b-715b-9268-217bfc1435d9","0199dba2-79c8-7e9d-9c1e-4c8d6614b755","","null","<div style=""display: flex; justify-content: center; align-items: center;"">
                     <img src=""images/causal/causal_series_10/causal_series_10_a.png"" style=""width: 300px; height: 300px;"" />
                   </div>","null","10","1","A","",""
"","","","","","html-keyboard-response","78","389927","0.0-78.0","A4E885E312A8418AB78D58FE669F0ACC","0199dba9-537b-715b-9268-217bfc1435d9","0199dba2-79c8-7e9d-9c1e-4c8d6614b755","","null","<div style=""display: flex; justify-content: center; align-items: center;"">
                     <img src=""images/causal/causal_series_10/causal_series_10_b.png"" style=""width: 300px; height: 300px;"" />
                   </div>","null","10","1","B","",""
"","","","","","html-keyboard-response","79","395943","0.0-79.0","A4E885E312A8418AB78D58FE669F0ACC","0199dba9-537b-715b-9268-217bfc1435d9","0199dba2-79c8-7e9d-9c1e-4c8d6614b755","","null","<div style=""display: flex; justify-content: center; align-items: center;"">
                     <img src=""images/causal/causal_series_10/causal_series_10_c.png"" style=""width: 300px; height: 300px;"" />
                   </div>","null","10","1","C","",""
"","","","","","html-button-response","80","396589","0.0-80.0","A4E885E312A8418AB78D58FE669F0ACC","0199dba9-537b-715b-9268-217bfc1435d9","0199dba2-79c8-7e9d-9c1e-4c8d6614b755","","645","
        <div style=""display: flex; justify-content: center; align-items: center;"">
          <img src=""images/red_deck_2.png"" style=""width: 300px; height: 300px; margin-right: 10px;"" />
          <img src=""images/blue_deck_1.png"" style=""width: 300px; height: 300px;"" />
        </div>","1","10","1","choice","1",""
"","","","","","html-keyboard-response","81","402591","0.0-81.0-1.0-0.0","A4E885E312A8418AB78D58FE669F0ACC","0199dba9-537b-715b-9268-217bfc1435d9","0199dba2-79c8-7e9d-9c1e-4c8d6614b755","","null","<div style=""display: flex; justify-content: center; align-items: center;"">
                     <img src=""images/semantic/semantic_series_10/semantic_series_10_d.png"" style=""width: 300px; height: 300px;"" />
                   </div>","null","10","1","D","",""
"","","","","","survey-likert","82","406641","0.0-82.0","A4E885E312A8418AB78D58FE669F0ACC","0199dba9-537b-715b-9268-217bfc1435d9","0199dba2-79c8-7e9d-9c1e-4c8d6614b755","","4049","","{""Q0"":4}","10","1","surprise_rating","","[0]"
"","","","","","survey-likert","83","408417","0.0-83.0","A4E885E312A8418AB78D58FE669F0ACC","0199dba9-537b-715b-9268-217bfc1435d9","0199dba2-79c8-7e9d-9c1e-4c8d6614b755","","1775","","{""Q0"":3}","10","1","enjoyment_rating","","[0]"
"","","","","","html-keyboard-response","84","414419","0.0-84.0","A4E885E312A8418AB78D58FE669F0ACC","0199dba9-537b-715b-9268-217bfc1435d9","0199dba2-79c8-7e9d-9c1e-4c8d6614b755","","null","<div style=""display: flex; justify-content: center; align-items: center;"">
                     <img src=""images/other/blank.png"" style=""width: 300px; height: 300px;"" />
                   </div>","null","0","0","blank","",""
"","","","","","survey-text","85","431064","0.0-85.0","A4E885E312A8418AB78D58FE669F0ACC","0199dba9-537b-715b-9268-217bfc1435d9","0199dba2-79c8-7e9d-9c1e-4c8d6614b755","","16644","","{""Q0"":""The color""}","","","","",""
"","","","","","html-button-response","86","439944","0.0-86.0","A4E885E312A8418AB78D58FE669F0ACC","0199dba9-537b-715b-9268-217bfc1435d9","0199dba2-79c8-7e9d-9c1e-4c8d6614b755","","8879","Which color deck do the following sentences continue the story from?","0","","","","",""
"","","","","","html-button-response","87","444080","0.0-87.0","A4E885E312A8418AB78D58FE669F0ACC","0199dba9-537b-715b-9268-217bfc1435d9","0199dba2-79c8-7e9d-9c1e-4c8d6614b755","","4136","Which color deck do the following sentences NOT follow the story from?","1","","","","",""
"","","","","","html-button-response","88","447177","0.0-88.0","A4E885E312A8418AB78D58FE669F0ACC","0199dba9-537b-715b-9268-217bfc1435d9","0199dba2-79c8-7e9d-9c1e-4c8d6614b755","","3096","Which type of deck did you prefer overall?","0","","","","",""
"","","","","","survey-text","89","453692","0.0-89.0","A4E885E312A8418AB78D58FE669F0ACC","0199dba9-537b-715b-9268-217bfc1435d9","0199dba2-79c8-7e9d-9c1e-4c8d6614b755","","6513","","{""Q0"":""MALE"",""Q1"":""23""}","","","","",""
"","","","","","instructions","90","458764","0.0-90.0","A4E885E312A8418AB78D58FE669F0ACC","0199dba9-537b-715b-9268-217bfc1435d9","0199dba2-79c8-7e9d-9c1e-4c8d6614b755","[{""page_index"":0,""viewing_time"":5072}]","5072","","","","","","",""
