"success","timeout","failed_images","failed_audio","failed_video","trial_type","trial_index","time_elapsed","internal_node_id","subject_id","study_id","session_id","view_history","rt","stimulus","response","series","repetition","phase","choice","question_order"
"true","false","[]","[]","[]","preload","0","340","0.0-0.0","086CFAC51C8345A2B92AA875862AE375","0199d6f1-3822-7e03-bb57-a78af1f6c568","0199d6c6-52b5-75b7-8a11-3e0d2849423a","","","","","","","","",""
"","","","","","instructions","1","6634","0.0-1.0","086CFAC51C8345A2B92AA875862AE375","0199d6f1-3822-7e03-bb57-a78af1f6c568","0199d6c6-52b5-75b7-8a11-3e0d2849423a","[{""page_index"":0,""viewing_time"":6293}]","6293","","","","","","",""
"","","","","","instructions","2","15315","0.0-2.0","086CFAC51C8345A2B92AA875862AE375","0199d6f1-3822-7e03-bb57-a78af1f6c568","0199d6c6-52b5-75b7-8a11-3e0d2849423a","[{""page_index"":0,""viewing_time"":8681}]","8681","","","","","","",""
"true","","","","","fullscreen","3","19778","0.0-3.0","086CFAC51C8345A2B92AA875862AE375","0199d6f1-3822-7e03-bb57-a78af1f6c568","0199d6c6-52b5-75b7-8a11-3e0d2849423a","","3457","","","","","","",""
"","","","","","instructions","4","43182","0.0-4.0","086CFAC51C8345A2B92AA875862AE375","0199d6f1-3822-7e03-bb57-a78af1f6c568","0199d6c6-52b5-75b7-8a11-3e0d2849423a","[{""page_index"":0,""viewing_time"":23403}]","23403","","","","","","",""
"","","","","","html-keyboard-response","5","49184","0.0-5.0","086CFAC51C8345A2B92AA875862AE375","0199d6f1-3822-7e03-bb57-a78af1f6c568","0199d6c6-52b5-75b7-8a11-3e0d2849423a","","null","<div style=""display: flex; justify-content: center; align-items: center;"">
                     <img src=""images/causal/causal_series_7/causal_series_7_a.png"" style=""width: 300px; height: 300px;"" />
                   </div>","null","7","1","A","",""
"","","","","","html-keyboard-response","6","55186","0.0-6.0","086CFAC51C8345A2B92AA875862AE375","0199d6f1-3822-7e03-bb57-a78af1f6c568","0199d6c6-52b5-75b7-8a11-3e0d2849423a","","null","<div style=""display: flex; justify-content: center; align-items: center;"">
                     <img src=""images/causal/causal_series_7/causal_series_7_b.png"" style=""width: 300px; height: 300px;"" />
                   </div>","null","7","1","B","",""
"","","","","","html-keyboard-response","7","61188","0.0-7.0","086CFAC51C8345A2B92AA875862AE375","0199d6f1-3822-7e03-bb57-a78af1f6c568","0199d6c6-52b5-75b7-8a11-3e0d2849423a","","null","<div style=""display: flex; justify-content: center; align-items: center;"">
                     <img src=""images/causal/causal_series_7/causal_series_7_c.png"" style=""width: 300px; height: 300px;"" />
                   </div>","null","7","1","C","",""
"","","","","","html-button-response","8","66671","0.0-8.0","086CFAC51C8345A2B92AA875862AE375","0199d6f1-3822-7e03-bb57-a78af1f6c568","0199d6c6-52b5-75b7-8a11-3e0d2849423a","","5482","
        <div style=""display: flex; justify-content: center; align-items: center;"">
          <img src=""images/red_deck_2.png"" style=""width: 300px; height: 300px; margin-right: 10px;"" />
          <img src=""images/blue_deck_1.png"" style=""width: 300px; height: 300px;"" />
        </div>","0","7","1","choice","0",""
"","","","","","html-keyboard-response","9","72673","0.0-9.0-0.0-0.0","086CFAC51C8345A2B92AA875862AE375","0199d6f1-3822-7e03-bb57-a78af1f6c568","0199d6c6-52b5-75b7-8a11-3e0d2849423a","","null","<div style=""display: flex; justify-content: center; align-items: center;"">
                     <img src=""images/causal/causal_series_7/causal_series_7_d.png"" style=""width: 300px; height: 300px;"" />
                   </div>","null","7","1","D","",""
"","","","","","survey-likert","10","78382","0.0-10.0","086CFAC51C8345A2B92AA875862AE375","0199d6f1-3822-7e03-bb57-a78af1f6c568","0199d6c6-52b5-75b7-8a11-3e0d2849423a","","5707","","{""Q0"":3}","7","1","surprise_rating","","[0]"
"","","","","","survey-likert","11","84036","0.0-11.0","086CFAC51C8345A2B92AA875862AE375","0199d6f1-3822-7e03-bb57-a78af1f6c568","0199d6c6-52b5-75b7-8a11-3e0d2849423a","","5652","","{""Q0"":2}","7","1","enjoyment_rating","","[0]"
"","","","","","html-keyboard-response","12","90039","0.0-12.0","086CFAC51C8345A2B92AA875862AE375","0199d6f1-3822-7e03-bb57-a78af1f6c568","0199d6c6-52b5-75b7-8a11-3e0d2849423a","","null","<div style=""display: flex; justify-content: center; align-items: center;"">
                     <img src=""images/other/blank.png"" style=""width: 300px; height: 300px;"" />
                   </div>","null","0","0","blank","",""
"","","","","","html-keyboard-response","13","96040","0.0-13.0","086CFAC51C8345A2B92AA875862AE375","0199d6f1-3822-7e03-bb57-a78af1f6c568","0199d6c6-52b5-75b7-8a11-3e0d2849423a","","null","<div style=""display: flex; justify-content: center; align-items: center;"">
                     <img src=""images/causal/causal_series_5/causal_series_5_a.png"" style=""width: 300px; height: 300px;"" />
                   </div>","null","5","1","A","",""
"","","","","","html-keyboard-response","14","102041","0.0-14.0","086CFAC51C8345A2B92AA875862AE375","0199d6f1-3822-7e03-bb57-a78af1f6c568","0199d6c6-52b5-75b7-8a11-3e0d2849423a","","null","<div style=""display: flex; justify-content: center; align-items: center;"">
                     <img src=""images/causal/causal_series_5/causal_series_5_b.png"" style=""width: 300px; height: 300px;"" />
                   </div>","null","5","1","B","",""
"","","","","","html-keyboard-response","15","108044","0.0-15.0","086CFAC51C8345A2B92AA875862AE375","0199d6f1-3822-7e03-bb57-a78af1f6c568","0199d6c6-52b5-75b7-8a11-3e0d2849423a","","null","<div style=""display: flex; justify-content: center; align-items: center;"">
                     <img src=""images/causal/causal_series_5/causal_series_5_c.png"" style=""width: 300px; height: 300px;"" />
                   </div>","null","5","1","C","",""
"","","","","","html-button-response","16","111378","0.0-16.0","086CFAC51C8345A2B92AA875862AE375","0199d6f1-3822-7e03-bb57-a78af1f6c568","0199d6c6-52b5-75b7-8a11-3e0d2849423a","","3333","
        <div style=""display: flex; justify-content: center; align-items: center;"">
          <img src=""images/red_deck_2.png"" style=""width: 300px; height: 300px; margin-right: 10px;"" />
          <img src=""images/blue_deck_1.png"" style=""width: 300px; height: 300px;"" />
        </div>","1","5","1","choice","1",""
"","","","","","html-keyboard-response","17","117380","0.0-17.0-1.0-0.0","086CFAC51C8345A2B92AA875862AE375","0199d6f1-3822-7e03-bb57-a78af1f6c568","0199d6c6-52b5-75b7-8a11-3e0d2849423a","","null","<div style=""display: flex; justify-content: center; align-items: center;"">
                     <img src=""images/semantic/semantic_series_5/semantic_series_5_d.png"" style=""width: 300px; height: 300px;"" />
                   </div>","null","5","1","D","",""
"","","","","","survey-likert","18","124792","0.0-18.0","086CFAC51C8345A2B92AA875862AE375","0199d6f1-3822-7e03-bb57-a78af1f6c568","0199d6c6-52b5-75b7-8a11-3e0d2849423a","","7411","","{""Q0"":3}","5","1","surprise_rating","","[0]"
"","","","","","survey-likert","19","128415","0.0-19.0","086CFAC51C8345A2B92AA875862AE375","0199d6f1-3822-7e03-bb57-a78af1f6c568","0199d6c6-52b5-75b7-8a11-3e0d2849423a","","3622","","{""Q0"":2}","5","1","enjoyment_rating","","[0]"
"","","","","","html-keyboard-response","20","134416","0.0-20.0","086CFAC51C8345A2B92AA875862AE375","0199d6f1-3822-7e03-bb57-a78af1f6c568","0199d6c6-52b5-75b7-8a11-3e0d2849423a","","null","<div style=""display: flex; justify-content: center; align-items: center;"">
                     <img src=""images/other/blank.png"" style=""width: 300px; height: 300px;"" />
                   </div>","null","0","0","blank","",""
"","","","","","html-keyboard-response","21","140418","0.0-21.0","086CFAC51C8345A2B92AA875862AE375","0199d6f1-3822-7e03-bb57-a78af1f6c568","0199d6c6-52b5-75b7-8a11-3e0d2849423a","","null","<div style=""display: flex; justify-content: center; align-items: center;"">
                     <img src=""images/causal/causal_series_2/causal_series_2_a.png"" style=""width: 300px; height: 300px;"" />
                   </div>","null","2","1","A","",""
"","","","","","html-keyboard-response","22","146420","0.0-22.0","086CFAC51C8345A2B92AA875862AE375","0199d6f1-3822-7e03-bb57-a78af1f6c568","0199d6c6-52b5-75b7-8a11-3e0d2849423a","","null","<div style=""display: flex; justify-content: center; align-items: center;"">
                     <img src=""images/causal/causal_series_2/causal_series_2_b.png"" style=""width: 300px; height: 300px;"" />
                   </div>","null","2","1","B","",""
"","","","","","html-keyboard-response","23","152422","0.0-23.0","086CFAC51C8345A2B92AA875862AE375","0199d6f1-3822-7e03-bb57-a78af1f6c568","0199d6c6-52b5-75b7-8a11-3e0d2849423a","","null","<div style=""display: flex; justify-content: center; align-items: center;"">
                     <img src=""images/causal/causal_series_2/causal_series_2_c.png"" style=""width: 300px; height: 300px;"" />
                   </div>","null","2","1","C","",""
"","","","","","html-button-response","24","154899","0.0-24.0","086CFAC51C8345A2B92AA875862AE375","0199d6f1-3822-7e03-bb57-a78af1f6c568","0199d6c6-52b5-75b7-8a11-3e0d2849423a","","2477","
        <div style=""display: flex; justify-content: center; align-items: center;"">
          <img src=""images/red_deck_2.png"" style=""width: 300px; height: 300px; margin-right: 10px;"" />
          <img src=""images/blue_deck_1.png"" style=""width: 300px; height: 300px;"" />
        </div>","1","2","1","choice","1",""
"","","","","","html-keyboard-response","25","160901","0.0-25.0-1.0-0.0","086CFAC51C8345A2B92AA875862AE375","0199d6f1-3822-7e03-bb57-a78af1f6c568","0199d6c6-52b5-75b7-8a11-3e0d2849423a","","null","<div style=""display: flex; justify-content: center; align-items: center;"">
                     <img src=""images/semantic/semantic_series_2/semantic_series_2_d.png"" style=""width: 300px; height: 300px;"" />
                   </div>","null","2","1","D","",""
"","","","","","survey-likert","26","165341","0.0-26.0","086CFAC51C8345A2B92AA875862AE375","0199d6f1-3822-7e03-bb57-a78af1f6c568","0199d6c6-52b5-75b7-8a11-3e0d2849423a","","4439","","{""Q0"":4}","2","1","surprise_rating","","[0]"
"","","","","","survey-likert","27","167210","0.0-27.0","086CFAC51C8345A2B92AA875862AE375","0199d6f1-3822-7e03-bb57-a78af1f6c568","0199d6c6-52b5-75b7-8a11-3e0d2849423a","","1867","","{""Q0"":4}","2","1","enjoyment_rating","","[0]"
"","","","","","html-keyboard-response","28","173211","0.0-28.0","086CFAC51C8345A2B92AA875862AE375","0199d6f1-3822-7e03-bb57-a78af1f6c568","0199d6c6-52b5-75b7-8a11-3e0d2849423a","","null","<div style=""display: flex; justify-content: center; align-items: center;"">
                     <img src=""images/other/blank.png"" style=""width: 300px; height: 300px;"" />
                   </div>","null","0","0","blank","",""
"","","","","","html-keyboard-response","29","179213","0.0-29.0","086CFAC51C8345A2B92AA875862AE375","0199d6f1-3822-7e03-bb57-a78af1f6c568","0199d6c6-52b5-75b7-8a11-3e0d2849423a","","null","<div style=""display: flex; justify-content: center; align-items: center;"">
                     <img src=""images/causal/causal_series_3/causal_series_3_a.png"" style=""width: 300px; height: 300px;"" />
                   </div>","null","3","1","A","",""
"","","","","","html-keyboard-response","30","185215","0.0-30.0","086CFAC51C8345A2B92AA875862AE375","0199d6f1-3822-7e03-bb57-a78af1f6c568","0199d6c6-52b5-75b7-8a11-3e0d2849423a","","null","<div style=""display: flex; justify-content: center; align-items: center;"">
                     <img src=""images/causal/causal_series_3/causal_series_3_b.png"" style=""width: 300px; height: 300px;"" />
                   </div>","null","3","1","B","",""
"","","","","","html-keyboard-response","31","191217","0.0-31.0","086CFAC51C8345A2B92AA875862AE375","0199d6f1-3822-7e03-bb57-a78af1f6c568","0199d6c6-52b5-75b7-8a11-3e0d2849423a","","null","<div style=""display: flex; justify-content: center; align-items: center;"">
                     <img src=""images/causal/causal_series_3/causal_series_3_c.png"" style=""width: 300px; height: 300px;"" />
                   </div>","null","3","1","C","",""
"","","","","","html-button-response","32","193435","0.0-32.0","086CFAC51C8345A2B92AA875862AE375","0199d6f1-3822-7e03-bb57-a78af1f6c568","0199d6c6-52b5-75b7-8a11-3e0d2849423a","","2217","
        <div style=""display: flex; justify-content: center; align-items: center;"">
          <img src=""images/red_deck_2.png"" style=""width: 300px; height: 300px; margin-right: 10px;"" />
          <img src=""images/blue_deck_1.png"" style=""width: 300px; height: 300px;"" />
        </div>","0","3","1","choice","0",""
"","","","","","html-keyboard-response","33","199437","0.0-33.0-0.0-0.0","086CFAC51C8345A2B92AA875862AE375","0199d6f1-3822-7e03-bb57-a78af1f6c568","0199d6c6-52b5-75b7-8a11-3e0d2849423a","","null","<div style=""display: flex; justify-content: center; align-items: center;"">
                     <img src=""images/causal/causal_series_3/causal_series_3_d.png"" style=""width: 300px; height: 300px;"" />
                   </div>","null","3","1","D","",""
"","","","","","survey-likert","34","203017","0.0-34.0","086CFAC51C8345A2B92AA875862AE375","0199d6f1-3822-7e03-bb57-a78af1f6c568","0199d6c6-52b5-75b7-8a11-3e0d2849423a","","3579","","{""Q0"":4}","3","1","surprise_rating","","[0]"
"","","","","","survey-likert","35","204941","0.0-35.0","086CFAC51C8345A2B92AA875862AE375","0199d6f1-3822-7e03-bb57-a78af1f6c568","0199d6c6-52b5-75b7-8a11-3e0d2849423a","","1923","","{""Q0"":3}","3","1","enjoyment_rating","","[0]"
"","","","","","html-keyboard-response","36","210943","0.0-36.0","086CFAC51C8345A2B92AA875862AE375","0199d6f1-3822-7e03-bb57-a78af1f6c568","0199d6c6-52b5-75b7-8a11-3e0d2849423a","","null","<div style=""display: flex; justify-content: center; align-items: center;"">
                     <img src=""images/other/blank.png"" style=""width: 300px; height: 300px;"" />
                   </div>","null","0","0","blank","",""
"","","","","","html-keyboard-response","37","216945","0.0-37.0","086CFAC51C8345A2B92AA875862AE375","0199d6f1-3822-7e03-bb57-a78af1f6c568","0199d6c6-52b5-75b7-8a11-3e0d2849423a","","null","<div style=""display: flex; justify-content: center; align-items: center;"">
                     <img src=""images/causal/causal_series_9/causal_series_9_a.png"" style=""width: 300px; height: 300px;"" />
                   </div>","null","9","1","A","",""
"","","","","","html-keyboard-response","38","222947","0.0-38.0","086CFAC51C8345A2B92AA875862AE375","0199d6f1-3822-7e03-bb57-a78af1f6c568","0199d6c6-52b5-75b7-8a11-3e0d2849423a","","null","<div style=""display: flex; justify-content: center; align-items: center;"">
                     <img src=""images/causal/causal_series_9/causal_series_9_b.png"" style=""width: 300px; height: 300px;"" />
                   </div>","null","9","1","B","",""
"","","","","","html-keyboard-response","39","228948","0.0-39.0","086CFAC51C8345A2B92AA875862AE375","0199d6f1-3822-7e03-bb57-a78af1f6c568","0199d6c6-52b5-75b7-8a11-3e0d2849423a","","null","<div style=""display: flex; justify-content: center; align-items: center;"">
                     <img src=""images/causal/causal_series_9/causal_series_9_c.png"" style=""width: 300px; height: 300px;"" />
                   </div>","null","9","1","C","",""
"","","","","","html-button-response","40","230141","0.0-40.0","086CFAC51C8345A2B92AA875862AE375","0199d6f1-3822-7e03-bb57-a78af1f6c568","0199d6c6-52b5-75b7-8a11-3e0d2849423a","","1192","
        <div style=""display: flex; justify-content: center; align-items: center;"">
          <img src=""images/red_deck_2.png"" style=""width: 300px; height: 300px; margin-right: 10px;"" />
          <img src=""images/blue_deck_1.png"" style=""width: 300px; height: 300px;"" />
        </div>","0","9","1","choice","0",""
"","","","","","html-keyboard-response","41","236142","0.0-41.0-0.0-0.0","086CFAC51C8345A2B92AA875862AE375","0199d6f1-3822-7e03-bb57-a78af1f6c568","0199d6c6-52b5-75b7-8a11-3e0d2849423a","","null","<div style=""display: flex; justify-content: center; align-items: center;"">
                     <img src=""images/causal/causal_series_9/causal_series_9_d.png"" style=""width: 300px; height: 300px;"" />
                   </div>","null","9","1","D","",""
"","","","","","survey-likert","42","240653","0.0-42.0","086CFAC51C8345A2B92AA875862AE375","0199d6f1-3822-7e03-bb57-a78af1f6c568","0199d6c6-52b5-75b7-8a11-3e0d2849423a","","4510","","{""Q0"":2}","9","1","surprise_rating","","[0]"
"","","","","","survey-likert","43","242525","0.0-43.0","086CFAC51C8345A2B92AA875862AE375","0199d6f1-3822-7e03-bb57-a78af1f6c568","0199d6c6-52b5-75b7-8a11-3e0d2849423a","","1871","","{""Q0"":3}","9","1","enjoyment_rating","","[0]"
"","","","","","html-keyboard-response","44","248527","0.0-44.0","086CFAC51C8345A2B92AA875862AE375","0199d6f1-3822-7e03-bb57-a78af1f6c568","0199d6c6-52b5-75b7-8a11-3e0d2849423a","","null","<div style=""display: flex; justify-content: center; align-items: center;"">
                     <img src=""images/other/blank.png"" style=""width: 300px; height: 300px;"" />
                   </div>","null","0","0","blank","",""
"","","","","","html-keyboard-response","45","254529","0.0-45.0","086CFAC51C8345A2B92AA875862AE375","0199d6f1-3822-7e03-bb57-a78af1f6c568","0199d6c6-52b5-75b7-8a11-3e0d2849423a","","null","<div style=""display: flex; justify-content: center; align-items: center;"">
                     <img src=""images/causal/causal_series_6/causal_series_6_a.png"" style=""width: 300px; height: 300px;"" />
                   </div>","null","6","1","A","",""
"","","","","","html-keyboard-response","46","260531","0.0-46.0","086CFAC51C8345A2B92AA875862AE375","0199d6f1-3822-7e03-bb57-a78af1f6c568","0199d6c6-52b5-75b7-8a11-3e0d2849423a","","null","<div style=""display: flex; justify-content: center; align-items: center;"">
                     <img src=""images/causal/causal_series_6/causal_series_6_b.png"" style=""width: 300px; height: 300px;"" />
                   </div>","null","6","1","B","",""
"","","","","","html-keyboard-response","47","266534","0.0-47.0","086CFAC51C8345A2B92AA875862AE375","0199d6f1-3822-7e03-bb57-a78af1f6c568","0199d6c6-52b5-75b7-8a11-3e0d2849423a","","null","<div style=""display: flex; justify-content: center; align-items: center;"">
                     <img src=""images/causal/causal_series_6/causal_series_6_c.png"" style=""width: 300px; height: 300px;"" />
                   </div>","null","6","1","C","",""
"","","","","","html-button-response","48","269305","0.0-48.0","086CFAC51C8345A2B92AA875862AE375","0199d6f1-3822-7e03-bb57-a78af1f6c568","0199d6c6-52b5-75b7-8a11-3e0d2849423a","","2771","
        <div style=""display: flex; justify-content: center; align-items: center;"">
          <img src=""images/red_deck_2.png"" style=""width: 300px; height: 300px; margin-right: 10px;"" />
          <img src=""images/blue_deck_1.png"" style=""width: 300px; height: 300px;"" />
        </div>","1","6","1","choice","1",""
"","","","","","html-keyboard-response","49","275306","0.0-49.0-1.0-0.0","086CFAC51C8345A2B92AA875862AE375","0199d6f1-3822-7e03-bb57-a78af1f6c568","0199d6c6-52b5-75b7-8a11-3e0d2849423a","","null","<div style=""display: flex; justify-content: center; align-items: center;"">
                     <img src=""images/semantic/semantic_series_6/semantic_series_6_d.png"" style=""width: 300px; height: 300px;"" />
                   </div>","null","6","1","D","",""
"","","","","","survey-likert","50","280161","0.0-50.0","086CFAC51C8345A2B92AA875862AE375","0199d6f1-3822-7e03-bb57-a78af1f6c568","0199d6c6-52b5-75b7-8a11-3e0d2849423a","","4854","","{""Q0"":2}","6","1","surprise_rating","","[0]"
"","","","","","survey-likert","51","282030","0.0-51.0","086CFAC51C8345A2B92AA875862AE375","0199d6f1-3822-7e03-bb57-a78af1f6c568","0199d6c6-52b5-75b7-8a11-3e0d2849423a","","1868","","{""Q0"":3}","6","1","enjoyment_rating","","[0]"
"","","","","","html-keyboard-response","52","288032","0.0-52.0","086CFAC51C8345A2B92AA875862AE375","0199d6f1-3822-7e03-bb57-a78af1f6c568","0199d6c6-52b5-75b7-8a11-3e0d2849423a","","null","<div style=""display: flex; justify-content: center; align-items: center;"">
                     <img src=""images/other/blank.png"" style=""width: 300px; height: 300px;"" />
                   </div>","null","0","0","blank","",""
"","","","","","html-keyboard-response","53","294035","0.0-53.0","086CFAC51C8345A2B92AA875862AE375","0199d6f1-3822-7e03-bb57-a78af1f6c568","0199d6c6-52b5-75b7-8a11-3e0d2849423a","","null","<div style=""display: flex; justify-content: center; align-items: center;"">
                     <img src=""images/causal/causal_series_8/causal_series_8_a.png"" style=""width: 300px; height: 300px;"" />
                   </div>","null","8","1","A","",""
"","","","","","html-keyboard-response","54","300037","0.0-54.0","086CFAC51C8345A2B92AA875862AE375","0199d6f1-3822-7e03-bb57-a78af1f6c568","0199d6c6-52b5-75b7-8a11-3e0d2849423a","","null","<div style=""display: flex; justify-content: center; align-items: center;"">
                     <img src=""images/causal/causal_series_8/causal_series_8_b.png"" style=""width: 300px; height: 300px;"" />
                   </div>","null","8","1","B","",""
"","","","","","html-keyboard-response","55","306039","0.0-55.0","086CFAC51C8345A2B92AA875862AE375","0199d6f1-3822-7e03-bb57-a78af1f6c568","0199d6c6-52b5-75b7-8a11-3e0d2849423a","","null","<div style=""display: flex; justify-content: center; align-items: center;"">
                     <img src=""images/causal/causal_series_8/causal_series_8_c.png"" style=""width: 300px; height: 300px;"" />
                   </div>","null","8","1","C","",""
"","","","","","html-button-response","56","309403","0.0-56.0","086CFAC51C8345A2B92AA875862AE375","0199d6f1-3822-7e03-bb57-a78af1f6c568","0199d6c6-52b5-75b7-8a11-3e0d2849423a","","3363","
        <div style=""display: flex; justify-content: center; align-items: center;"">
          <img src=""images/red_deck_2.png"" style=""width: 300px; height: 300px; margin-right: 10px;"" />
          <img src=""images/blue_deck_1.png"" style=""width: 300px; height: 300px;"" />
        </div>","0","8","1","choice","0",""
"","","","","","html-keyboard-response","57","315405","0.0-57.0-0.0-0.0","086CFAC51C8345A2B92AA875862AE375","0199d6f1-3822-7e03-bb57-a78af1f6c568","0199d6c6-52b5-75b7-8a11-3e0d2849423a","","null","<div style=""display: flex; justify-content: center; align-items: center;"">
                     <img src=""images/causal/causal_series_8/causal_series_8_d.png"" style=""width: 300px; height: 300px;"" />
                   </div>","null","8","1","D","",""
"","","","","","survey-likert","58","319133","0.0-58.0","086CFAC51C8345A2B92AA875862AE375","0199d6f1-3822-7e03-bb57-a78af1f6c568","0199d6c6-52b5-75b7-8a11-3e0d2849423a","","3727","","{""Q0"":4}","8","1","surprise_rating","","[0]"
"","","","","","survey-likert","59","321371","0.0-59.0","086CFAC51C8345A2B92AA875862AE375","0199d6f1-3822-7e03-bb57-a78af1f6c568","0199d6c6-52b5-75b7-8a11-3e0d2849423a","","2236","","{""Q0"":3}","8","1","enjoyment_rating","","[0]"
"","","","","","html-keyboard-response","60","327373","0.0-60.0","086CFAC51C8345A2B92AA875862AE375","0199d6f1-3822-7e03-bb57-a78af1f6c568","0199d6c6-52b5-75b7-8a11-3e0d2849423a","","null","<div style=""display: flex; justify-content: center; align-items: center;"">
                     <img src=""images/other/blank.png"" style=""width: 300px; height: 300px;"" />
                   </div>","null","0","0","blank","",""
"","","","","","html-keyboard-response","61","333375","0.0-61.0","086CFAC51C8345A2B92AA875862AE375","0199d6f1-3822-7e03-bb57-a78af1f6c568","0199d6c6-52b5-75b7-8a11-3e0d2849423a","","null","<div style=""display: flex; justify-content: center; align-items: center;"">
                     <img src=""images/causal/causal_series_10/causal_series_10_a.png"" style=""width: 300px; height: 300px;"" />
                   </div>","null","10","1","A","",""
"","","","","","html-keyboard-response","62","339377","0.0-62.0","086CFAC51C8345A2B92AA875862AE375","0199d6f1-3822-7e03-bb57-a78af1f6c568","0199d6c6-52b5-75b7-8a11-3e0d2849423a","","null","<div style=""display: flex; justify-content: center; align-items: center;"">
                     <img src=""images/causal/causal_series_10/causal_series_10_b.png"" style=""width: 300px; height: 300px;"" />
                   </div>","null","10","1","B","",""
"","","","","","html-keyboard-response","63","345378","0.0-63.0","086CFAC51C8345A2B92AA875862AE375","0199d6f1-3822-7e03-bb57-a78af1f6c568","0199d6c6-52b5-75b7-8a11-3e0d2849423a","","null","<div style=""display: flex; justify-content: center; align-items: center;"">
                     <img src=""images/causal/causal_series_10/causal_series_10_c.png"" style=""width: 300px; height: 300px;"" />
                   </div>","null","10","1","C","",""
"","","","","","html-button-response","64","348078","0.0-64.0","086CFAC51C8345A2B92AA875862AE375","0199d6f1-3822-7e03-bb57-a78af1f6c568","0199d6c6-52b5-75b7-8a11-3e0d2849423a","","2699","
        <div style=""display: flex; justify-content: center; align-items: center;"">
          <img src=""images/red_deck_2.png"" style=""width: 300px; height: 300px; margin-right: 10px;"" />
          <img src=""images/blue_deck_1.png"" style=""width: 300px; height: 300px;"" />
        </div>","1","10","1","choice","1",""
"","","","","","html-keyboard-response","65","354080","0.0-65.0-1.0-0.0","086CFAC51C8345A2B92AA875862AE375","0199d6f1-3822-7e03-bb57-a78af1f6c568","0199d6c6-52b5-75b7-8a11-3e0d2849423a","","null","<div style=""display: flex; justify-content: center; align-items: center;"">
                     <img src=""images/semantic/semantic_series_10/semantic_series_10_d.png"" style=""width: 300px; height: 300px;"" />
                   </div>","null","10","1","D","",""
"","","","","","survey-likert","66","357808","0.0-66.0","086CFAC51C8345A2B92AA875862AE375","0199d6f1-3822-7e03-bb57-a78af1f6c568","0199d6c6-52b5-75b7-8a11-3e0d2849423a","","3728","","{""Q0"":4}","10","1","surprise_rating","","[0]"
"","","","","","survey-likert","67","361399","0.0-67.0","086CFAC51C8345A2B92AA875862AE375","0199d6f1-3822-7e03-bb57-a78af1f6c568","0199d6c6-52b5-75b7-8a11-3e0d2849423a","","3590","","{""Q0"":2}","10","1","enjoyment_rating","","[0]"
"","","","","","html-keyboard-response","68","367400","0.0-68.0","086CFAC51C8345A2B92AA875862AE375","0199d6f1-3822-7e03-bb57-a78af1f6c568","0199d6c6-52b5-75b7-8a11-3e0d2849423a","","null","<div style=""display: flex; justify-content: center; align-items: center;"">
                     <img src=""images/other/blank.png"" style=""width: 300px; height: 300px;"" />
                   </div>","null","0","0","blank","",""
"","","","","","html-keyboard-response","69","373401","0.0-69.0","086CFAC51C8345A2B92AA875862AE375","0199d6f1-3822-7e03-bb57-a78af1f6c568","0199d6c6-52b5-75b7-8a11-3e0d2849423a","","null","<div style=""display: flex; justify-content: center; align-items: center;"">
                     <img src=""images/causal/causal_series_4/causal_series_4_a.png"" style=""width: 300px; height: 300px;"" />
                   </div>","null","4","1","A","",""
"","","","","","html-keyboard-response","70","379404","0.0-70.0","086CFAC51C8345A2B92AA875862AE375","0199d6f1-3822-7e03-bb57-a78af1f6c568","0199d6c6-52b5-75b7-8a11-3e0d2849423a","","null","<div style=""display: flex; justify-content: center; align-items: center;"">
                     <img src=""images/causal/causal_series_4/causal_series_4_b.png"" style=""width: 300px; height: 300px;"" />
                   </div>","null","4","1","B","",""
"","","","","","html-keyboard-response","71","385406","0.0-71.0","086CFAC51C8345A2B92AA875862AE375","0199d6f1-3822-7e03-bb57-a78af1f6c568","0199d6c6-52b5-75b7-8a11-3e0d2849423a","","null","<div style=""display: flex; justify-content: center; align-items: center;"">
                     <img src=""images/causal/causal_series_4/causal_series_4_c.png"" style=""width: 300px; height: 300px;"" />
                   </div>","null","4","1","C","",""
"","","","","","html-button-response","72","389432","0.0-72.0","086CFAC51C8345A2B92AA875862AE375","0199d6f1-3822-7e03-bb57-a78af1f6c568","0199d6c6-52b5-75b7-8a11-3e0d2849423a","","4024","
        <div style=""display: flex; justify-content: center; align-items: center;"">
          <img src=""images/red_deck_2.png"" style=""width: 300px; height: 300px; margin-right: 10px;"" />
          <img src=""images/blue_deck_1.png"" style=""width: 300px; height: 300px;"" />
        </div>","0","4","1","choice","0",""
"","","","","","html-keyboard-response","73","395433","0.0-73.0-0.0-0.0","086CFAC51C8345A2B92AA875862AE375","0199d6f1-3822-7e03-bb57-a78af1f6c568","0199d6c6-52b5-75b7-8a11-3e0d2849423a","","null","<div style=""display: flex; justify-content: center; align-items: center;"">
                     <img src=""images/causal/causal_series_4/causal_series_4_d.png"" style=""width: 300px; height: 300px;"" />
                   </div>","null","4","1","D","",""
"","","","","","survey-likert","74","399529","0.0-74.0","086CFAC51C8345A2B92AA875862AE375","0199d6f1-3822-7e03-bb57-a78af1f6c568","0199d6c6-52b5-75b7-8a11-3e0d2849423a","","4094","","{""Q0"":3}","4","1","surprise_rating","","[0]"
"","","","","","survey-likert","75","401269","0.0-75.0","086CFAC51C8345A2B92AA875862AE375","0199d6f1-3822-7e03-bb57-a78af1f6c568","0199d6c6-52b5-75b7-8a11-3e0d2849423a","","1739","","{""Q0"":4}","4","1","enjoyment_rating","","[0]"
"","","","","","html-keyboard-response","76","407271","0.0-76.0","086CFAC51C8345A2B92AA875862AE375","0199d6f1-3822-7e03-bb57-a78af1f6c568","0199d6c6-52b5-75b7-8a11-3e0d2849423a","","null","<div style=""display: flex; justify-content: center; align-items: center;"">
                     <img src=""images/other/blank.png"" style=""width: 300px; height: 300px;"" />
                   </div>","null","0","0","blank","",""
"","","","","","html-keyboard-response","77","413273","0.0-77.0","086CFAC51C8345A2B92AA875862AE375","0199d6f1-3822-7e03-bb57-a78af1f6c568","0199d6c6-52b5-75b7-8a11-3e0d2849423a","","null","<div style=""display: flex; justify-content: center; align-items: center;"">
                     <img src=""images/causal/causal_series_1/causal_series_1_a.png"" style=""width: 300px; height: 300px;"" />
                   </div>","null","1","1","A","",""
"","","","","","html-keyboard-response","78","419275","0.0-78.0","086CFAC51C8345A2B92AA875862AE375","0199d6f1-3822-7e03-bb57-a78af1f6c568","0199d6c6-52b5-75b7-8a11-3e0d2849423a","","null","<div style=""display: flex; justify-content: center; align-items: center;"">
                     <img src=""images/causal/causal_series_1/causal_series_1_b.png"" style=""width: 300px; height: 300px;"" />
                   </div>","null","1","1","B","",""
"","","","","","html-keyboard-response","79","425277","0.0-79.0","086CFAC51C8345A2B92AA875862AE375","0199d6f1-3822-7e03-bb57-a78af1f6c568","0199d6c6-52b5-75b7-8a11-3e0d2849423a","","null","<div style=""display: flex; justify-content: center; align-items: center;"">
                     <img src=""images/causal/causal_series_1/causal_series_1_c.png"" style=""width: 300px; height: 300px;"" />
                   </div>","null","1","1","C","",""
"","","","","","html-button-response","80","427269","0.0-80.0","086CFAC51C8345A2B92AA875862AE375","0199d6f1-3822-7e03-bb57-a78af1f6c568","0199d6c6-52b5-75b7-8a11-3e0d2849423a","","1991","
        <div style=""display: flex; justify-content: center; align-items: center;"">
          <img src=""images/red_deck_2.png"" style=""width: 300px; height: 300px; margin-right: 10px;"" />
          <img src=""images/blue_deck_1.png"" style=""width: 300px; height: 300px;"" />
        </div>","1","1","1","choice","1",""
"","","","","","html-keyboard-response","81","433271","0.0-81.0-1.0-0.0","086CFAC51C8345A2B92AA875862AE375","0199d6f1-3822-7e03-bb57-a78af1f6c568","0199d6c6-52b5-75b7-8a11-3e0d2849423a","","null","<div style=""display: flex; justify-content: center; align-items: center;"">
                     <img src=""images/semantic/semantic_series_1/semantic_series_1_d.png"" style=""width: 300px; height: 300px;"" />
                   </div>","null","1","1","D","",""
"","","","","","survey-likert","82","437346","0.0-82.0","086CFAC51C8345A2B92AA875862AE375","0199d6f1-3822-7e03-bb57-a78af1f6c568","0199d6c6-52b5-75b7-8a11-3e0d2849423a","","4074","","{""Q0"":4}","1","1","surprise_rating","","[0]"
"","","","","","survey-likert","83","440147","0.0-83.0","086CFAC51C8345A2B92AA875862AE375","0199d6f1-3822-7e03-bb57-a78af1f6c568","0199d6c6-52b5-75b7-8a11-3e0d2849423a","","2800","","{""Q0"":2}","1","1","enjoyment_rating","","[0]"
"","","","","","html-keyboard-response","84","446148","0.0-84.0","086CFAC51C8345A2B92AA875862AE375","0199d6f1-3822-7e03-bb57-a78af1f6c568","0199d6c6-52b5-75b7-8a11-3e0d2849423a","","null","<div style=""display: flex; justify-content: center; align-items: center;"">
                     <img src=""images/other/blank.png"" style=""width: 300px; height: 300px;"" />
                   </div>","null","0","0","blank","",""
"","","","","","survey-text","85","563105","0.0-85.0","086CFAC51C8345A2B92AA875862AE375","0199d6f1-3822-7e03-bb57-a78af1f6c568","0199d6c6-52b5-75b7-8a11-3e0d2849423a","","116941","","{""Q0"":""When choosing the blue deck, the events that take place after the laid out events are supposed to continue the story in a natural way that flows quite well with what has already been said, while the red deck is supposed to abruptly lay out a new event that isn't particularly related to what happened before. ""}","","","","",""
"","","","","","html-button-response","86","566738","0.0-86.0","086CFAC51C8345A2B92AA875862AE375","0199d6f1-3822-7e03-bb57-a78af1f6c568","0199d6c6-52b5-75b7-8a11-3e0d2849423a","","3632","Which color deck do the following sentences continue the story from?","0","","","","",""
"","","","","","html-button-response","87","568391","0.0-87.0","086CFAC51C8345A2B92AA875862AE375","0199d6f1-3822-7e03-bb57-a78af1f6c568","0199d6c6-52b5-75b7-8a11-3e0d2849423a","","1652","Which color deck do the following sentences NOT follow the story from?","1","","","","",""
"","","","","","html-button-response","88","572810","0.0-88.0","086CFAC51C8345A2B92AA875862AE375","0199d6f1-3822-7e03-bb57-a78af1f6c568","0199d6c6-52b5-75b7-8a11-3e0d2849423a","","4418","Which type of deck did you prefer overall?","1","","","","",""
"","","","","","survey-text","89","579713","0.0-89.0","086CFAC51C8345A2B92AA875862AE375","0199d6f1-3822-7e03-bb57-a78af1f6c568","0199d6c6-52b5-75b7-8a11-3e0d2849423a","","6898","","{""Q0"":""MALE"",""Q1"":""26""}","","","","",""
"","","","","","instructions","90","585347","0.0-90.0","086CFAC51C8345A2B92AA875862AE375","0199d6f1-3822-7e03-bb57-a78af1f6c568","0199d6c6-52b5-75b7-8a11-3e0d2849423a","[{""page_index"":0,""viewing_time"":5634}]","5634","","","","","","",""
