"success","timeout","failed_images","failed_audio","failed_video","trial_type","trial_index","time_elapsed","internal_node_id","subject_id","study_id","session_id","view_history","rt","stimulus","response","choice"
"true","false","[]","[]","[]","preload","0","7648","0.0-0.0","E52BBDBACEAD4955B2BFCDF31CC0ACF4","40f8fb53-3644-4389-8590-e6c57c1123ad","683bf07d-1a26-40b1-9cff-5abdc1eed0ee","","","","",""
"","","","","","instructions","1","12752","0.0-1.0","E52BBDBACEAD4955B2BFCDF31CC0ACF4","40f8fb53-3644-4389-8590-e6c57c1123ad","683bf07d-1a26-40b1-9cff-5abdc1eed0ee","[{""page_index"":0,""viewing_time"":5102}]","5102","","",""
"","","","","","instructions","2","16029","0.0-2.0","E52BBDBACEAD4955B2BFCDF31CC0ACF4","40f8fb53-3644-4389-8590-e6c57c1123ad","683bf07d-1a26-40b1-9cff-5abdc1eed0ee","[{""page_index"":0,""viewing_time"":3276}]","3276","","",""
"true","","","","","fullscreen","3","18577","0.0-3.0","E52BBDBACEAD4955B2BFCDF31CC0ACF4","40f8fb53-3644-4389-8590-e6c57c1123ad","683bf07d-1a26-40b1-9cff-5abdc1eed0ee","","1543","","",""
"","","","","","instructions","4","32846","0.0-4.0","E52BBDBACEAD4955B2BFCDF31CC0ACF4","40f8fb53-3644-4389-8590-e6c57c1123ad","683bf07d-1a26-40b1-9cff-5abdc1eed0ee","[{""page_index"":0,""viewing_time"":14269}]","14269","","",""
"","","","","","html-keyboard-response","5","35849","0.0-5.0","E52BBDBACEAD4955B2BFCDF31CC0ACF4","40f8fb53-3644-4389-8590-e6c57c1123ad","683bf07d-1a26-40b1-9cff-5abdc1eed0ee","","null","<div style=""display: flex; justify-content: center; align-items: center;"">
                <img src=""images/causal/causal_series_1/causal_series_1_a.jpg"" style=""width: 300px; height: 300px;"" />
              </div>","null",""
"","","","","","html-keyboard-response","6","38852","0.0-6.0","E52BBDBACEAD4955B2BFCDF31CC0ACF4","40f8fb53-3644-4389-8590-e6c57c1123ad","683bf07d-1a26-40b1-9cff-5abdc1eed0ee","","null","<div style=""display: flex; justify-content: center; align-items: center;"">
                <img src=""images/causal/causal_series_1/causal_series_1_b.jpg"" style=""width: 300px; height: 300px;"" />
              </div>","null",""
"","","","","","html-keyboard-response","7","41855","0.0-7.0","E52BBDBACEAD4955B2BFCDF31CC0ACF4","40f8fb53-3644-4389-8590-e6c57c1123ad","683bf07d-1a26-40b1-9cff-5abdc1eed0ee","","null","<div style=""display: flex; justify-content: center; align-items: center;"">
                <img src=""images/causal/causal_series_1/causal_series_1_c.jpg"" style=""width: 300px; height: 300px;"" />
              </div>","null",""
"","","","","","html-button-response","8","44985","0.0-8.0","E52BBDBACEAD4955B2BFCDF31CC0ACF4","40f8fb53-3644-4389-8590-e6c57c1123ad","683bf07d-1a26-40b1-9cff-5abdc1eed0ee","","3129","
    <div style=""display: flex; justify-content: center; align-items: center;"">
      <img src=""images/red_deck_2.png"" style=""width: 300px; height: 300px; margin-right: 10px;"" />
      <img src=""images/blue_deck_1.png"" style=""width: 300px; height: 300px;"" />
    </div>","1","1"
"","","","","","html-keyboard-response","9","47988","0.0-9.0-1.0-0.0","E52BBDBACEAD4955B2BFCDF31CC0ACF4","40f8fb53-3644-4389-8590-e6c57c1123ad","683bf07d-1a26-40b1-9cff-5abdc1eed0ee","","null","<div style=""display: flex; justify-content: center; align-items: center;"">
                <img src=""images/semantic/semantic_series_18/semantic_series_18_d.jpg"" style=""width: 300px; height: 300px;"" />
              </div>","null",""
"","","","","","html-keyboard-response","10","50991","0.0-10.0","E52BBDBACEAD4955B2BFCDF31CC0ACF4","40f8fb53-3644-4389-8590-e6c57c1123ad","683bf07d-1a26-40b1-9cff-5abdc1eed0ee","","null","<div style=""display: flex; justify-content: center; align-items: center;"">
                <img src=""images/other/blank.jpg"" style=""width: 300px; height: 300px;"" />
              </div>","null",""
"","","","","","html-keyboard-response","11","53993","0.0-11.0","E52BBDBACEAD4955B2BFCDF31CC0ACF4","40f8fb53-3644-4389-8590-e6c57c1123ad","683bf07d-1a26-40b1-9cff-5abdc1eed0ee","","null","<div style=""display: flex; justify-content: center; align-items: center;"">
                <img src=""images/causal/causal_series_15/causal_series_15_a.jpg"" style=""width: 300px; height: 300px;"" />
              </div>","null",""
"","","","","","html-keyboard-response","12","56996","0.0-12.0","E52BBDBACEAD4955B2BFCDF31CC0ACF4","40f8fb53-3644-4389-8590-e6c57c1123ad","683bf07d-1a26-40b1-9cff-5abdc1eed0ee","","null","<div style=""display: flex; justify-content: center; align-items: center;"">
                <img src=""images/causal/causal_series_15/causal_series_15_b.jpg"" style=""width: 300px; height: 300px;"" />
              </div>","null",""
"","","","","","html-keyboard-response","13","59999","0.0-13.0","E52BBDBACEAD4955B2BFCDF31CC0ACF4","40f8fb53-3644-4389-8590-e6c57c1123ad","683bf07d-1a26-40b1-9cff-5abdc1eed0ee","","null","<div style=""display: flex; justify-content: center; align-items: center;"">
                <img src=""images/causal/causal_series_15/causal_series_15_c.jpg"" style=""width: 300px; height: 300px;"" />
              </div>","null",""
"","","","","","html-button-response","14","61978","0.0-14.0","E52BBDBACEAD4955B2BFCDF31CC0ACF4","40f8fb53-3644-4389-8590-e6c57c1123ad","683bf07d-1a26-40b1-9cff-5abdc1eed0ee","","1977","
    <div style=""display: flex; justify-content: center; align-items: center;"">
      <img src=""images/red_deck_2.png"" style=""width: 300px; height: 300px; margin-right: 10px;"" />
      <img src=""images/blue_deck_1.png"" style=""width: 300px; height: 300px;"" />
    </div>","0","0"
"","","","","","html-keyboard-response","15","64981","0.0-15.0-0.0-0.0","E52BBDBACEAD4955B2BFCDF31CC0ACF4","40f8fb53-3644-4389-8590-e6c57c1123ad","683bf07d-1a26-40b1-9cff-5abdc1eed0ee","","null","<div style=""display: flex; justify-content: center; align-items: center;"">
                <img src=""images/causal/causal_series_15/causal_series_15_d.jpg"" style=""width: 300px; height: 300px;"" />
              </div>","null",""
"","","","","","html-keyboard-response","16","67983","0.0-16.0","E52BBDBACEAD4955B2BFCDF31CC0ACF4","40f8fb53-3644-4389-8590-e6c57c1123ad","683bf07d-1a26-40b1-9cff-5abdc1eed0ee","","null","<div style=""display: flex; justify-content: center; align-items: center;"">
                <img src=""images/other/blank.jpg"" style=""width: 300px; height: 300px;"" />
              </div>","null",""
"","","","","","html-keyboard-response","17","70986","0.0-17.0","E52BBDBACEAD4955B2BFCDF31CC0ACF4","40f8fb53-3644-4389-8590-e6c57c1123ad","683bf07d-1a26-40b1-9cff-5abdc1eed0ee","","null","<div style=""display: flex; justify-content: center; align-items: center;"">
                <img src=""images/causal/causal_series_16/causal_series_16_a.jpg"" style=""width: 300px; height: 300px;"" />
              </div>","null",""
"","","","","","html-keyboard-response","18","73988","0.0-18.0","E52BBDBACEAD4955B2BFCDF31CC0ACF4","40f8fb53-3644-4389-8590-e6c57c1123ad","683bf07d-1a26-40b1-9cff-5abdc1eed0ee","","null","<div style=""display: flex; justify-content: center; align-items: center;"">
                <img src=""images/causal/causal_series_16/causal_series_16_b.jpg"" style=""width: 300px; height: 300px;"" />
              </div>","null",""
"","","","","","html-keyboard-response","19","76990","0.0-19.0","E52BBDBACEAD4955B2BFCDF31CC0ACF4","40f8fb53-3644-4389-8590-e6c57c1123ad","683bf07d-1a26-40b1-9cff-5abdc1eed0ee","","null","<div style=""display: flex; justify-content: center; align-items: center;"">
                <img src=""images/causal/causal_series_16/causal_series_16_c.jpg"" style=""width: 300px; height: 300px;"" />
              </div>","null",""
"","","","","","html-button-response","20","77752","0.0-20.0","E52BBDBACEAD4955B2BFCDF31CC0ACF4","40f8fb53-3644-4389-8590-e6c57c1123ad","683bf07d-1a26-40b1-9cff-5abdc1eed0ee","","760","
    <div style=""display: flex; justify-content: center; align-items: center;"">
      <img src=""images/red_deck_2.png"" style=""width: 300px; height: 300px; margin-right: 10px;"" />
      <img src=""images/blue_deck_1.png"" style=""width: 300px; height: 300px;"" />
    </div>","1","1"
"","","","","","html-keyboard-response","21","80754","0.0-21.0-1.0-0.0","E52BBDBACEAD4955B2BFCDF31CC0ACF4","40f8fb53-3644-4389-8590-e6c57c1123ad","683bf07d-1a26-40b1-9cff-5abdc1eed0ee","","null","<div style=""display: flex; justify-content: center; align-items: center;"">
                <img src=""images/semantic/semantic_series_15/semantic_series_15_d.jpg"" style=""width: 300px; height: 300px;"" />
              </div>","null",""
"","","","","","html-keyboard-response","22","83757","0.0-22.0","E52BBDBACEAD4955B2BFCDF31CC0ACF4","40f8fb53-3644-4389-8590-e6c57c1123ad","683bf07d-1a26-40b1-9cff-5abdc1eed0ee","","null","<div style=""display: flex; justify-content: center; align-items: center;"">
                <img src=""images/other/blank.jpg"" style=""width: 300px; height: 300px;"" />
              </div>","null",""
"","","","","","html-keyboard-response","23","86760","0.0-23.0","E52BBDBACEAD4955B2BFCDF31CC0ACF4","40f8fb53-3644-4389-8590-e6c57c1123ad","683bf07d-1a26-40b1-9cff-5abdc1eed0ee","","null","<div style=""display: flex; justify-content: center; align-items: center;"">
                <img src=""images/causal/causal_series_14/causal_series_14_a.jpg"" style=""width: 300px; height: 300px;"" />
              </div>","null",""
"","","","","","html-keyboard-response","24","89762","0.0-24.0","E52BBDBACEAD4955B2BFCDF31CC0ACF4","40f8fb53-3644-4389-8590-e6c57c1123ad","683bf07d-1a26-40b1-9cff-5abdc1eed0ee","","null","<div style=""display: flex; justify-content: center; align-items: center;"">
                <img src=""images/causal/causal_series_14/causal_series_14_b.jpg"" style=""width: 300px; height: 300px;"" />
              </div>","null",""
"","","","","","html-keyboard-response","25","92765","0.0-25.0","E52BBDBACEAD4955B2BFCDF31CC0ACF4","40f8fb53-3644-4389-8590-e6c57c1123ad","683bf07d-1a26-40b1-9cff-5abdc1eed0ee","","null","<div style=""display: flex; justify-content: center; align-items: center;"">
                <img src=""images/causal/causal_series_14/causal_series_14_c.jpg"" style=""width: 300px; height: 300px;"" />
              </div>","null",""
"","","","","","html-button-response","26","94335","0.0-26.0","E52BBDBACEAD4955B2BFCDF31CC0ACF4","40f8fb53-3644-4389-8590-e6c57c1123ad","683bf07d-1a26-40b1-9cff-5abdc1eed0ee","","1569","
    <div style=""display: flex; justify-content: center; align-items: center;"">
      <img src=""images/red_deck_2.png"" style=""width: 300px; height: 300px; margin-right: 10px;"" />
      <img src=""images/blue_deck_1.png"" style=""width: 300px; height: 300px;"" />
    </div>","0","0"
"","","","","","html-keyboard-response","27","97338","0.0-27.0-0.0-0.0","E52BBDBACEAD4955B2BFCDF31CC0ACF4","40f8fb53-3644-4389-8590-e6c57c1123ad","683bf07d-1a26-40b1-9cff-5abdc1eed0ee","","null","<div style=""display: flex; justify-content: center; align-items: center;"">
                <img src=""images/causal/causal_series_14/causal_series_14_d.jpg"" style=""width: 300px; height: 300px;"" />
              </div>","null",""
"","","","","","html-keyboard-response","28","100341","0.0-28.0","E52BBDBACEAD4955B2BFCDF31CC0ACF4","40f8fb53-3644-4389-8590-e6c57c1123ad","683bf07d-1a26-40b1-9cff-5abdc1eed0ee","","null","<div style=""display: flex; justify-content: center; align-items: center;"">
                <img src=""images/other/blank.jpg"" style=""width: 300px; height: 300px;"" />
              </div>","null",""
"","","","","","html-keyboard-response","29","103344","0.0-29.0","E52BBDBACEAD4955B2BFCDF31CC0ACF4","40f8fb53-3644-4389-8590-e6c57c1123ad","683bf07d-1a26-40b1-9cff-5abdc1eed0ee","","null","<div style=""display: flex; justify-content: center; align-items: center;"">
                <img src=""images/causal/causal_series_7/causal_series_7_a.jpg"" style=""width: 300px; height: 300px;"" />
              </div>","null",""
"","","","","","html-keyboard-response","30","106346","0.0-30.0","E52BBDBACEAD4955B2BFCDF31CC0ACF4","40f8fb53-3644-4389-8590-e6c57c1123ad","683bf07d-1a26-40b1-9cff-5abdc1eed0ee","","null","<div style=""display: flex; justify-content: center; align-items: center;"">
                <img src=""images/causal/causal_series_7/causal_series_7_b.jpg"" style=""width: 300px; height: 300px;"" />
              </div>","null",""
"","","","","","html-keyboard-response","31","109348","0.0-31.0","E52BBDBACEAD4955B2BFCDF31CC0ACF4","40f8fb53-3644-4389-8590-e6c57c1123ad","683bf07d-1a26-40b1-9cff-5abdc1eed0ee","","null","<div style=""display: flex; justify-content: center; align-items: center;"">
                <img src=""images/causal/causal_series_7/causal_series_7_c.jpg"" style=""width: 300px; height: 300px;"" />
              </div>","null",""
"","","","","","html-button-response","32","110609","0.0-32.0","E52BBDBACEAD4955B2BFCDF31CC0ACF4","40f8fb53-3644-4389-8590-e6c57c1123ad","683bf07d-1a26-40b1-9cff-5abdc1eed0ee","","1259","
    <div style=""display: flex; justify-content: center; align-items: center;"">
      <img src=""images/red_deck_2.png"" style=""width: 300px; height: 300px; margin-right: 10px;"" />
      <img src=""images/blue_deck_1.png"" style=""width: 300px; height: 300px;"" />
    </div>","1","1"
"","","","","","html-keyboard-response","33","113612","0.0-33.0-1.0-0.0","E52BBDBACEAD4955B2BFCDF31CC0ACF4","40f8fb53-3644-4389-8590-e6c57c1123ad","683bf07d-1a26-40b1-9cff-5abdc1eed0ee","","null","<div style=""display: flex; justify-content: center; align-items: center;"">
                <img src=""images/semantic/semantic_series_6/semantic_series_6_d.jpg"" style=""width: 300px; height: 300px;"" />
              </div>","null",""
"","","","","","html-keyboard-response","34","116614","0.0-34.0","E52BBDBACEAD4955B2BFCDF31CC0ACF4","40f8fb53-3644-4389-8590-e6c57c1123ad","683bf07d-1a26-40b1-9cff-5abdc1eed0ee","","null","<div style=""display: flex; justify-content: center; align-items: center;"">
                <img src=""images/other/blank.jpg"" style=""width: 300px; height: 300px;"" />
              </div>","null",""
"","","","","","html-keyboard-response","35","119616","0.0-35.0","E52BBDBACEAD4955B2BFCDF31CC0ACF4","40f8fb53-3644-4389-8590-e6c57c1123ad","683bf07d-1a26-40b1-9cff-5abdc1eed0ee","","null","<div style=""display: flex; justify-content: center; align-items: center;"">
                <img src=""images/causal/causal_series_12/causal_series_12_a.jpg"" style=""width: 300px; height: 300px;"" />
              </div>","null",""
"","","","","","html-keyboard-response","36","122619","0.0-36.0","E52BBDBACEAD4955B2BFCDF31CC0ACF4","40f8fb53-3644-4389-8590-e6c57c1123ad","683bf07d-1a26-40b1-9cff-5abdc1eed0ee","","null","<div style=""display: flex; justify-content: center; align-items: center;"">
                <img src=""images/causal/causal_series_12/causal_series_12_b.jpg"" style=""width: 300px; height: 300px;"" />
              </div>","null",""
"","","","","","html-keyboard-response","37","125621","0.0-37.0","E52BBDBACEAD4955B2BFCDF31CC0ACF4","40f8fb53-3644-4389-8590-e6c57c1123ad","683bf07d-1a26-40b1-9cff-5abdc1eed0ee","","null","<div style=""display: flex; justify-content: center; align-items: center;"">
                <img src=""images/causal/causal_series_12/causal_series_12_c.jpg"" style=""width: 300px; height: 300px;"" />
              </div>","null",""
"","","","","","html-button-response","38","126796","0.0-38.0","E52BBDBACEAD4955B2BFCDF31CC0ACF4","40f8fb53-3644-4389-8590-e6c57c1123ad","683bf07d-1a26-40b1-9cff-5abdc1eed0ee","","1174","
    <div style=""display: flex; justify-content: center; align-items: center;"">
      <img src=""images/red_deck_2.png"" style=""width: 300px; height: 300px; margin-right: 10px;"" />
      <img src=""images/blue_deck_1.png"" style=""width: 300px; height: 300px;"" />
    </div>","1","1"
"","","","","","html-keyboard-response","39","129799","0.0-39.0-1.0-0.0","E52BBDBACEAD4955B2BFCDF31CC0ACF4","40f8fb53-3644-4389-8590-e6c57c1123ad","683bf07d-1a26-40b1-9cff-5abdc1eed0ee","","null","<div style=""display: flex; justify-content: center; align-items: center;"">
                <img src=""images/semantic/semantic_series_11/semantic_series_11_d.jpg"" style=""width: 300px; height: 300px;"" />
              </div>","null",""
"","","","","","html-keyboard-response","40","132801","0.0-40.0","E52BBDBACEAD4955B2BFCDF31CC0ACF4","40f8fb53-3644-4389-8590-e6c57c1123ad","683bf07d-1a26-40b1-9cff-5abdc1eed0ee","","null","<div style=""display: flex; justify-content: center; align-items: center;"">
                <img src=""images/other/blank.jpg"" style=""width: 300px; height: 300px;"" />
              </div>","null",""
"","","","","","html-keyboard-response","41","135803","0.0-41.0","E52BBDBACEAD4955B2BFCDF31CC0ACF4","40f8fb53-3644-4389-8590-e6c57c1123ad","683bf07d-1a26-40b1-9cff-5abdc1eed0ee","","null","<div style=""display: flex; justify-content: center; align-items: center;"">
                <img src=""images/causal/causal_series_3/causal_series_3_a.jpg"" style=""width: 300px; height: 300px;"" />
              </div>","null",""
"","","","","","html-keyboard-response","42","138806","0.0-42.0","E52BBDBACEAD4955B2BFCDF31CC0ACF4","40f8fb53-3644-4389-8590-e6c57c1123ad","683bf07d-1a26-40b1-9cff-5abdc1eed0ee","","null","<div style=""display: flex; justify-content: center; align-items: center;"">
                <img src=""images/causal/causal_series_3/causal_series_3_b.jpg"" style=""width: 300px; height: 300px;"" />
              </div>","null",""
"","","","","","html-keyboard-response","43","141808","0.0-43.0","E52BBDBACEAD4955B2BFCDF31CC0ACF4","40f8fb53-3644-4389-8590-e6c57c1123ad","683bf07d-1a26-40b1-9cff-5abdc1eed0ee","","null","<div style=""display: flex; justify-content: center; align-items: center;"">
                <img src=""images/causal/causal_series_3/causal_series_3_c.jpg"" style=""width: 300px; height: 300px;"" />
              </div>","null",""
"","","","","","html-button-response","44","142552","0.0-44.0","E52BBDBACEAD4955B2BFCDF31CC0ACF4","40f8fb53-3644-4389-8590-e6c57c1123ad","683bf07d-1a26-40b1-9cff-5abdc1eed0ee","","743","
    <div style=""display: flex; justify-content: center; align-items: center;"">
      <img src=""images/red_deck_2.png"" style=""width: 300px; height: 300px; margin-right: 10px;"" />
      <img src=""images/blue_deck_1.png"" style=""width: 300px; height: 300px;"" />
    </div>","1","1"
"","","","","","html-keyboard-response","45","145555","0.0-45.0-1.0-0.0","E52BBDBACEAD4955B2BFCDF31CC0ACF4","40f8fb53-3644-4389-8590-e6c57c1123ad","683bf07d-1a26-40b1-9cff-5abdc1eed0ee","","null","<div style=""display: flex; justify-content: center; align-items: center;"">
                <img src=""images/semantic/semantic_series_2/semantic_series_2_d.jpg"" style=""width: 300px; height: 300px;"" />
              </div>","null",""
"","","","","","html-keyboard-response","46","148557","0.0-46.0","E52BBDBACEAD4955B2BFCDF31CC0ACF4","40f8fb53-3644-4389-8590-e6c57c1123ad","683bf07d-1a26-40b1-9cff-5abdc1eed0ee","","null","<div style=""display: flex; justify-content: center; align-items: center;"">
                <img src=""images/other/blank.jpg"" style=""width: 300px; height: 300px;"" />
              </div>","null",""
"","","","","","html-keyboard-response","47","151559","0.0-47.0","E52BBDBACEAD4955B2BFCDF31CC0ACF4","40f8fb53-3644-4389-8590-e6c57c1123ad","683bf07d-1a26-40b1-9cff-5abdc1eed0ee","","null","<div style=""display: flex; justify-content: center; align-items: center;"">
                <img src=""images/causal/causal_series_4/causal_series_4_a.jpg"" style=""width: 300px; height: 300px;"" />
              </div>","null",""
"","","","","","html-keyboard-response","48","154562","0.0-48.0","E52BBDBACEAD4955B2BFCDF31CC0ACF4","40f8fb53-3644-4389-8590-e6c57c1123ad","683bf07d-1a26-40b1-9cff-5abdc1eed0ee","","null","<div style=""display: flex; justify-content: center; align-items: center;"">
                <img src=""images/causal/causal_series_4/causal_series_4_b.jpg"" style=""width: 300px; height: 300px;"" />
              </div>","null",""
"","","","","","html-keyboard-response","49","157564","0.0-49.0","E52BBDBACEAD4955B2BFCDF31CC0ACF4","40f8fb53-3644-4389-8590-e6c57c1123ad","683bf07d-1a26-40b1-9cff-5abdc1eed0ee","","null","<div style=""display: flex; justify-content: center; align-items: center;"">
                <img src=""images/causal/causal_series_4/causal_series_4_c.jpg"" style=""width: 300px; height: 300px;"" />
              </div>","null",""
"","","","","","html-button-response","50","158671","0.0-50.0","E52BBDBACEAD4955B2BFCDF31CC0ACF4","40f8fb53-3644-4389-8590-e6c57c1123ad","683bf07d-1a26-40b1-9cff-5abdc1eed0ee","","1106","
    <div style=""display: flex; justify-content: center; align-items: center;"">
      <img src=""images/red_deck_2.png"" style=""width: 300px; height: 300px; margin-right: 10px;"" />
      <img src=""images/blue_deck_1.png"" style=""width: 300px; height: 300px;"" />
    </div>","0","0"
"","","","","","html-keyboard-response","51","161675","0.0-51.0-0.0-0.0","E52BBDBACEAD4955B2BFCDF31CC0ACF4","40f8fb53-3644-4389-8590-e6c57c1123ad","683bf07d-1a26-40b1-9cff-5abdc1eed0ee","","null","<div style=""display: flex; justify-content: center; align-items: center;"">
                <img src=""images/causal/causal_series_4/causal_series_4_d.jpg"" style=""width: 300px; height: 300px;"" />
              </div>","null",""
"","","","","","html-keyboard-response","52","164677","0.0-52.0","E52BBDBACEAD4955B2BFCDF31CC0ACF4","40f8fb53-3644-4389-8590-e6c57c1123ad","683bf07d-1a26-40b1-9cff-5abdc1eed0ee","","null","<div style=""display: flex; justify-content: center; align-items: center;"">
                <img src=""images/other/blank.jpg"" style=""width: 300px; height: 300px;"" />
              </div>","null",""
"","","","","","html-keyboard-response","53","167679","0.0-53.0","E52BBDBACEAD4955B2BFCDF31CC0ACF4","40f8fb53-3644-4389-8590-e6c57c1123ad","683bf07d-1a26-40b1-9cff-5abdc1eed0ee","","null","<div style=""display: flex; justify-content: center; align-items: center;"">
                <img src=""images/causal/causal_series_13/causal_series_13_a.jpg"" style=""width: 300px; height: 300px;"" />
              </div>","null",""
"","","","","","html-keyboard-response","54","170681","0.0-54.0","E52BBDBACEAD4955B2BFCDF31CC0ACF4","40f8fb53-3644-4389-8590-e6c57c1123ad","683bf07d-1a26-40b1-9cff-5abdc1eed0ee","","null","<div style=""display: flex; justify-content: center; align-items: center;"">
                <img src=""images/causal/causal_series_13/causal_series_13_b.jpg"" style=""width: 300px; height: 300px;"" />
              </div>","null",""
"","","","","","html-keyboard-response","55","173684","0.0-55.0","E52BBDBACEAD4955B2BFCDF31CC0ACF4","40f8fb53-3644-4389-8590-e6c57c1123ad","683bf07d-1a26-40b1-9cff-5abdc1eed0ee","","null","<div style=""display: flex; justify-content: center; align-items: center;"">
                <img src=""images/causal/causal_series_13/causal_series_13_c.jpg"" style=""width: 300px; height: 300px;"" />
              </div>","null",""
"","","","","","html-button-response","56","174612","0.0-56.0","E52BBDBACEAD4955B2BFCDF31CC0ACF4","40f8fb53-3644-4389-8590-e6c57c1123ad","683bf07d-1a26-40b1-9cff-5abdc1eed0ee","","927","
    <div style=""display: flex; justify-content: center; align-items: center;"">
      <img src=""images/red_deck_2.png"" style=""width: 300px; height: 300px; margin-right: 10px;"" />
      <img src=""images/blue_deck_1.png"" style=""width: 300px; height: 300px;"" />
    </div>","1","1"
"","","","","","html-keyboard-response","57","177615","0.0-57.0-1.0-0.0","E52BBDBACEAD4955B2BFCDF31CC0ACF4","40f8fb53-3644-4389-8590-e6c57c1123ad","683bf07d-1a26-40b1-9cff-5abdc1eed0ee","","null","<div style=""display: flex; justify-content: center; align-items: center;"">
                <img src=""images/semantic/semantic_series_12/semantic_series_12_d.jpg"" style=""width: 300px; height: 300px;"" />
              </div>","null",""
"","","","","","html-keyboard-response","58","180617","0.0-58.0","E52BBDBACEAD4955B2BFCDF31CC0ACF4","40f8fb53-3644-4389-8590-e6c57c1123ad","683bf07d-1a26-40b1-9cff-5abdc1eed0ee","","null","<div style=""display: flex; justify-content: center; align-items: center;"">
                <img src=""images/other/blank.jpg"" style=""width: 300px; height: 300px;"" />
              </div>","null",""
"","","","","","html-keyboard-response","59","183619","0.0-59.0","E52BBDBACEAD4955B2BFCDF31CC0ACF4","40f8fb53-3644-4389-8590-e6c57c1123ad","683bf07d-1a26-40b1-9cff-5abdc1eed0ee","","null","<div style=""display: flex; justify-content: center; align-items: center;"">
                <img src=""images/causal/causal_series_6/causal_series_6_a.jpg"" style=""width: 300px; height: 300px;"" />
              </div>","null",""
"","","","","","html-keyboard-response","60","186622","0.0-60.0","E52BBDBACEAD4955B2BFCDF31CC0ACF4","40f8fb53-3644-4389-8590-e6c57c1123ad","683bf07d-1a26-40b1-9cff-5abdc1eed0ee","","null","<div style=""display: flex; justify-content: center; align-items: center;"">
                <img src=""images/causal/causal_series_6/causal_series_6_b.jpg"" style=""width: 300px; height: 300px;"" />
              </div>","null",""
"","","","","","html-keyboard-response","61","189624","0.0-61.0","E52BBDBACEAD4955B2BFCDF31CC0ACF4","40f8fb53-3644-4389-8590-e6c57c1123ad","683bf07d-1a26-40b1-9cff-5abdc1eed0ee","","null","<div style=""display: flex; justify-content: center; align-items: center;"">
                <img src=""images/causal/causal_series_6/causal_series_6_c.jpg"" style=""width: 300px; height: 300px;"" />
              </div>","null",""
"","","","","","html-button-response","62","190101","0.0-62.0","E52BBDBACEAD4955B2BFCDF31CC0ACF4","40f8fb53-3644-4389-8590-e6c57c1123ad","683bf07d-1a26-40b1-9cff-5abdc1eed0ee","","476","
    <div style=""display: flex; justify-content: center; align-items: center;"">
      <img src=""images/red_deck_2.png"" style=""width: 300px; height: 300px; margin-right: 10px;"" />
      <img src=""images/blue_deck_1.png"" style=""width: 300px; height: 300px;"" />
    </div>","1","1"
"","","","","","html-keyboard-response","63","193103","0.0-63.0-1.0-0.0","E52BBDBACEAD4955B2BFCDF31CC0ACF4","40f8fb53-3644-4389-8590-e6c57c1123ad","683bf07d-1a26-40b1-9cff-5abdc1eed0ee","","null","<div style=""display: flex; justify-content: center; align-items: center;"">
                <img src=""images/semantic/semantic_series_5/semantic_series_5_d.jpg"" style=""width: 300px; height: 300px;"" />
              </div>","null",""
"","","","","","html-keyboard-response","64","196106","0.0-64.0","E52BBDBACEAD4955B2BFCDF31CC0ACF4","40f8fb53-3644-4389-8590-e6c57c1123ad","683bf07d-1a26-40b1-9cff-5abdc1eed0ee","","null","<div style=""display: flex; justify-content: center; align-items: center;"">
                <img src=""images/other/blank.jpg"" style=""width: 300px; height: 300px;"" />
              </div>","null",""
"","","","","","html-keyboard-response","65","199108","0.0-65.0","E52BBDBACEAD4955B2BFCDF31CC0ACF4","40f8fb53-3644-4389-8590-e6c57c1123ad","683bf07d-1a26-40b1-9cff-5abdc1eed0ee","","null","<div style=""display: flex; justify-content: center; align-items: center;"">
                <img src=""images/causal/causal_series_8/causal_series_8_a.jpg"" style=""width: 300px; height: 300px;"" />
              </div>","null",""
"","","","","","html-keyboard-response","66","202111","0.0-66.0","E52BBDBACEAD4955B2BFCDF31CC0ACF4","40f8fb53-3644-4389-8590-e6c57c1123ad","683bf07d-1a26-40b1-9cff-5abdc1eed0ee","","null","<div style=""display: flex; justify-content: center; align-items: center;"">
                <img src=""images/causal/causal_series_8/causal_series_8_b.jpg"" style=""width: 300px; height: 300px;"" />
              </div>","null",""
"","","","","","html-keyboard-response","67","205113","0.0-67.0","E52BBDBACEAD4955B2BFCDF31CC0ACF4","40f8fb53-3644-4389-8590-e6c57c1123ad","683bf07d-1a26-40b1-9cff-5abdc1eed0ee","","null","<div style=""display: flex; justify-content: center; align-items: center;"">
                <img src=""images/causal/causal_series_8/causal_series_8_c.jpg"" style=""width: 300px; height: 300px;"" />
              </div>","null",""
"","","","","","html-button-response","68","205637","0.0-68.0","E52BBDBACEAD4955B2BFCDF31CC0ACF4","40f8fb53-3644-4389-8590-e6c57c1123ad","683bf07d-1a26-40b1-9cff-5abdc1eed0ee","","524","
    <div style=""display: flex; justify-content: center; align-items: center;"">
      <img src=""images/red_deck_2.png"" style=""width: 300px; height: 300px; margin-right: 10px;"" />
      <img src=""images/blue_deck_1.png"" style=""width: 300px; height: 300px;"" />
    </div>","1","1"
"","","","","","html-keyboard-response","69","208640","0.0-69.0-1.0-0.0","E52BBDBACEAD4955B2BFCDF31CC0ACF4","40f8fb53-3644-4389-8590-e6c57c1123ad","683bf07d-1a26-40b1-9cff-5abdc1eed0ee","","null","<div style=""display: flex; justify-content: center; align-items: center;"">
                <img src=""images/semantic/semantic_series_7/semantic_series_7_d.jpg"" style=""width: 300px; height: 300px;"" />
              </div>","null",""
"","","","","","html-keyboard-response","70","211642","0.0-70.0","E52BBDBACEAD4955B2BFCDF31CC0ACF4","40f8fb53-3644-4389-8590-e6c57c1123ad","683bf07d-1a26-40b1-9cff-5abdc1eed0ee","","null","<div style=""display: flex; justify-content: center; align-items: center;"">
                <img src=""images/other/blank.jpg"" style=""width: 300px; height: 300px;"" />
              </div>","null",""
"","","","","","html-keyboard-response","71","214645","0.0-71.0","E52BBDBACEAD4955B2BFCDF31CC0ACF4","40f8fb53-3644-4389-8590-e6c57c1123ad","683bf07d-1a26-40b1-9cff-5abdc1eed0ee","","null","<div style=""display: flex; justify-content: center; align-items: center;"">
                <img src=""images/causal/causal_series_17/causal_series_17_a.jpg"" style=""width: 300px; height: 300px;"" />
              </div>","null",""
"","","","","","html-keyboard-response","72","217647","0.0-72.0","E52BBDBACEAD4955B2BFCDF31CC0ACF4","40f8fb53-3644-4389-8590-e6c57c1123ad","683bf07d-1a26-40b1-9cff-5abdc1eed0ee","","null","<div style=""display: flex; justify-content: center; align-items: center;"">
                <img src=""images/causal/causal_series_17/causal_series_17_b.jpg"" style=""width: 300px; height: 300px;"" />
              </div>","null",""
"","","","","","html-keyboard-response","73","220649","0.0-73.0","E52BBDBACEAD4955B2BFCDF31CC0ACF4","40f8fb53-3644-4389-8590-e6c57c1123ad","683bf07d-1a26-40b1-9cff-5abdc1eed0ee","","null","<div style=""display: flex; justify-content: center; align-items: center;"">
                <img src=""images/causal/causal_series_17/causal_series_17_c.jpg"" style=""width: 300px; height: 300px;"" />
              </div>","null",""
"","","","","","html-button-response","74","221186","0.0-74.0","E52BBDBACEAD4955B2BFCDF31CC0ACF4","40f8fb53-3644-4389-8590-e6c57c1123ad","683bf07d-1a26-40b1-9cff-5abdc1eed0ee","","536","
    <div style=""display: flex; justify-content: center; align-items: center;"">
      <img src=""images/red_deck_2.png"" style=""width: 300px; height: 300px; margin-right: 10px;"" />
      <img src=""images/blue_deck_1.png"" style=""width: 300px; height: 300px;"" />
    </div>","0","0"
"","","","","","html-keyboard-response","75","224188","0.0-75.0-0.0-0.0","E52BBDBACEAD4955B2BFCDF31CC0ACF4","40f8fb53-3644-4389-8590-e6c57c1123ad","683bf07d-1a26-40b1-9cff-5abdc1eed0ee","","null","<div style=""display: flex; justify-content: center; align-items: center;"">
                <img src=""images/causal/causal_series_17/causal_series_17_d.jpg"" style=""width: 300px; height: 300px;"" />
              </div>","null",""
"","","","","","html-keyboard-response","76","227190","0.0-76.0","E52BBDBACEAD4955B2BFCDF31CC0ACF4","40f8fb53-3644-4389-8590-e6c57c1123ad","683bf07d-1a26-40b1-9cff-5abdc1eed0ee","","null","<div style=""display: flex; justify-content: center; align-items: center;"">
                <img src=""images/other/blank.jpg"" style=""width: 300px; height: 300px;"" />
              </div>","null",""
"","","","","","html-keyboard-response","77","230193","0.0-77.0","E52BBDBACEAD4955B2BFCDF31CC0ACF4","40f8fb53-3644-4389-8590-e6c57c1123ad","683bf07d-1a26-40b1-9cff-5abdc1eed0ee","","null","<div style=""display: flex; justify-content: center; align-items: center;"">
                <img src=""images/causal/causal_series_2/causal_series_2_a.jpg"" style=""width: 300px; height: 300px;"" />
              </div>","null",""
"","","","","","html-keyboard-response","78","233195","0.0-78.0","E52BBDBACEAD4955B2BFCDF31CC0ACF4","40f8fb53-3644-4389-8590-e6c57c1123ad","683bf07d-1a26-40b1-9cff-5abdc1eed0ee","","null","<div style=""display: flex; justify-content: center; align-items: center;"">
                <img src=""images/causal/causal_series_2/causal_series_2_b.jpg"" style=""width: 300px; height: 300px;"" />
              </div>","null",""
"","","","","","html-keyboard-response","79","236196","0.0-79.0","E52BBDBACEAD4955B2BFCDF31CC0ACF4","40f8fb53-3644-4389-8590-e6c57c1123ad","683bf07d-1a26-40b1-9cff-5abdc1eed0ee","","null","<div style=""display: flex; justify-content: center; align-items: center;"">
                <img src=""images/causal/causal_series_2/causal_series_2_c.jpg"" style=""width: 300px; height: 300px;"" />
              </div>","null",""
"","","","","","html-button-response","80","237205","0.0-80.0","E52BBDBACEAD4955B2BFCDF31CC0ACF4","40f8fb53-3644-4389-8590-e6c57c1123ad","683bf07d-1a26-40b1-9cff-5abdc1eed0ee","","1008","
    <div style=""display: flex; justify-content: center; align-items: center;"">
      <img src=""images/red_deck_2.png"" style=""width: 300px; height: 300px; margin-right: 10px;"" />
      <img src=""images/blue_deck_1.png"" style=""width: 300px; height: 300px;"" />
    </div>","1","1"
"","","","","","html-keyboard-response","81","240208","0.0-81.0-1.0-0.0","E52BBDBACEAD4955B2BFCDF31CC0ACF4","40f8fb53-3644-4389-8590-e6c57c1123ad","683bf07d-1a26-40b1-9cff-5abdc1eed0ee","","null","<div style=""display: flex; justify-content: center; align-items: center;"">
                <img src=""images/semantic/semantic_series_1/semantic_series_1_d.jpg"" style=""width: 300px; height: 300px;"" />
              </div>","null",""
"","","","","","html-keyboard-response","82","243210","0.0-82.0","E52BBDBACEAD4955B2BFCDF31CC0ACF4","40f8fb53-3644-4389-8590-e6c57c1123ad","683bf07d-1a26-40b1-9cff-5abdc1eed0ee","","null","<div style=""display: flex; justify-content: center; align-items: center;"">
                <img src=""images/other/blank.jpg"" style=""width: 300px; height: 300px;"" />
              </div>","null",""
"","","","","","html-keyboard-response","83","246212","0.0-83.0","E52BBDBACEAD4955B2BFCDF31CC0ACF4","40f8fb53-3644-4389-8590-e6c57c1123ad","683bf07d-1a26-40b1-9cff-5abdc1eed0ee","","null","<div style=""display: flex; justify-content: center; align-items: center;"">
                <img src=""images/causal/causal_series_10/causal_series_10_a.jpg"" style=""width: 300px; height: 300px;"" />
              </div>","null",""
"","","","","","html-keyboard-response","84","249215","0.0-84.0","E52BBDBACEAD4955B2BFCDF31CC0ACF4","40f8fb53-3644-4389-8590-e6c57c1123ad","683bf07d-1a26-40b1-9cff-5abdc1eed0ee","","null","<div style=""display: flex; justify-content: center; align-items: center;"">
                <img src=""images/causal/causal_series_10/causal_series_10_b.jpg"" style=""width: 300px; height: 300px;"" />
              </div>","null",""
"","","","","","html-keyboard-response","85","252216","0.0-85.0","E52BBDBACEAD4955B2BFCDF31CC0ACF4","40f8fb53-3644-4389-8590-e6c57c1123ad","683bf07d-1a26-40b1-9cff-5abdc1eed0ee","","null","<div style=""display: flex; justify-content: center; align-items: center;"">
                <img src=""images/causal/causal_series_10/causal_series_10_c.jpg"" style=""width: 300px; height: 300px;"" />
              </div>","null",""
"","","","","","html-button-response","86","252731","0.0-86.0","E52BBDBACEAD4955B2BFCDF31CC0ACF4","40f8fb53-3644-4389-8590-e6c57c1123ad","683bf07d-1a26-40b1-9cff-5abdc1eed0ee","","513","
    <div style=""display: flex; justify-content: center; align-items: center;"">
      <img src=""images/red_deck_2.png"" style=""width: 300px; height: 300px; margin-right: 10px;"" />
      <img src=""images/blue_deck_1.png"" style=""width: 300px; height: 300px;"" />
    </div>","1","1"
"","","","","","html-keyboard-response","87","255734","0.0-87.0-1.0-0.0","E52BBDBACEAD4955B2BFCDF31CC0ACF4","40f8fb53-3644-4389-8590-e6c57c1123ad","683bf07d-1a26-40b1-9cff-5abdc1eed0ee","","null","<div style=""display: flex; justify-content: center; align-items: center;"">
                <img src=""images/semantic/semantic_series_9/semantic_series_9_d.jpg"" style=""width: 300px; height: 300px;"" />
              </div>","null",""
"","","","","","html-keyboard-response","88","258736","0.0-88.0","E52BBDBACEAD4955B2BFCDF31CC0ACF4","40f8fb53-3644-4389-8590-e6c57c1123ad","683bf07d-1a26-40b1-9cff-5abdc1eed0ee","","null","<div style=""display: flex; justify-content: center; align-items: center;"">
                <img src=""images/other/blank.jpg"" style=""width: 300px; height: 300px;"" />
              </div>","null",""
"","","","","","html-keyboard-response","89","261739","0.0-89.0","E52BBDBACEAD4955B2BFCDF31CC0ACF4","40f8fb53-3644-4389-8590-e6c57c1123ad","683bf07d-1a26-40b1-9cff-5abdc1eed0ee","","null","<div style=""display: flex; justify-content: center; align-items: center;"">
                <img src=""images/causal/causal_series_18/causal_series_18_a.jpg"" style=""width: 300px; height: 300px;"" />
              </div>","null",""
"","","","","","html-keyboard-response","90","264741","0.0-90.0","E52BBDBACEAD4955B2BFCDF31CC0ACF4","40f8fb53-3644-4389-8590-e6c57c1123ad","683bf07d-1a26-40b1-9cff-5abdc1eed0ee","","null","<div style=""display: flex; justify-content: center; align-items: center;"">
                <img src=""images/causal/causal_series_18/causal_series_18_b.jpg"" style=""width: 300px; height: 300px;"" />
              </div>","null",""
"","","","","","html-keyboard-response","91","267744","0.0-91.0","E52BBDBACEAD4955B2BFCDF31CC0ACF4","40f8fb53-3644-4389-8590-e6c57c1123ad","683bf07d-1a26-40b1-9cff-5abdc1eed0ee","","null","<div style=""display: flex; justify-content: center; align-items: center;"">
                <img src=""images/causal/causal_series_18/causal_series_18_c.jpg"" style=""width: 300px; height: 300px;"" />
              </div>","null",""
"","","","","","html-button-response","92","268193","0.0-92.0","E52BBDBACEAD4955B2BFCDF31CC0ACF4","40f8fb53-3644-4389-8590-e6c57c1123ad","683bf07d-1a26-40b1-9cff-5abdc1eed0ee","","447","
    <div style=""display: flex; justify-content: center; align-items: center;"">
      <img src=""images/red_deck_2.png"" style=""width: 300px; height: 300px; margin-right: 10px;"" />
      <img src=""images/blue_deck_1.png"" style=""width: 300px; height: 300px;"" />
    </div>","1","1"
"","","","","","html-keyboard-response","93","271196","0.0-93.0-1.0-0.0","E52BBDBACEAD4955B2BFCDF31CC0ACF4","40f8fb53-3644-4389-8590-e6c57c1123ad","683bf07d-1a26-40b1-9cff-5abdc1eed0ee","","null","<div style=""display: flex; justify-content: center; align-items: center;"">
                <img src=""images/semantic/semantic_series_17/semantic_series_17_d.jpg"" style=""width: 300px; height: 300px;"" />
              </div>","null",""
"","","","","","html-keyboard-response","94","274198","0.0-94.0","E52BBDBACEAD4955B2BFCDF31CC0ACF4","40f8fb53-3644-4389-8590-e6c57c1123ad","683bf07d-1a26-40b1-9cff-5abdc1eed0ee","","null","<div style=""display: flex; justify-content: center; align-items: center;"">
                <img src=""images/other/blank.jpg"" style=""width: 300px; height: 300px;"" />
              </div>","null",""
"","","","","","html-keyboard-response","95","277200","0.0-95.0","E52BBDBACEAD4955B2BFCDF31CC0ACF4","40f8fb53-3644-4389-8590-e6c57c1123ad","683bf07d-1a26-40b1-9cff-5abdc1eed0ee","","null","<div style=""display: flex; justify-content: center; align-items: center;"">
                <img src=""images/causal/causal_series_9/causal_series_9_a.jpg"" style=""width: 300px; height: 300px;"" />
              </div>","null",""
"","","","","","html-keyboard-response","96","280203","0.0-96.0","E52BBDBACEAD4955B2BFCDF31CC0ACF4","40f8fb53-3644-4389-8590-e6c57c1123ad","683bf07d-1a26-40b1-9cff-5abdc1eed0ee","","null","<div style=""display: flex; justify-content: center; align-items: center;"">
                <img src=""images/causal/causal_series_9/causal_series_9_b.jpg"" style=""width: 300px; height: 300px;"" />
              </div>","null",""
"","","","","","html-keyboard-response","97","283206","0.0-97.0","E52BBDBACEAD4955B2BFCDF31CC0ACF4","40f8fb53-3644-4389-8590-e6c57c1123ad","683bf07d-1a26-40b1-9cff-5abdc1eed0ee","","null","<div style=""display: flex; justify-content: center; align-items: center;"">
                <img src=""images/causal/causal_series_9/causal_series_9_c.jpg"" style=""width: 300px; height: 300px;"" />
              </div>","null",""
"","","","","","html-button-response","98","286127","0.0-98.0","E52BBDBACEAD4955B2BFCDF31CC0ACF4","40f8fb53-3644-4389-8590-e6c57c1123ad","683bf07d-1a26-40b1-9cff-5abdc1eed0ee","","2920","
    <div style=""display: flex; justify-content: center; align-items: center;"">
      <img src=""images/red_deck_2.png"" style=""width: 300px; height: 300px; margin-right: 10px;"" />
      <img src=""images/blue_deck_1.png"" style=""width: 300px; height: 300px;"" />
    </div>","1","1"
"","","","","","html-keyboard-response","99","289130","0.0-99.0-1.0-0.0","E52BBDBACEAD4955B2BFCDF31CC0ACF4","40f8fb53-3644-4389-8590-e6c57c1123ad","683bf07d-1a26-40b1-9cff-5abdc1eed0ee","","null","<div style=""display: flex; justify-content: center; align-items: center;"">
                <img src=""images/semantic/semantic_series_8/semantic_series_8_d.jpg"" style=""width: 300px; height: 300px;"" />
              </div>","null",""
"","","","","","html-keyboard-response","100","292133","0.0-100.0","E52BBDBACEAD4955B2BFCDF31CC0ACF4","40f8fb53-3644-4389-8590-e6c57c1123ad","683bf07d-1a26-40b1-9cff-5abdc1eed0ee","","null","<div style=""display: flex; justify-content: center; align-items: center;"">
                <img src=""images/other/blank.jpg"" style=""width: 300px; height: 300px;"" />
              </div>","null",""
"","","","","","html-keyboard-response","101","295136","0.0-101.0","E52BBDBACEAD4955B2BFCDF31CC0ACF4","40f8fb53-3644-4389-8590-e6c57c1123ad","683bf07d-1a26-40b1-9cff-5abdc1eed0ee","","null","<div style=""display: flex; justify-content: center; align-items: center;"">
                <img src=""images/causal/causal_series_11/causal_series_11_a.jpg"" style=""width: 300px; height: 300px;"" />
              </div>","null",""
"","","","","","html-keyboard-response","102","298138","0.0-102.0","E52BBDBACEAD4955B2BFCDF31CC0ACF4","40f8fb53-3644-4389-8590-e6c57c1123ad","683bf07d-1a26-40b1-9cff-5abdc1eed0ee","","null","<div style=""display: flex; justify-content: center; align-items: center;"">
                <img src=""images/causal/causal_series_11/causal_series_11_b.jpg"" style=""width: 300px; height: 300px;"" />
              </div>","null",""
"","","","","","html-keyboard-response","103","301140","0.0-103.0","E52BBDBACEAD4955B2BFCDF31CC0ACF4","40f8fb53-3644-4389-8590-e6c57c1123ad","683bf07d-1a26-40b1-9cff-5abdc1eed0ee","","null","<div style=""display: flex; justify-content: center; align-items: center;"">
                <img src=""images/causal/causal_series_11/causal_series_11_c.jpg"" style=""width: 300px; height: 300px;"" />
              </div>","null",""
"","","","","","html-button-response","104","306475","0.0-104.0","E52BBDBACEAD4955B2BFCDF31CC0ACF4","40f8fb53-3644-4389-8590-e6c57c1123ad","683bf07d-1a26-40b1-9cff-5abdc1eed0ee","","5333","
    <div style=""display: flex; justify-content: center; align-items: center;"">
      <img src=""images/red_deck_2.png"" style=""width: 300px; height: 300px; margin-right: 10px;"" />
      <img src=""images/blue_deck_1.png"" style=""width: 300px; height: 300px;"" />
    </div>","0","0"
"","","","","","html-keyboard-response","105","309477","0.0-105.0-0.0-0.0","E52BBDBACEAD4955B2BFCDF31CC0ACF4","40f8fb53-3644-4389-8590-e6c57c1123ad","683bf07d-1a26-40b1-9cff-5abdc1eed0ee","","null","<div style=""display: flex; justify-content: center; align-items: center;"">
                <img src=""images/causal/causal_series_11/causal_series_11_d.jpg"" style=""width: 300px; height: 300px;"" />
              </div>","null",""
"","","","","","html-keyboard-response","106","312480","0.0-106.0","E52BBDBACEAD4955B2BFCDF31CC0ACF4","40f8fb53-3644-4389-8590-e6c57c1123ad","683bf07d-1a26-40b1-9cff-5abdc1eed0ee","","null","<div style=""display: flex; justify-content: center; align-items: center;"">
                <img src=""images/other/blank.jpg"" style=""width: 300px; height: 300px;"" />
              </div>","null",""
"","","","","","html-keyboard-response","107","315483","0.0-107.0","E52BBDBACEAD4955B2BFCDF31CC0ACF4","40f8fb53-3644-4389-8590-e6c57c1123ad","683bf07d-1a26-40b1-9cff-5abdc1eed0ee","","null","<div style=""display: flex; justify-content: center; align-items: center;"">
                <img src=""images/causal/causal_series_5/causal_series_5_a.jpg"" style=""width: 300px; height: 300px;"" />
              </div>","null",""
"","","","","","html-keyboard-response","108","318485","0.0-108.0","E52BBDBACEAD4955B2BFCDF31CC0ACF4","40f8fb53-3644-4389-8590-e6c57c1123ad","683bf07d-1a26-40b1-9cff-5abdc1eed0ee","","null","<div style=""display: flex; justify-content: center; align-items: center;"">
                <img src=""images/causal/causal_series_5/causal_series_5_b.jpg"" style=""width: 300px; height: 300px;"" />
              </div>","null",""
"","","","","","html-keyboard-response","109","321487","0.0-109.0","E52BBDBACEAD4955B2BFCDF31CC0ACF4","40f8fb53-3644-4389-8590-e6c57c1123ad","683bf07d-1a26-40b1-9cff-5abdc1eed0ee","","null","<div style=""display: flex; justify-content: center; align-items: center;"">
                <img src=""images/causal/causal_series_5/causal_series_5_c.jpg"" style=""width: 300px; height: 300px;"" />
              </div>","null",""
"","","","","","html-button-response","110","328311","0.0-110.0","E52BBDBACEAD4955B2BFCDF31CC0ACF4","40f8fb53-3644-4389-8590-e6c57c1123ad","683bf07d-1a26-40b1-9cff-5abdc1eed0ee","","6822","
    <div style=""display: flex; justify-content: center; align-items: center;"">
      <img src=""images/red_deck_2.png"" style=""width: 300px; height: 300px; margin-right: 10px;"" />
      <img src=""images/blue_deck_1.png"" style=""width: 300px; height: 300px;"" />
    </div>","1","1"
"","","","","","html-keyboard-response","111","331314","0.0-111.0-1.0-0.0","E52BBDBACEAD4955B2BFCDF31CC0ACF4","40f8fb53-3644-4389-8590-e6c57c1123ad","683bf07d-1a26-40b1-9cff-5abdc1eed0ee","","null","<div style=""display: flex; justify-content: center; align-items: center;"">
                <img src=""images/semantic/semantic_series_4/semantic_series_4_d.jpg"" style=""width: 300px; height: 300px;"" />
              </div>","null",""
"","","","","","html-keyboard-response","112","334316","0.0-112.0","E52BBDBACEAD4955B2BFCDF31CC0ACF4","40f8fb53-3644-4389-8590-e6c57c1123ad","683bf07d-1a26-40b1-9cff-5abdc1eed0ee","","null","<div style=""display: flex; justify-content: center; align-items: center;"">
                <img src=""images/other/blank.jpg"" style=""width: 300px; height: 300px;"" />
              </div>","null",""
"","","","","","survey-text","113","342227","0.0-113.0","E52BBDBACEAD4955B2BFCDF31CC0ACF4","40f8fb53-3644-4389-8590-e6c57c1123ad","683bf07d-1a26-40b1-9cff-5abdc1eed0ee","","7907","","{""Q0"":""bad and good""}",""
"","","","","","survey-text","114","347221","0.0-114.0","E52BBDBACEAD4955B2BFCDF31CC0ACF4","40f8fb53-3644-4389-8590-e6c57c1123ad","683bf07d-1a26-40b1-9cff-5abdc1eed0ee","","4993","","{""Q0"":""the blue deck""}",""
"","","","","","html-button-response","115","355436","0.0-115.0","E52BBDBACEAD4955B2BFCDF31CC0ACF4","40f8fb53-3644-4389-8590-e6c57c1123ad","683bf07d-1a26-40b1-9cff-5abdc1eed0ee","","8214","Which color deck does the fourth image continue the story from the series?","0",""
"","","","","","html-button-response","116","359054","0.0-116.0","E52BBDBACEAD4955B2BFCDF31CC0ACF4","40f8fb53-3644-4389-8590-e6c57c1123ad","683bf07d-1a26-40b1-9cff-5abdc1eed0ee","","3617","Which color deck does the fourth image not follow the story from the series?","1",""
"","","","","","survey-text","117","363668","0.0-117.0","E52BBDBACEAD4955B2BFCDF31CC0ACF4","40f8fb53-3644-4389-8590-e6c57c1123ad","683bf07d-1a26-40b1-9cff-5abdc1eed0ee","","4611","","{""Q0"":""MALE"",""Q1"":""21""}",""
"","","","","","instructions","118","367405","0.0-118.0","E52BBDBACEAD4955B2BFCDF31CC0ACF4","40f8fb53-3644-4389-8590-e6c57c1123ad","683bf07d-1a26-40b1-9cff-5abdc1eed0ee","[{""page_index"":0,""viewing_time"":3737}]","3737","","",""
