"success","timeout","failed_images","failed_audio","failed_video","trial_type","trial_index","time_elapsed","internal_node_id","subject_id","study_id","session_id","view_history","rt","stimulus","response","choice"
"true","false","[]","[]","[]","preload","0","3846","0.0-0.0","CF116F0B021C42A39081AC82488C43CF","3c1fc085-f13f-4ee4-9dad-9bbb87ac0839","683bf07d-1a26-40b1-9cff-5abdc1eed0ee","","","","",""
"","","","","","instructions","1","16436","0.0-1.0","CF116F0B021C42A39081AC82488C43CF","3c1fc085-f13f-4ee4-9dad-9bbb87ac0839","683bf07d-1a26-40b1-9cff-5abdc1eed0ee","[{""page_index"":0,""viewing_time"":12590}]","12590","","",""
"","","","","","instructions","2","18998","0.0-2.0","CF116F0B021C42A39081AC82488C43CF","3c1fc085-f13f-4ee4-9dad-9bbb87ac0839","683bf07d-1a26-40b1-9cff-5abdc1eed0ee","[{""page_index"":0,""viewing_time"":2561}]","2561","","",""
"true","","","","","fullscreen","3","21776","0.0-3.0","CF116F0B021C42A39081AC82488C43CF","3c1fc085-f13f-4ee4-9dad-9bbb87ac0839","683bf07d-1a26-40b1-9cff-5abdc1eed0ee","","1775","","",""
"","","","","","instructions","4","30431","0.0-4.0","CF116F0B021C42A39081AC82488C43CF","3c1fc085-f13f-4ee4-9dad-9bbb87ac0839","683bf07d-1a26-40b1-9cff-5abdc1eed0ee","[{""page_index"":0,""viewing_time"":8654}]","8654","","",""
"","","","","","html-keyboard-response","5","33444","0.0-5.0","CF116F0B021C42A39081AC82488C43CF","3c1fc085-f13f-4ee4-9dad-9bbb87ac0839","683bf07d-1a26-40b1-9cff-5abdc1eed0ee","","null","<div style=""display: flex; justify-content: center; align-items: center;"">
                <img src=""images/causal/causal_series_18/causal_series_18_a.jpg"" style=""width: 300px; height: 300px;"" />
              </div>","null",""
"","","","","","html-keyboard-response","6","36451","0.0-6.0","CF116F0B021C42A39081AC82488C43CF","3c1fc085-f13f-4ee4-9dad-9bbb87ac0839","683bf07d-1a26-40b1-9cff-5abdc1eed0ee","","null","<div style=""display: flex; justify-content: center; align-items: center;"">
                <img src=""images/causal/causal_series_18/causal_series_18_b.jpg"" style=""width: 300px; height: 300px;"" />
              </div>","null",""
"","","","","","html-keyboard-response","7","39467","0.0-7.0","CF116F0B021C42A39081AC82488C43CF","3c1fc085-f13f-4ee4-9dad-9bbb87ac0839","683bf07d-1a26-40b1-9cff-5abdc1eed0ee","","null","<div style=""display: flex; justify-content: center; align-items: center;"">
                <img src=""images/causal/causal_series_18/causal_series_18_c.jpg"" style=""width: 300px; height: 300px;"" />
              </div>","null",""
"","","","","","html-button-response","8","41230","0.0-8.0","CF116F0B021C42A39081AC82488C43CF","3c1fc085-f13f-4ee4-9dad-9bbb87ac0839","683bf07d-1a26-40b1-9cff-5abdc1eed0ee","","1762","
    <div style=""display: flex; justify-content: center; align-items: center;"">
      <img src=""images/red_deck_2.png"" style=""width: 300px; height: 300px; margin-right: 10px;"" />
      <img src=""images/blue_deck_1.png"" style=""width: 300px; height: 300px;"" />
    </div>","1","1"
"","","","","","html-keyboard-response","9","44233","0.0-9.0-1.0-0.0","CF116F0B021C42A39081AC82488C43CF","3c1fc085-f13f-4ee4-9dad-9bbb87ac0839","683bf07d-1a26-40b1-9cff-5abdc1eed0ee","","null","<div style=""display: flex; justify-content: center; align-items: center;"">
                <img src=""images/semantic/semantic_series_17/semantic_series_17_d.jpg"" style=""width: 300px; height: 300px;"" />
              </div>","null",""
"","","","","","html-keyboard-response","10","47244","0.0-10.0","CF116F0B021C42A39081AC82488C43CF","3c1fc085-f13f-4ee4-9dad-9bbb87ac0839","683bf07d-1a26-40b1-9cff-5abdc1eed0ee","","null","<div style=""display: flex; justify-content: center; align-items: center;"">
                <img src=""images/other/blank.jpg"" style=""width: 300px; height: 300px;"" />
              </div>","null",""
"","","","","","html-keyboard-response","11","50259","0.0-11.0","CF116F0B021C42A39081AC82488C43CF","3c1fc085-f13f-4ee4-9dad-9bbb87ac0839","683bf07d-1a26-40b1-9cff-5abdc1eed0ee","","null","<div style=""display: flex; justify-content: center; align-items: center;"">
                <img src=""images/causal/causal_series_15/causal_series_15_a.jpg"" style=""width: 300px; height: 300px;"" />
              </div>","null",""
"","","","","","html-keyboard-response","12","53265","0.0-12.0","CF116F0B021C42A39081AC82488C43CF","3c1fc085-f13f-4ee4-9dad-9bbb87ac0839","683bf07d-1a26-40b1-9cff-5abdc1eed0ee","","null","<div style=""display: flex; justify-content: center; align-items: center;"">
                <img src=""images/causal/causal_series_15/causal_series_15_b.jpg"" style=""width: 300px; height: 300px;"" />
              </div>","null",""
"","","","","","html-keyboard-response","13","56278","0.0-13.0","CF116F0B021C42A39081AC82488C43CF","3c1fc085-f13f-4ee4-9dad-9bbb87ac0839","683bf07d-1a26-40b1-9cff-5abdc1eed0ee","","null","<div style=""display: flex; justify-content: center; align-items: center;"">
                <img src=""images/causal/causal_series_15/causal_series_15_c.jpg"" style=""width: 300px; height: 300px;"" />
              </div>","null",""
"","","","","","html-button-response","14","58600","0.0-14.0","CF116F0B021C42A39081AC82488C43CF","3c1fc085-f13f-4ee4-9dad-9bbb87ac0839","683bf07d-1a26-40b1-9cff-5abdc1eed0ee","","2321","
    <div style=""display: flex; justify-content: center; align-items: center;"">
      <img src=""images/red_deck_2.png"" style=""width: 300px; height: 300px; margin-right: 10px;"" />
      <img src=""images/blue_deck_1.png"" style=""width: 300px; height: 300px;"" />
    </div>","0","0"
"","","","","","html-keyboard-response","15","61609","0.0-15.0-0.0-0.0","CF116F0B021C42A39081AC82488C43CF","3c1fc085-f13f-4ee4-9dad-9bbb87ac0839","683bf07d-1a26-40b1-9cff-5abdc1eed0ee","","null","<div style=""display: flex; justify-content: center; align-items: center;"">
                <img src=""images/causal/causal_series_15/causal_series_15_d.jpg"" style=""width: 300px; height: 300px;"" />
              </div>","null",""
"","","","","","html-keyboard-response","16","64622","0.0-16.0","CF116F0B021C42A39081AC82488C43CF","3c1fc085-f13f-4ee4-9dad-9bbb87ac0839","683bf07d-1a26-40b1-9cff-5abdc1eed0ee","","null","<div style=""display: flex; justify-content: center; align-items: center;"">
                <img src=""images/other/blank.jpg"" style=""width: 300px; height: 300px;"" />
              </div>","null",""
"","","","","","html-keyboard-response","17","67624","0.0-17.0","CF116F0B021C42A39081AC82488C43CF","3c1fc085-f13f-4ee4-9dad-9bbb87ac0839","683bf07d-1a26-40b1-9cff-5abdc1eed0ee","","null","<div style=""display: flex; justify-content: center; align-items: center;"">
                <img src=""images/causal/causal_series_9/causal_series_9_a.jpg"" style=""width: 300px; height: 300px;"" />
              </div>","null",""
"","","","","","html-keyboard-response","18","70625","0.0-18.0","CF116F0B021C42A39081AC82488C43CF","3c1fc085-f13f-4ee4-9dad-9bbb87ac0839","683bf07d-1a26-40b1-9cff-5abdc1eed0ee","","null","<div style=""display: flex; justify-content: center; align-items: center;"">
                <img src=""images/causal/causal_series_9/causal_series_9_b.jpg"" style=""width: 300px; height: 300px;"" />
              </div>","null",""
"","","","","","html-keyboard-response","19","73638","0.0-19.0","CF116F0B021C42A39081AC82488C43CF","3c1fc085-f13f-4ee4-9dad-9bbb87ac0839","683bf07d-1a26-40b1-9cff-5abdc1eed0ee","","null","<div style=""display: flex; justify-content: center; align-items: center;"">
                <img src=""images/causal/causal_series_9/causal_series_9_c.jpg"" style=""width: 300px; height: 300px;"" />
              </div>","null",""
"","","","","","html-button-response","20","75288","0.0-20.0","CF116F0B021C42A39081AC82488C43CF","3c1fc085-f13f-4ee4-9dad-9bbb87ac0839","683bf07d-1a26-40b1-9cff-5abdc1eed0ee","","1649","
    <div style=""display: flex; justify-content: center; align-items: center;"">
      <img src=""images/red_deck_2.png"" style=""width: 300px; height: 300px; margin-right: 10px;"" />
      <img src=""images/blue_deck_1.png"" style=""width: 300px; height: 300px;"" />
    </div>","1","1"
"","","","","","html-keyboard-response","21","78301","0.0-21.0-1.0-0.0","CF116F0B021C42A39081AC82488C43CF","3c1fc085-f13f-4ee4-9dad-9bbb87ac0839","683bf07d-1a26-40b1-9cff-5abdc1eed0ee","","null","<div style=""display: flex; justify-content: center; align-items: center;"">
                <img src=""images/semantic/semantic_series_8/semantic_series_8_d.jpg"" style=""width: 300px; height: 300px;"" />
              </div>","null",""
"","","","","","html-keyboard-response","22","81306","0.0-22.0","CF116F0B021C42A39081AC82488C43CF","3c1fc085-f13f-4ee4-9dad-9bbb87ac0839","683bf07d-1a26-40b1-9cff-5abdc1eed0ee","","null","<div style=""display: flex; justify-content: center; align-items: center;"">
                <img src=""images/other/blank.jpg"" style=""width: 300px; height: 300px;"" />
              </div>","null",""
"","","","","","html-keyboard-response","23","84308","0.0-23.0","CF116F0B021C42A39081AC82488C43CF","3c1fc085-f13f-4ee4-9dad-9bbb87ac0839","683bf07d-1a26-40b1-9cff-5abdc1eed0ee","","null","<div style=""display: flex; justify-content: center; align-items: center;"">
                <img src=""images/causal/causal_series_2/causal_series_2_a.jpg"" style=""width: 300px; height: 300px;"" />
              </div>","null",""
"","","","","","html-keyboard-response","24","87309","0.0-24.0","CF116F0B021C42A39081AC82488C43CF","3c1fc085-f13f-4ee4-9dad-9bbb87ac0839","683bf07d-1a26-40b1-9cff-5abdc1eed0ee","","null","<div style=""display: flex; justify-content: center; align-items: center;"">
                <img src=""images/causal/causal_series_2/causal_series_2_b.jpg"" style=""width: 300px; height: 300px;"" />
              </div>","null",""
"","","","","","html-keyboard-response","25","90311","0.0-25.0","CF116F0B021C42A39081AC82488C43CF","3c1fc085-f13f-4ee4-9dad-9bbb87ac0839","683bf07d-1a26-40b1-9cff-5abdc1eed0ee","","null","<div style=""display: flex; justify-content: center; align-items: center;"">
                <img src=""images/causal/causal_series_2/causal_series_2_c.jpg"" style=""width: 300px; height: 300px;"" />
              </div>","null",""
"","","","","","html-button-response","26","91664","0.0-26.0","CF116F0B021C42A39081AC82488C43CF","3c1fc085-f13f-4ee4-9dad-9bbb87ac0839","683bf07d-1a26-40b1-9cff-5abdc1eed0ee","","1353","
    <div style=""display: flex; justify-content: center; align-items: center;"">
      <img src=""images/red_deck_2.png"" style=""width: 300px; height: 300px; margin-right: 10px;"" />
      <img src=""images/blue_deck_1.png"" style=""width: 300px; height: 300px;"" />
    </div>","0","0"
"","","","","","html-keyboard-response","27","94668","0.0-27.0-0.0-0.0","CF116F0B021C42A39081AC82488C43CF","3c1fc085-f13f-4ee4-9dad-9bbb87ac0839","683bf07d-1a26-40b1-9cff-5abdc1eed0ee","","null","<div style=""display: flex; justify-content: center; align-items: center;"">
                <img src=""images/causal/causal_series_2/causal_series_2_d.jpg"" style=""width: 300px; height: 300px;"" />
              </div>","null",""
"","","","","","html-keyboard-response","28","97683","0.0-28.0","CF116F0B021C42A39081AC82488C43CF","3c1fc085-f13f-4ee4-9dad-9bbb87ac0839","683bf07d-1a26-40b1-9cff-5abdc1eed0ee","","null","<div style=""display: flex; justify-content: center; align-items: center;"">
                <img src=""images/other/blank.jpg"" style=""width: 300px; height: 300px;"" />
              </div>","null",""
"","","","","","html-keyboard-response","29","100698","0.0-29.0","CF116F0B021C42A39081AC82488C43CF","3c1fc085-f13f-4ee4-9dad-9bbb87ac0839","683bf07d-1a26-40b1-9cff-5abdc1eed0ee","","null","<div style=""display: flex; justify-content: center; align-items: center;"">
                <img src=""images/causal/causal_series_17/causal_series_17_a.jpg"" style=""width: 300px; height: 300px;"" />
              </div>","null",""
"","","","","","html-keyboard-response","30","103702","0.0-30.0","CF116F0B021C42A39081AC82488C43CF","3c1fc085-f13f-4ee4-9dad-9bbb87ac0839","683bf07d-1a26-40b1-9cff-5abdc1eed0ee","","null","<div style=""display: flex; justify-content: center; align-items: center;"">
                <img src=""images/causal/causal_series_17/causal_series_17_b.jpg"" style=""width: 300px; height: 300px;"" />
              </div>","null",""
"","","","","","html-keyboard-response","31","106709","0.0-31.0","CF116F0B021C42A39081AC82488C43CF","3c1fc085-f13f-4ee4-9dad-9bbb87ac0839","683bf07d-1a26-40b1-9cff-5abdc1eed0ee","","null","<div style=""display: flex; justify-content: center; align-items: center;"">
                <img src=""images/causal/causal_series_17/causal_series_17_c.jpg"" style=""width: 300px; height: 300px;"" />
              </div>","null",""
"","","","","","html-button-response","32","108040","0.0-32.0","CF116F0B021C42A39081AC82488C43CF","3c1fc085-f13f-4ee4-9dad-9bbb87ac0839","683bf07d-1a26-40b1-9cff-5abdc1eed0ee","","1330","
    <div style=""display: flex; justify-content: center; align-items: center;"">
      <img src=""images/red_deck_2.png"" style=""width: 300px; height: 300px; margin-right: 10px;"" />
      <img src=""images/blue_deck_1.png"" style=""width: 300px; height: 300px;"" />
    </div>","0","0"
"","","","","","html-keyboard-response","33","111047","0.0-33.0-0.0-0.0","CF116F0B021C42A39081AC82488C43CF","3c1fc085-f13f-4ee4-9dad-9bbb87ac0839","683bf07d-1a26-40b1-9cff-5abdc1eed0ee","","null","<div style=""display: flex; justify-content: center; align-items: center;"">
                <img src=""images/causal/causal_series_17/causal_series_17_d.jpg"" style=""width: 300px; height: 300px;"" />
              </div>","null",""
"","","","","","html-keyboard-response","34","114049","0.0-34.0","CF116F0B021C42A39081AC82488C43CF","3c1fc085-f13f-4ee4-9dad-9bbb87ac0839","683bf07d-1a26-40b1-9cff-5abdc1eed0ee","","null","<div style=""display: flex; justify-content: center; align-items: center;"">
                <img src=""images/other/blank.jpg"" style=""width: 300px; height: 300px;"" />
              </div>","null",""
"","","","","","html-keyboard-response","35","117063","0.0-35.0","CF116F0B021C42A39081AC82488C43CF","3c1fc085-f13f-4ee4-9dad-9bbb87ac0839","683bf07d-1a26-40b1-9cff-5abdc1eed0ee","","null","<div style=""display: flex; justify-content: center; align-items: center;"">
                <img src=""images/causal/causal_series_3/causal_series_3_a.jpg"" style=""width: 300px; height: 300px;"" />
              </div>","null",""
"","","","","","html-keyboard-response","36","120069","0.0-36.0","CF116F0B021C42A39081AC82488C43CF","3c1fc085-f13f-4ee4-9dad-9bbb87ac0839","683bf07d-1a26-40b1-9cff-5abdc1eed0ee","","null","<div style=""display: flex; justify-content: center; align-items: center;"">
                <img src=""images/causal/causal_series_3/causal_series_3_b.jpg"" style=""width: 300px; height: 300px;"" />
              </div>","null",""
"","","","","","html-keyboard-response","37","123083","0.0-37.0","CF116F0B021C42A39081AC82488C43CF","3c1fc085-f13f-4ee4-9dad-9bbb87ac0839","683bf07d-1a26-40b1-9cff-5abdc1eed0ee","","null","<div style=""display: flex; justify-content: center; align-items: center;"">
                <img src=""images/causal/causal_series_3/causal_series_3_c.jpg"" style=""width: 300px; height: 300px;"" />
              </div>","null",""
"","","","","","html-button-response","38","124188","0.0-38.0","CF116F0B021C42A39081AC82488C43CF","3c1fc085-f13f-4ee4-9dad-9bbb87ac0839","683bf07d-1a26-40b1-9cff-5abdc1eed0ee","","1105","
    <div style=""display: flex; justify-content: center; align-items: center;"">
      <img src=""images/red_deck_2.png"" style=""width: 300px; height: 300px; margin-right: 10px;"" />
      <img src=""images/blue_deck_1.png"" style=""width: 300px; height: 300px;"" />
    </div>","1","1"
"","","","","","html-keyboard-response","39","127194","0.0-39.0-1.0-0.0","CF116F0B021C42A39081AC82488C43CF","3c1fc085-f13f-4ee4-9dad-9bbb87ac0839","683bf07d-1a26-40b1-9cff-5abdc1eed0ee","","null","<div style=""display: flex; justify-content: center; align-items: center;"">
                <img src=""images/semantic/semantic_series_2/semantic_series_2_d.jpg"" style=""width: 300px; height: 300px;"" />
              </div>","null",""
"","","","","","html-keyboard-response","40","130208","0.0-40.0","CF116F0B021C42A39081AC82488C43CF","3c1fc085-f13f-4ee4-9dad-9bbb87ac0839","683bf07d-1a26-40b1-9cff-5abdc1eed0ee","","null","<div style=""display: flex; justify-content: center; align-items: center;"">
                <img src=""images/other/blank.jpg"" style=""width: 300px; height: 300px;"" />
              </div>","null",""
"","","","","","html-keyboard-response","41","133212","0.0-41.0","CF116F0B021C42A39081AC82488C43CF","3c1fc085-f13f-4ee4-9dad-9bbb87ac0839","683bf07d-1a26-40b1-9cff-5abdc1eed0ee","","null","<div style=""display: flex; justify-content: center; align-items: center;"">
                <img src=""images/causal/causal_series_16/causal_series_16_a.jpg"" style=""width: 300px; height: 300px;"" />
              </div>","null",""
"","","","","","html-keyboard-response","42","136225","0.0-42.0","CF116F0B021C42A39081AC82488C43CF","3c1fc085-f13f-4ee4-9dad-9bbb87ac0839","683bf07d-1a26-40b1-9cff-5abdc1eed0ee","","null","<div style=""display: flex; justify-content: center; align-items: center;"">
                <img src=""images/causal/causal_series_16/causal_series_16_b.jpg"" style=""width: 300px; height: 300px;"" />
              </div>","null",""
"","","","","","html-keyboard-response","43","139228","0.0-43.0","CF116F0B021C42A39081AC82488C43CF","3c1fc085-f13f-4ee4-9dad-9bbb87ac0839","683bf07d-1a26-40b1-9cff-5abdc1eed0ee","","null","<div style=""display: flex; justify-content: center; align-items: center;"">
                <img src=""images/causal/causal_series_16/causal_series_16_c.jpg"" style=""width: 300px; height: 300px;"" />
              </div>","null",""
"","","","","","html-button-response","44","140704","0.0-44.0","CF116F0B021C42A39081AC82488C43CF","3c1fc085-f13f-4ee4-9dad-9bbb87ac0839","683bf07d-1a26-40b1-9cff-5abdc1eed0ee","","1475","
    <div style=""display: flex; justify-content: center; align-items: center;"">
      <img src=""images/red_deck_2.png"" style=""width: 300px; height: 300px; margin-right: 10px;"" />
      <img src=""images/blue_deck_1.png"" style=""width: 300px; height: 300px;"" />
    </div>","0","0"
"","","","","","html-keyboard-response","45","143716","0.0-45.0-0.0-0.0","CF116F0B021C42A39081AC82488C43CF","3c1fc085-f13f-4ee4-9dad-9bbb87ac0839","683bf07d-1a26-40b1-9cff-5abdc1eed0ee","","null","<div style=""display: flex; justify-content: center; align-items: center;"">
                <img src=""images/causal/causal_series_16/causal_series_16_d.jpg"" style=""width: 300px; height: 300px;"" />
              </div>","null",""
"","","","","","html-keyboard-response","46","146731","0.0-46.0","CF116F0B021C42A39081AC82488C43CF","3c1fc085-f13f-4ee4-9dad-9bbb87ac0839","683bf07d-1a26-40b1-9cff-5abdc1eed0ee","","null","<div style=""display: flex; justify-content: center; align-items: center;"">
                <img src=""images/other/blank.jpg"" style=""width: 300px; height: 300px;"" />
              </div>","null",""
"","","","","","html-keyboard-response","47","149733","0.0-47.0","CF116F0B021C42A39081AC82488C43CF","3c1fc085-f13f-4ee4-9dad-9bbb87ac0839","683bf07d-1a26-40b1-9cff-5abdc1eed0ee","","null","<div style=""display: flex; justify-content: center; align-items: center;"">
                <img src=""images/causal/causal_series_6/causal_series_6_a.jpg"" style=""width: 300px; height: 300px;"" />
              </div>","null",""
"","","","","","html-keyboard-response","48","152736","0.0-48.0","CF116F0B021C42A39081AC82488C43CF","3c1fc085-f13f-4ee4-9dad-9bbb87ac0839","683bf07d-1a26-40b1-9cff-5abdc1eed0ee","","null","<div style=""display: flex; justify-content: center; align-items: center;"">
                <img src=""images/causal/causal_series_6/causal_series_6_b.jpg"" style=""width: 300px; height: 300px;"" />
              </div>","null",""
"","","","","","html-keyboard-response","49","155738","0.0-49.0","CF116F0B021C42A39081AC82488C43CF","3c1fc085-f13f-4ee4-9dad-9bbb87ac0839","683bf07d-1a26-40b1-9cff-5abdc1eed0ee","","null","<div style=""display: flex; justify-content: center; align-items: center;"">
                <img src=""images/causal/causal_series_6/causal_series_6_c.jpg"" style=""width: 300px; height: 300px;"" />
              </div>","null",""
"","","","","","html-button-response","50","157111","0.0-50.0","CF116F0B021C42A39081AC82488C43CF","3c1fc085-f13f-4ee4-9dad-9bbb87ac0839","683bf07d-1a26-40b1-9cff-5abdc1eed0ee","","1373","
    <div style=""display: flex; justify-content: center; align-items: center;"">
      <img src=""images/red_deck_2.png"" style=""width: 300px; height: 300px; margin-right: 10px;"" />
      <img src=""images/blue_deck_1.png"" style=""width: 300px; height: 300px;"" />
    </div>","0","0"
"","","","","","html-keyboard-response","51","160124","0.0-51.0-0.0-0.0","CF116F0B021C42A39081AC82488C43CF","3c1fc085-f13f-4ee4-9dad-9bbb87ac0839","683bf07d-1a26-40b1-9cff-5abdc1eed0ee","","null","<div style=""display: flex; justify-content: center; align-items: center;"">
                <img src=""images/causal/causal_series_6/causal_series_6_d.jpg"" style=""width: 300px; height: 300px;"" />
              </div>","null",""
"","","","","","html-keyboard-response","52","163138","0.0-52.0","CF116F0B021C42A39081AC82488C43CF","3c1fc085-f13f-4ee4-9dad-9bbb87ac0839","683bf07d-1a26-40b1-9cff-5abdc1eed0ee","","null","<div style=""display: flex; justify-content: center; align-items: center;"">
                <img src=""images/other/blank.jpg"" style=""width: 300px; height: 300px;"" />
              </div>","null",""
"","","","","","html-keyboard-response","53","166143","0.0-53.0","CF116F0B021C42A39081AC82488C43CF","3c1fc085-f13f-4ee4-9dad-9bbb87ac0839","683bf07d-1a26-40b1-9cff-5abdc1eed0ee","","null","<div style=""display: flex; justify-content: center; align-items: center;"">
                <img src=""images/causal/causal_series_7/causal_series_7_a.jpg"" style=""width: 300px; height: 300px;"" />
              </div>","null",""
"","","","","","html-keyboard-response","54","169146","0.0-54.0","CF116F0B021C42A39081AC82488C43CF","3c1fc085-f13f-4ee4-9dad-9bbb87ac0839","683bf07d-1a26-40b1-9cff-5abdc1eed0ee","","null","<div style=""display: flex; justify-content: center; align-items: center;"">
                <img src=""images/causal/causal_series_7/causal_series_7_b.jpg"" style=""width: 300px; height: 300px;"" />
              </div>","null",""
"","","","","","html-keyboard-response","55","172148","0.0-55.0","CF116F0B021C42A39081AC82488C43CF","3c1fc085-f13f-4ee4-9dad-9bbb87ac0839","683bf07d-1a26-40b1-9cff-5abdc1eed0ee","","null","<div style=""display: flex; justify-content: center; align-items: center;"">
                <img src=""images/causal/causal_series_7/causal_series_7_c.jpg"" style=""width: 300px; height: 300px;"" />
              </div>","null",""
"","","","","","html-button-response","56","173423","0.0-56.0","CF116F0B021C42A39081AC82488C43CF","3c1fc085-f13f-4ee4-9dad-9bbb87ac0839","683bf07d-1a26-40b1-9cff-5abdc1eed0ee","","1275","
    <div style=""display: flex; justify-content: center; align-items: center;"">
      <img src=""images/red_deck_2.png"" style=""width: 300px; height: 300px; margin-right: 10px;"" />
      <img src=""images/blue_deck_1.png"" style=""width: 300px; height: 300px;"" />
    </div>","1","1"
"","","","","","html-keyboard-response","57","176427","0.0-57.0-1.0-0.0","CF116F0B021C42A39081AC82488C43CF","3c1fc085-f13f-4ee4-9dad-9bbb87ac0839","683bf07d-1a26-40b1-9cff-5abdc1eed0ee","","null","<div style=""display: flex; justify-content: center; align-items: center;"">
                <img src=""images/semantic/semantic_series_6/semantic_series_6_d.jpg"" style=""width: 300px; height: 300px;"" />
              </div>","null",""
"","","","","","html-keyboard-response","58","179432","0.0-58.0","CF116F0B021C42A39081AC82488C43CF","3c1fc085-f13f-4ee4-9dad-9bbb87ac0839","683bf07d-1a26-40b1-9cff-5abdc1eed0ee","","null","<div style=""display: flex; justify-content: center; align-items: center;"">
                <img src=""images/other/blank.jpg"" style=""width: 300px; height: 300px;"" />
              </div>","null",""
"","","","","","html-keyboard-response","59","182444","0.0-59.0","CF116F0B021C42A39081AC82488C43CF","3c1fc085-f13f-4ee4-9dad-9bbb87ac0839","683bf07d-1a26-40b1-9cff-5abdc1eed0ee","","null","<div style=""display: flex; justify-content: center; align-items: center;"">
                <img src=""images/causal/causal_series_4/causal_series_4_a.jpg"" style=""width: 300px; height: 300px;"" />
              </div>","null",""
"","","","","","html-keyboard-response","60","185460","0.0-60.0","CF116F0B021C42A39081AC82488C43CF","3c1fc085-f13f-4ee4-9dad-9bbb87ac0839","683bf07d-1a26-40b1-9cff-5abdc1eed0ee","","null","<div style=""display: flex; justify-content: center; align-items: center;"">
                <img src=""images/causal/causal_series_4/causal_series_4_b.jpg"" style=""width: 300px; height: 300px;"" />
              </div>","null",""
"","","","","","html-keyboard-response","61","188461","0.0-61.0","CF116F0B021C42A39081AC82488C43CF","3c1fc085-f13f-4ee4-9dad-9bbb87ac0839","683bf07d-1a26-40b1-9cff-5abdc1eed0ee","","null","<div style=""display: flex; justify-content: center; align-items: center;"">
                <img src=""images/causal/causal_series_4/causal_series_4_c.jpg"" style=""width: 300px; height: 300px;"" />
              </div>","null",""
"","","","","","html-button-response","62","189539","0.0-62.0","CF116F0B021C42A39081AC82488C43CF","3c1fc085-f13f-4ee4-9dad-9bbb87ac0839","683bf07d-1a26-40b1-9cff-5abdc1eed0ee","","1077","
    <div style=""display: flex; justify-content: center; align-items: center;"">
      <img src=""images/red_deck_2.png"" style=""width: 300px; height: 300px; margin-right: 10px;"" />
      <img src=""images/blue_deck_1.png"" style=""width: 300px; height: 300px;"" />
    </div>","0","0"
"","","","","","html-keyboard-response","63","192554","0.0-63.0-0.0-0.0","CF116F0B021C42A39081AC82488C43CF","3c1fc085-f13f-4ee4-9dad-9bbb87ac0839","683bf07d-1a26-40b1-9cff-5abdc1eed0ee","","null","<div style=""display: flex; justify-content: center; align-items: center;"">
                <img src=""images/causal/causal_series_4/causal_series_4_d.jpg"" style=""width: 300px; height: 300px;"" />
              </div>","null",""
"","","","","","html-keyboard-response","64","195569","0.0-64.0","CF116F0B021C42A39081AC82488C43CF","3c1fc085-f13f-4ee4-9dad-9bbb87ac0839","683bf07d-1a26-40b1-9cff-5abdc1eed0ee","","null","<div style=""display: flex; justify-content: center; align-items: center;"">
                <img src=""images/other/blank.jpg"" style=""width: 300px; height: 300px;"" />
              </div>","null",""
"","","","","","html-keyboard-response","65","198584","0.0-65.0","CF116F0B021C42A39081AC82488C43CF","3c1fc085-f13f-4ee4-9dad-9bbb87ac0839","683bf07d-1a26-40b1-9cff-5abdc1eed0ee","","null","<div style=""display: flex; justify-content: center; align-items: center;"">
                <img src=""images/causal/causal_series_1/causal_series_1_a.jpg"" style=""width: 300px; height: 300px;"" />
              </div>","null",""
"","","","","","html-keyboard-response","66","201596","0.0-66.0","CF116F0B021C42A39081AC82488C43CF","3c1fc085-f13f-4ee4-9dad-9bbb87ac0839","683bf07d-1a26-40b1-9cff-5abdc1eed0ee","","null","<div style=""display: flex; justify-content: center; align-items: center;"">
                <img src=""images/causal/causal_series_1/causal_series_1_b.jpg"" style=""width: 300px; height: 300px;"" />
              </div>","null",""
"","","","","","html-keyboard-response","67","204603","0.0-67.0","CF116F0B021C42A39081AC82488C43CF","3c1fc085-f13f-4ee4-9dad-9bbb87ac0839","683bf07d-1a26-40b1-9cff-5abdc1eed0ee","","null","<div style=""display: flex; justify-content: center; align-items: center;"">
                <img src=""images/causal/causal_series_1/causal_series_1_c.jpg"" style=""width: 300px; height: 300px;"" />
              </div>","null",""
"","","","","","html-button-response","68","205316","0.0-68.0","CF116F0B021C42A39081AC82488C43CF","3c1fc085-f13f-4ee4-9dad-9bbb87ac0839","683bf07d-1a26-40b1-9cff-5abdc1eed0ee","","712","
    <div style=""display: flex; justify-content: center; align-items: center;"">
      <img src=""images/red_deck_2.png"" style=""width: 300px; height: 300px; margin-right: 10px;"" />
      <img src=""images/blue_deck_1.png"" style=""width: 300px; height: 300px;"" />
    </div>","1","1"
"","","","","","html-keyboard-response","69","208330","0.0-69.0-1.0-0.0","CF116F0B021C42A39081AC82488C43CF","3c1fc085-f13f-4ee4-9dad-9bbb87ac0839","683bf07d-1a26-40b1-9cff-5abdc1eed0ee","","null","<div style=""display: flex; justify-content: center; align-items: center;"">
                <img src=""images/semantic/semantic_series_18/semantic_series_18_d.jpg"" style=""width: 300px; height: 300px;"" />
              </div>","null",""
"","","","","","html-keyboard-response","70","211335","0.0-70.0","CF116F0B021C42A39081AC82488C43CF","3c1fc085-f13f-4ee4-9dad-9bbb87ac0839","683bf07d-1a26-40b1-9cff-5abdc1eed0ee","","null","<div style=""display: flex; justify-content: center; align-items: center;"">
                <img src=""images/other/blank.jpg"" style=""width: 300px; height: 300px;"" />
              </div>","null",""
"","","","","","html-keyboard-response","71","214343","0.0-71.0","CF116F0B021C42A39081AC82488C43CF","3c1fc085-f13f-4ee4-9dad-9bbb87ac0839","683bf07d-1a26-40b1-9cff-5abdc1eed0ee","","null","<div style=""display: flex; justify-content: center; align-items: center;"">
                <img src=""images/causal/causal_series_12/causal_series_12_a.jpg"" style=""width: 300px; height: 300px;"" />
              </div>","null",""
"","","","","","html-keyboard-response","72","217345","0.0-72.0","CF116F0B021C42A39081AC82488C43CF","3c1fc085-f13f-4ee4-9dad-9bbb87ac0839","683bf07d-1a26-40b1-9cff-5abdc1eed0ee","","null","<div style=""display: flex; justify-content: center; align-items: center;"">
                <img src=""images/causal/causal_series_12/causal_series_12_b.jpg"" style=""width: 300px; height: 300px;"" />
              </div>","null",""
"","","","","","html-keyboard-response","73","220358","0.0-73.0","CF116F0B021C42A39081AC82488C43CF","3c1fc085-f13f-4ee4-9dad-9bbb87ac0839","683bf07d-1a26-40b1-9cff-5abdc1eed0ee","","null","<div style=""display: flex; justify-content: center; align-items: center;"">
                <img src=""images/causal/causal_series_12/causal_series_12_c.jpg"" style=""width: 300px; height: 300px;"" />
              </div>","null",""
"","","","","","html-button-response","74","222193","0.0-74.0","CF116F0B021C42A39081AC82488C43CF","3c1fc085-f13f-4ee4-9dad-9bbb87ac0839","683bf07d-1a26-40b1-9cff-5abdc1eed0ee","","1834","
    <div style=""display: flex; justify-content: center; align-items: center;"">
      <img src=""images/red_deck_2.png"" style=""width: 300px; height: 300px; margin-right: 10px;"" />
      <img src=""images/blue_deck_1.png"" style=""width: 300px; height: 300px;"" />
    </div>","1","1"
"","","","","","html-keyboard-response","75","225197","0.0-75.0-1.0-0.0","CF116F0B021C42A39081AC82488C43CF","3c1fc085-f13f-4ee4-9dad-9bbb87ac0839","683bf07d-1a26-40b1-9cff-5abdc1eed0ee","","null","<div style=""display: flex; justify-content: center; align-items: center;"">
                <img src=""images/semantic/semantic_series_11/semantic_series_11_d.jpg"" style=""width: 300px; height: 300px;"" />
              </div>","null",""
"","","","","","html-keyboard-response","76","228198","0.0-76.0","CF116F0B021C42A39081AC82488C43CF","3c1fc085-f13f-4ee4-9dad-9bbb87ac0839","683bf07d-1a26-40b1-9cff-5abdc1eed0ee","","null","<div style=""display: flex; justify-content: center; align-items: center;"">
                <img src=""images/other/blank.jpg"" style=""width: 300px; height: 300px;"" />
              </div>","null",""
"","","","","","html-keyboard-response","77","231211","0.0-77.0","CF116F0B021C42A39081AC82488C43CF","3c1fc085-f13f-4ee4-9dad-9bbb87ac0839","683bf07d-1a26-40b1-9cff-5abdc1eed0ee","","null","<div style=""display: flex; justify-content: center; align-items: center;"">
                <img src=""images/causal/causal_series_13/causal_series_13_a.jpg"" style=""width: 300px; height: 300px;"" />
              </div>","null",""
"","","","","","html-keyboard-response","78","234212","0.0-78.0","CF116F0B021C42A39081AC82488C43CF","3c1fc085-f13f-4ee4-9dad-9bbb87ac0839","683bf07d-1a26-40b1-9cff-5abdc1eed0ee","","null","<div style=""display: flex; justify-content: center; align-items: center;"">
                <img src=""images/causal/causal_series_13/causal_series_13_b.jpg"" style=""width: 300px; height: 300px;"" />
              </div>","null",""
"","","","","","html-keyboard-response","79","237228","0.0-79.0","CF116F0B021C42A39081AC82488C43CF","3c1fc085-f13f-4ee4-9dad-9bbb87ac0839","683bf07d-1a26-40b1-9cff-5abdc1eed0ee","","null","<div style=""display: flex; justify-content: center; align-items: center;"">
                <img src=""images/causal/causal_series_13/causal_series_13_c.jpg"" style=""width: 300px; height: 300px;"" />
              </div>","null",""
"","","","","","html-button-response","80","238009","0.0-80.0","CF116F0B021C42A39081AC82488C43CF","3c1fc085-f13f-4ee4-9dad-9bbb87ac0839","683bf07d-1a26-40b1-9cff-5abdc1eed0ee","","781","
    <div style=""display: flex; justify-content: center; align-items: center;"">
      <img src=""images/red_deck_2.png"" style=""width: 300px; height: 300px; margin-right: 10px;"" />
      <img src=""images/blue_deck_1.png"" style=""width: 300px; height: 300px;"" />
    </div>","1","1"
"","","","","","html-keyboard-response","81","241011","0.0-81.0-1.0-0.0","CF116F0B021C42A39081AC82488C43CF","3c1fc085-f13f-4ee4-9dad-9bbb87ac0839","683bf07d-1a26-40b1-9cff-5abdc1eed0ee","","null","<div style=""display: flex; justify-content: center; align-items: center;"">
                <img src=""images/semantic/semantic_series_12/semantic_series_12_d.jpg"" style=""width: 300px; height: 300px;"" />
              </div>","null",""
"","","","","","html-keyboard-response","82","244023","0.0-82.0","CF116F0B021C42A39081AC82488C43CF","3c1fc085-f13f-4ee4-9dad-9bbb87ac0839","683bf07d-1a26-40b1-9cff-5abdc1eed0ee","","null","<div style=""display: flex; justify-content: center; align-items: center;"">
                <img src=""images/other/blank.jpg"" style=""width: 300px; height: 300px;"" />
              </div>","null",""
"","","","","","html-keyboard-response","83","247032","0.0-83.0","CF116F0B021C42A39081AC82488C43CF","3c1fc085-f13f-4ee4-9dad-9bbb87ac0839","683bf07d-1a26-40b1-9cff-5abdc1eed0ee","","null","<div style=""display: flex; justify-content: center; align-items: center;"">
                <img src=""images/causal/causal_series_11/causal_series_11_a.jpg"" style=""width: 300px; height: 300px;"" />
              </div>","null",""
"","","","","","html-keyboard-response","84","250045","0.0-84.0","CF116F0B021C42A39081AC82488C43CF","3c1fc085-f13f-4ee4-9dad-9bbb87ac0839","683bf07d-1a26-40b1-9cff-5abdc1eed0ee","","null","<div style=""display: flex; justify-content: center; align-items: center;"">
                <img src=""images/causal/causal_series_11/causal_series_11_b.jpg"" style=""width: 300px; height: 300px;"" />
              </div>","null",""
"","","","","","html-keyboard-response","85","253052","0.0-85.0","CF116F0B021C42A39081AC82488C43CF","3c1fc085-f13f-4ee4-9dad-9bbb87ac0839","683bf07d-1a26-40b1-9cff-5abdc1eed0ee","","null","<div style=""display: flex; justify-content: center; align-items: center;"">
                <img src=""images/causal/causal_series_11/causal_series_11_c.jpg"" style=""width: 300px; height: 300px;"" />
              </div>","null",""
"","","","","","html-button-response","86","253911","0.0-86.0","CF116F0B021C42A39081AC82488C43CF","3c1fc085-f13f-4ee4-9dad-9bbb87ac0839","683bf07d-1a26-40b1-9cff-5abdc1eed0ee","","858","
    <div style=""display: flex; justify-content: center; align-items: center;"">
      <img src=""images/red_deck_2.png"" style=""width: 300px; height: 300px; margin-right: 10px;"" />
      <img src=""images/blue_deck_1.png"" style=""width: 300px; height: 300px;"" />
    </div>","0","0"
"","","","","","html-keyboard-response","87","256914","0.0-87.0-0.0-0.0","CF116F0B021C42A39081AC82488C43CF","3c1fc085-f13f-4ee4-9dad-9bbb87ac0839","683bf07d-1a26-40b1-9cff-5abdc1eed0ee","","null","<div style=""display: flex; justify-content: center; align-items: center;"">
                <img src=""images/causal/causal_series_11/causal_series_11_d.jpg"" style=""width: 300px; height: 300px;"" />
              </div>","null",""
"","","","","","html-keyboard-response","88","259917","0.0-88.0","CF116F0B021C42A39081AC82488C43CF","3c1fc085-f13f-4ee4-9dad-9bbb87ac0839","683bf07d-1a26-40b1-9cff-5abdc1eed0ee","","null","<div style=""display: flex; justify-content: center; align-items: center;"">
                <img src=""images/other/blank.jpg"" style=""width: 300px; height: 300px;"" />
              </div>","null",""
"","","","","","html-keyboard-response","89","262931","0.0-89.0","CF116F0B021C42A39081AC82488C43CF","3c1fc085-f13f-4ee4-9dad-9bbb87ac0839","683bf07d-1a26-40b1-9cff-5abdc1eed0ee","","null","<div style=""display: flex; justify-content: center; align-items: center;"">
                <img src=""images/causal/causal_series_5/causal_series_5_a.jpg"" style=""width: 300px; height: 300px;"" />
              </div>","null",""
"","","","","","html-keyboard-response","90","265947","0.0-90.0","CF116F0B021C42A39081AC82488C43CF","3c1fc085-f13f-4ee4-9dad-9bbb87ac0839","683bf07d-1a26-40b1-9cff-5abdc1eed0ee","","null","<div style=""display: flex; justify-content: center; align-items: center;"">
                <img src=""images/causal/causal_series_5/causal_series_5_b.jpg"" style=""width: 300px; height: 300px;"" />
              </div>","null",""
"","","","","","html-keyboard-response","91","268953","0.0-91.0","CF116F0B021C42A39081AC82488C43CF","3c1fc085-f13f-4ee4-9dad-9bbb87ac0839","683bf07d-1a26-40b1-9cff-5abdc1eed0ee","","null","<div style=""display: flex; justify-content: center; align-items: center;"">
                <img src=""images/causal/causal_series_5/causal_series_5_c.jpg"" style=""width: 300px; height: 300px;"" />
              </div>","null",""
"","","","","","html-button-response","92","269783","0.0-92.0","CF116F0B021C42A39081AC82488C43CF","3c1fc085-f13f-4ee4-9dad-9bbb87ac0839","683bf07d-1a26-40b1-9cff-5abdc1eed0ee","","829","
    <div style=""display: flex; justify-content: center; align-items: center;"">
      <img src=""images/red_deck_2.png"" style=""width: 300px; height: 300px; margin-right: 10px;"" />
      <img src=""images/blue_deck_1.png"" style=""width: 300px; height: 300px;"" />
    </div>","0","0"
"","","","","","html-keyboard-response","93","272793","0.0-93.0-0.0-0.0","CF116F0B021C42A39081AC82488C43CF","3c1fc085-f13f-4ee4-9dad-9bbb87ac0839","683bf07d-1a26-40b1-9cff-5abdc1eed0ee","","null","<div style=""display: flex; justify-content: center; align-items: center;"">
                <img src=""images/causal/causal_series_5/causal_series_5_d.jpg"" style=""width: 300px; height: 300px;"" />
              </div>","null",""
"","","","","","html-keyboard-response","94","275806","0.0-94.0","CF116F0B021C42A39081AC82488C43CF","3c1fc085-f13f-4ee4-9dad-9bbb87ac0839","683bf07d-1a26-40b1-9cff-5abdc1eed0ee","","null","<div style=""display: flex; justify-content: center; align-items: center;"">
                <img src=""images/other/blank.jpg"" style=""width: 300px; height: 300px;"" />
              </div>","null",""
"","","","","","html-keyboard-response","95","278807","0.0-95.0","CF116F0B021C42A39081AC82488C43CF","3c1fc085-f13f-4ee4-9dad-9bbb87ac0839","683bf07d-1a26-40b1-9cff-5abdc1eed0ee","","null","<div style=""display: flex; justify-content: center; align-items: center;"">
                <img src=""images/causal/causal_series_10/causal_series_10_a.jpg"" style=""width: 300px; height: 300px;"" />
              </div>","null",""
"","","","","","html-keyboard-response","96","281813","0.0-96.0","CF116F0B021C42A39081AC82488C43CF","3c1fc085-f13f-4ee4-9dad-9bbb87ac0839","683bf07d-1a26-40b1-9cff-5abdc1eed0ee","","null","<div style=""display: flex; justify-content: center; align-items: center;"">
                <img src=""images/causal/causal_series_10/causal_series_10_b.jpg"" style=""width: 300px; height: 300px;"" />
              </div>","null",""
"","","","","","html-keyboard-response","97","284817","0.0-97.0","CF116F0B021C42A39081AC82488C43CF","3c1fc085-f13f-4ee4-9dad-9bbb87ac0839","683bf07d-1a26-40b1-9cff-5abdc1eed0ee","","null","<div style=""display: flex; justify-content: center; align-items: center;"">
                <img src=""images/causal/causal_series_10/causal_series_10_c.jpg"" style=""width: 300px; height: 300px;"" />
              </div>","null",""
"","","","","","html-button-response","98","285772","0.0-98.0","CF116F0B021C42A39081AC82488C43CF","3c1fc085-f13f-4ee4-9dad-9bbb87ac0839","683bf07d-1a26-40b1-9cff-5abdc1eed0ee","","954","
    <div style=""display: flex; justify-content: center; align-items: center;"">
      <img src=""images/red_deck_2.png"" style=""width: 300px; height: 300px; margin-right: 10px;"" />
      <img src=""images/blue_deck_1.png"" style=""width: 300px; height: 300px;"" />
    </div>","0","0"
"","","","","","html-keyboard-response","99","288779","0.0-99.0-0.0-0.0","CF116F0B021C42A39081AC82488C43CF","3c1fc085-f13f-4ee4-9dad-9bbb87ac0839","683bf07d-1a26-40b1-9cff-5abdc1eed0ee","","null","<div style=""display: flex; justify-content: center; align-items: center;"">
                <img src=""images/causal/causal_series_10/causal_series_10_d.jpg"" style=""width: 300px; height: 300px;"" />
              </div>","null",""
"","","","","","html-keyboard-response","100","291781","0.0-100.0","CF116F0B021C42A39081AC82488C43CF","3c1fc085-f13f-4ee4-9dad-9bbb87ac0839","683bf07d-1a26-40b1-9cff-5abdc1eed0ee","","null","<div style=""display: flex; justify-content: center; align-items: center;"">
                <img src=""images/other/blank.jpg"" style=""width: 300px; height: 300px;"" />
              </div>","null",""
"","","","","","html-keyboard-response","101","294782","0.0-101.0","CF116F0B021C42A39081AC82488C43CF","3c1fc085-f13f-4ee4-9dad-9bbb87ac0839","683bf07d-1a26-40b1-9cff-5abdc1eed0ee","","null","<div style=""display: flex; justify-content: center; align-items: center;"">
                <img src=""images/causal/causal_series_14/causal_series_14_a.jpg"" style=""width: 300px; height: 300px;"" />
              </div>","null",""
"","","","","","html-keyboard-response","102","297798","0.0-102.0","CF116F0B021C42A39081AC82488C43CF","3c1fc085-f13f-4ee4-9dad-9bbb87ac0839","683bf07d-1a26-40b1-9cff-5abdc1eed0ee","","null","<div style=""display: flex; justify-content: center; align-items: center;"">
                <img src=""images/causal/causal_series_14/causal_series_14_b.jpg"" style=""width: 300px; height: 300px;"" />
              </div>","null",""
"","","","","","html-keyboard-response","103","300805","0.0-103.0","CF116F0B021C42A39081AC82488C43CF","3c1fc085-f13f-4ee4-9dad-9bbb87ac0839","683bf07d-1a26-40b1-9cff-5abdc1eed0ee","","null","<div style=""display: flex; justify-content: center; align-items: center;"">
                <img src=""images/causal/causal_series_14/causal_series_14_c.jpg"" style=""width: 300px; height: 300px;"" />
              </div>","null",""
"","","","","","html-button-response","104","301812","0.0-104.0","CF116F0B021C42A39081AC82488C43CF","3c1fc085-f13f-4ee4-9dad-9bbb87ac0839","683bf07d-1a26-40b1-9cff-5abdc1eed0ee","","1007","
    <div style=""display: flex; justify-content: center; align-items: center;"">
      <img src=""images/red_deck_2.png"" style=""width: 300px; height: 300px; margin-right: 10px;"" />
      <img src=""images/blue_deck_1.png"" style=""width: 300px; height: 300px;"" />
    </div>","0","0"
"","","","","","html-keyboard-response","105","304827","0.0-105.0-0.0-0.0","CF116F0B021C42A39081AC82488C43CF","3c1fc085-f13f-4ee4-9dad-9bbb87ac0839","683bf07d-1a26-40b1-9cff-5abdc1eed0ee","","null","<div style=""display: flex; justify-content: center; align-items: center;"">
                <img src=""images/causal/causal_series_14/causal_series_14_d.jpg"" style=""width: 300px; height: 300px;"" />
              </div>","null",""
"","","","","","html-keyboard-response","106","307833","0.0-106.0","CF116F0B021C42A39081AC82488C43CF","3c1fc085-f13f-4ee4-9dad-9bbb87ac0839","683bf07d-1a26-40b1-9cff-5abdc1eed0ee","","null","<div style=""display: flex; justify-content: center; align-items: center;"">
                <img src=""images/other/blank.jpg"" style=""width: 300px; height: 300px;"" />
              </div>","null",""
"","","","","","html-keyboard-response","107","310837","0.0-107.0","CF116F0B021C42A39081AC82488C43CF","3c1fc085-f13f-4ee4-9dad-9bbb87ac0839","683bf07d-1a26-40b1-9cff-5abdc1eed0ee","","null","<div style=""display: flex; justify-content: center; align-items: center;"">
                <img src=""images/causal/causal_series_8/causal_series_8_a.jpg"" style=""width: 300px; height: 300px;"" />
              </div>","null",""
"","","","","","html-keyboard-response","108","313853","0.0-108.0","CF116F0B021C42A39081AC82488C43CF","3c1fc085-f13f-4ee4-9dad-9bbb87ac0839","683bf07d-1a26-40b1-9cff-5abdc1eed0ee","","null","<div style=""display: flex; justify-content: center; align-items: center;"">
                <img src=""images/causal/causal_series_8/causal_series_8_b.jpg"" style=""width: 300px; height: 300px;"" />
              </div>","null",""
"","","","","","html-keyboard-response","109","316868","0.0-109.0","CF116F0B021C42A39081AC82488C43CF","3c1fc085-f13f-4ee4-9dad-9bbb87ac0839","683bf07d-1a26-40b1-9cff-5abdc1eed0ee","","null","<div style=""display: flex; justify-content: center; align-items: center;"">
                <img src=""images/causal/causal_series_8/causal_series_8_c.jpg"" style=""width: 300px; height: 300px;"" />
              </div>","null",""
"","","","","","html-button-response","110","317672","0.0-110.0","CF116F0B021C42A39081AC82488C43CF","3c1fc085-f13f-4ee4-9dad-9bbb87ac0839","683bf07d-1a26-40b1-9cff-5abdc1eed0ee","","803","
    <div style=""display: flex; justify-content: center; align-items: center;"">
      <img src=""images/red_deck_2.png"" style=""width: 300px; height: 300px; margin-right: 10px;"" />
      <img src=""images/blue_deck_1.png"" style=""width: 300px; height: 300px;"" />
    </div>","1","1"
"","","","","","html-keyboard-response","111","320685","0.0-111.0-1.0-0.0","CF116F0B021C42A39081AC82488C43CF","3c1fc085-f13f-4ee4-9dad-9bbb87ac0839","683bf07d-1a26-40b1-9cff-5abdc1eed0ee","","null","<div style=""display: flex; justify-content: center; align-items: center;"">
                <img src=""images/semantic/semantic_series_7/semantic_series_7_d.jpg"" style=""width: 300px; height: 300px;"" />
              </div>","null",""
"","","","","","html-keyboard-response","112","323687","0.0-112.0","CF116F0B021C42A39081AC82488C43CF","3c1fc085-f13f-4ee4-9dad-9bbb87ac0839","683bf07d-1a26-40b1-9cff-5abdc1eed0ee","","null","<div style=""display: flex; justify-content: center; align-items: center;"">
                <img src=""images/other/blank.jpg"" style=""width: 300px; height: 300px;"" />
              </div>","null",""
"","","","","","survey-text","113","337338","0.0-113.0","CF116F0B021C42A39081AC82488C43CF","3c1fc085-f13f-4ee4-9dad-9bbb87ac0839","683bf07d-1a26-40b1-9cff-5abdc1eed0ee","","13647","","{""Q0"":""One is red and the other is blue""}",""
"","","","","","survey-text","114","348371","0.0-114.0","CF116F0B021C42A39081AC82488C43CF","3c1fc085-f13f-4ee4-9dad-9bbb87ac0839","683bf07d-1a26-40b1-9cff-5abdc1eed0ee","","11030","","{""Q0"":""neither were interesting""}",""
"","","","","","html-button-response","115","366207","0.0-115.0","CF116F0B021C42A39081AC82488C43CF","3c1fc085-f13f-4ee4-9dad-9bbb87ac0839","683bf07d-1a26-40b1-9cff-5abdc1eed0ee","","17835","Which color deck does the fourth image continue the story from the series?","1",""
"","","","","","html-button-response","116","367766","0.0-116.0","CF116F0B021C42A39081AC82488C43CF","3c1fc085-f13f-4ee4-9dad-9bbb87ac0839","683bf07d-1a26-40b1-9cff-5abdc1eed0ee","","1559","Which color deck does the fourth image not follow the story from the series?","0",""
"","","","","","survey-text","117","377126","0.0-117.0","CF116F0B021C42A39081AC82488C43CF","3c1fc085-f13f-4ee4-9dad-9bbb87ac0839","683bf07d-1a26-40b1-9cff-5abdc1eed0ee","","9357","","{""Q0"":""FEMALE"",""Q1"":""29""}",""
"","","","","","instructions","118","388017","0.0-118.0","CF116F0B021C42A39081AC82488C43CF","3c1fc085-f13f-4ee4-9dad-9bbb87ac0839","683bf07d-1a26-40b1-9cff-5abdc1eed0ee","[{""page_index"":0,""viewing_time"":10891}]","10891","","",""
