"success","timeout","failed_images","failed_audio","failed_video","trial_type","trial_index","time_elapsed","internal_node_id","subject_id","study_id","session_id","view_history","rt","stimulus","response","series","repetition","phase","choice","question_order"
"true","false","[]","[]","[]","preload","0","359","0.0-0.0","6006B41E2D5A46B6958A7D3B26E8193B","0199dc20-d2ea-76c4-96b2-fa632d52d4b0","0199dbff-9ef9-7d24-b003-ca5c47ba9671","","","","","","","","",""
"","","","","","instructions","1","2117","0.0-1.0","6006B41E2D5A46B6958A7D3B26E8193B","0199dc20-d2ea-76c4-96b2-fa632d52d4b0","0199dbff-9ef9-7d24-b003-ca5c47ba9671","[{""page_index"":0,""viewing_time"":1758}]","1758","","","","","","",""
"","","","","","instructions","2","4964","0.0-2.0","6006B41E2D5A46B6958A7D3B26E8193B","0199dc20-d2ea-76c4-96b2-fa632d52d4b0","0199dbff-9ef9-7d24-b003-ca5c47ba9671","[{""page_index"":0,""viewing_time"":2847}]","2847","","","","","","",""
"true","","","","","fullscreen","3","7933","0.0-3.0","6006B41E2D5A46B6958A7D3B26E8193B","0199dc20-d2ea-76c4-96b2-fa632d52d4b0","0199dbff-9ef9-7d24-b003-ca5c47ba9671","","1964","","","","","","",""
"","","","","","instructions","4","23596","0.0-4.0","6006B41E2D5A46B6958A7D3B26E8193B","0199dc20-d2ea-76c4-96b2-fa632d52d4b0","0199dbff-9ef9-7d24-b003-ca5c47ba9671","[{""page_index"":0,""viewing_time"":15663}]","15663","","","","","","",""
"","","","","","html-keyboard-response","5","29602","0.0-5.0","6006B41E2D5A46B6958A7D3B26E8193B","0199dc20-d2ea-76c4-96b2-fa632d52d4b0","0199dbff-9ef9-7d24-b003-ca5c47ba9671","","null","<div style=""display: flex; justify-content: center; align-items: center;"">
                     <img src=""images/causal/causal_series_3/causal_series_3_a.png"" style=""width: 300px; height: 300px;"" />
                   </div>","null","3","1","A","",""
"","","","","","html-keyboard-response","6","35610","0.0-6.0","6006B41E2D5A46B6958A7D3B26E8193B","0199dc20-d2ea-76c4-96b2-fa632d52d4b0","0199dbff-9ef9-7d24-b003-ca5c47ba9671","","null","<div style=""display: flex; justify-content: center; align-items: center;"">
                     <img src=""images/causal/causal_series_3/causal_series_3_b.png"" style=""width: 300px; height: 300px;"" />
                   </div>","null","3","1","B","",""
"","","","","","html-keyboard-response","7","41626","0.0-7.0","6006B41E2D5A46B6958A7D3B26E8193B","0199dc20-d2ea-76c4-96b2-fa632d52d4b0","0199dbff-9ef9-7d24-b003-ca5c47ba9671","","null","<div style=""display: flex; justify-content: center; align-items: center;"">
                     <img src=""images/causal/causal_series_3/causal_series_3_c.png"" style=""width: 300px; height: 300px;"" />
                   </div>","null","3","1","C","",""
"","","","","","html-button-response","8","44576","0.0-8.0","6006B41E2D5A46B6958A7D3B26E8193B","0199dc20-d2ea-76c4-96b2-fa632d52d4b0","0199dbff-9ef9-7d24-b003-ca5c47ba9671","","2949","
        <div style=""display: flex; justify-content: center; align-items: center;"">
          <img src=""images/red_deck_2.png"" style=""width: 300px; height: 300px; margin-right: 10px;"" />
          <img src=""images/blue_deck_1.png"" style=""width: 300px; height: 300px;"" />
        </div>","0","3","1","choice","0",""
"","","","","","html-keyboard-response","9","50588","0.0-9.0-0.0-0.0","6006B41E2D5A46B6958A7D3B26E8193B","0199dc20-d2ea-76c4-96b2-fa632d52d4b0","0199dbff-9ef9-7d24-b003-ca5c47ba9671","","null","<div style=""display: flex; justify-content: center; align-items: center;"">
                     <img src=""images/causal/causal_series_3/causal_series_3_d.png"" style=""width: 300px; height: 300px;"" />
                   </div>","null","3","1","D","",""
"","","","","","survey-likert","10","53776","0.0-10.0","6006B41E2D5A46B6958A7D3B26E8193B","0199dc20-d2ea-76c4-96b2-fa632d52d4b0","0199dbff-9ef9-7d24-b003-ca5c47ba9671","","3186","","{""Q0"":4}","3","1","surprise_rating","","[0]"
"","","","","","survey-likert","11","57189","0.0-11.0","6006B41E2D5A46B6958A7D3B26E8193B","0199dc20-d2ea-76c4-96b2-fa632d52d4b0","0199dbff-9ef9-7d24-b003-ca5c47ba9671","","3413","","{""Q0"":0}","3","1","enjoyment_rating","","[0]"
"","","","","","html-keyboard-response","12","63193","0.0-12.0","6006B41E2D5A46B6958A7D3B26E8193B","0199dc20-d2ea-76c4-96b2-fa632d52d4b0","0199dbff-9ef9-7d24-b003-ca5c47ba9671","","null","<div style=""display: flex; justify-content: center; align-items: center;"">
                     <img src=""images/other/blank.png"" style=""width: 300px; height: 300px;"" />
                   </div>","null","0","0","blank","",""
"","","","","","html-keyboard-response","13","69207","0.0-13.0","6006B41E2D5A46B6958A7D3B26E8193B","0199dc20-d2ea-76c4-96b2-fa632d52d4b0","0199dbff-9ef9-7d24-b003-ca5c47ba9671","","null","<div style=""display: flex; justify-content: center; align-items: center;"">
                     <img src=""images/causal/causal_series_1/causal_series_1_a.png"" style=""width: 300px; height: 300px;"" />
                   </div>","null","1","1","A","",""
"","","","","","html-keyboard-response","14","75215","0.0-14.0","6006B41E2D5A46B6958A7D3B26E8193B","0199dc20-d2ea-76c4-96b2-fa632d52d4b0","0199dbff-9ef9-7d24-b003-ca5c47ba9671","","null","<div style=""display: flex; justify-content: center; align-items: center;"">
                     <img src=""images/causal/causal_series_1/causal_series_1_b.png"" style=""width: 300px; height: 300px;"" />
                   </div>","null","1","1","B","",""
"","","","","","html-keyboard-response","15","81226","0.0-15.0","6006B41E2D5A46B6958A7D3B26E8193B","0199dc20-d2ea-76c4-96b2-fa632d52d4b0","0199dbff-9ef9-7d24-b003-ca5c47ba9671","","null","<div style=""display: flex; justify-content: center; align-items: center;"">
                     <img src=""images/causal/causal_series_1/causal_series_1_c.png"" style=""width: 300px; height: 300px;"" />
                   </div>","null","1","1","C","",""
"","","","","","html-button-response","16","82995","0.0-16.0","6006B41E2D5A46B6958A7D3B26E8193B","0199dc20-d2ea-76c4-96b2-fa632d52d4b0","0199dbff-9ef9-7d24-b003-ca5c47ba9671","","1767","
        <div style=""display: flex; justify-content: center; align-items: center;"">
          <img src=""images/red_deck_2.png"" style=""width: 300px; height: 300px; margin-right: 10px;"" />
          <img src=""images/blue_deck_1.png"" style=""width: 300px; height: 300px;"" />
        </div>","1","1","1","choice","1",""
"","","","","","html-keyboard-response","17","88995","0.0-17.0-1.0-0.0","6006B41E2D5A46B6958A7D3B26E8193B","0199dc20-d2ea-76c4-96b2-fa632d52d4b0","0199dbff-9ef9-7d24-b003-ca5c47ba9671","","null","<div style=""display: flex; justify-content: center; align-items: center;"">
                     <img src=""images/semantic/semantic_series_1/semantic_series_1_d.png"" style=""width: 300px; height: 300px;"" />
                   </div>","null","1","1","D","",""
"","","","","","survey-likert","18","90866","0.0-18.0","6006B41E2D5A46B6958A7D3B26E8193B","0199dc20-d2ea-76c4-96b2-fa632d52d4b0","0199dbff-9ef9-7d24-b003-ca5c47ba9671","","1870","","{""Q0"":4}","1","1","surprise_rating","","[0]"
"","","","","","survey-likert","19","91888","0.0-19.0","6006B41E2D5A46B6958A7D3B26E8193B","0199dc20-d2ea-76c4-96b2-fa632d52d4b0","0199dbff-9ef9-7d24-b003-ca5c47ba9671","","1021","","{""Q0"":0}","1","1","enjoyment_rating","","[0]"
"","","","","","html-keyboard-response","20","97892","0.0-20.0","6006B41E2D5A46B6958A7D3B26E8193B","0199dc20-d2ea-76c4-96b2-fa632d52d4b0","0199dbff-9ef9-7d24-b003-ca5c47ba9671","","null","<div style=""display: flex; justify-content: center; align-items: center;"">
                     <img src=""images/other/blank.png"" style=""width: 300px; height: 300px;"" />
                   </div>","null","0","0","blank","",""
"","","","","","html-keyboard-response","21","103897","0.0-21.0","6006B41E2D5A46B6958A7D3B26E8193B","0199dc20-d2ea-76c4-96b2-fa632d52d4b0","0199dbff-9ef9-7d24-b003-ca5c47ba9671","","null","<div style=""display: flex; justify-content: center; align-items: center;"">
                     <img src=""images/causal/causal_series_6/causal_series_6_a.png"" style=""width: 300px; height: 300px;"" />
                   </div>","null","6","1","A","",""
"","","","","","html-keyboard-response","22","109899","0.0-22.0","6006B41E2D5A46B6958A7D3B26E8193B","0199dc20-d2ea-76c4-96b2-fa632d52d4b0","0199dbff-9ef9-7d24-b003-ca5c47ba9671","","null","<div style=""display: flex; justify-content: center; align-items: center;"">
                     <img src=""images/causal/causal_series_6/causal_series_6_b.png"" style=""width: 300px; height: 300px;"" />
                   </div>","null","6","1","B","",""
"","","","","","html-keyboard-response","23","115909","0.0-23.0","6006B41E2D5A46B6958A7D3B26E8193B","0199dc20-d2ea-76c4-96b2-fa632d52d4b0","0199dbff-9ef9-7d24-b003-ca5c47ba9671","","null","<div style=""display: flex; justify-content: center; align-items: center;"">
                     <img src=""images/causal/causal_series_6/causal_series_6_c.png"" style=""width: 300px; height: 300px;"" />
                   </div>","null","6","1","C","",""
"","","","","","html-button-response","24","117118","0.0-24.0","6006B41E2D5A46B6958A7D3B26E8193B","0199dc20-d2ea-76c4-96b2-fa632d52d4b0","0199dbff-9ef9-7d24-b003-ca5c47ba9671","","1209","
        <div style=""display: flex; justify-content: center; align-items: center;"">
          <img src=""images/red_deck_2.png"" style=""width: 300px; height: 300px; margin-right: 10px;"" />
          <img src=""images/blue_deck_1.png"" style=""width: 300px; height: 300px;"" />
        </div>","0","6","1","choice","0",""
"","","","","","html-keyboard-response","25","123120","0.0-25.0-0.0-0.0","6006B41E2D5A46B6958A7D3B26E8193B","0199dc20-d2ea-76c4-96b2-fa632d52d4b0","0199dbff-9ef9-7d24-b003-ca5c47ba9671","","null","<div style=""display: flex; justify-content: center; align-items: center;"">
                     <img src=""images/causal/causal_series_6/causal_series_6_d.png"" style=""width: 300px; height: 300px;"" />
                   </div>","null","6","1","D","",""
"","","","","","survey-likert","26","126284","0.0-26.0","6006B41E2D5A46B6958A7D3B26E8193B","0199dc20-d2ea-76c4-96b2-fa632d52d4b0","0199dbff-9ef9-7d24-b003-ca5c47ba9671","","3163","","{""Q0"":4}","6","1","surprise_rating","","[0]"
"","","","","","survey-likert","27","127192","0.0-27.0","6006B41E2D5A46B6958A7D3B26E8193B","0199dc20-d2ea-76c4-96b2-fa632d52d4b0","0199dbff-9ef9-7d24-b003-ca5c47ba9671","","907","","{""Q0"":0}","6","1","enjoyment_rating","","[0]"
"","","","","","html-keyboard-response","28","133205","0.0-28.0","6006B41E2D5A46B6958A7D3B26E8193B","0199dc20-d2ea-76c4-96b2-fa632d52d4b0","0199dbff-9ef9-7d24-b003-ca5c47ba9671","","null","<div style=""display: flex; justify-content: center; align-items: center;"">
                     <img src=""images/other/blank.png"" style=""width: 300px; height: 300px;"" />
                   </div>","null","0","0","blank","",""
"","","","","","html-keyboard-response","29","139210","0.0-29.0","6006B41E2D5A46B6958A7D3B26E8193B","0199dc20-d2ea-76c4-96b2-fa632d52d4b0","0199dbff-9ef9-7d24-b003-ca5c47ba9671","","null","<div style=""display: flex; justify-content: center; align-items: center;"">
                     <img src=""images/causal/causal_series_5/causal_series_5_a.png"" style=""width: 300px; height: 300px;"" />
                   </div>","null","5","1","A","",""
"","","","","","html-keyboard-response","30","145214","0.0-30.0","6006B41E2D5A46B6958A7D3B26E8193B","0199dc20-d2ea-76c4-96b2-fa632d52d4b0","0199dbff-9ef9-7d24-b003-ca5c47ba9671","","null","<div style=""display: flex; justify-content: center; align-items: center;"">
                     <img src=""images/causal/causal_series_5/causal_series_5_b.png"" style=""width: 300px; height: 300px;"" />
                   </div>","null","5","1","B","",""
"","","","","","html-keyboard-response","31","151224","0.0-31.0","6006B41E2D5A46B6958A7D3B26E8193B","0199dc20-d2ea-76c4-96b2-fa632d52d4b0","0199dbff-9ef9-7d24-b003-ca5c47ba9671","","null","<div style=""display: flex; justify-content: center; align-items: center;"">
                     <img src=""images/causal/causal_series_5/causal_series_5_c.png"" style=""width: 300px; height: 300px;"" />
                   </div>","null","5","1","C","",""
"","","","","","html-button-response","32","152083","0.0-32.0","6006B41E2D5A46B6958A7D3B26E8193B","0199dc20-d2ea-76c4-96b2-fa632d52d4b0","0199dbff-9ef9-7d24-b003-ca5c47ba9671","","858","
        <div style=""display: flex; justify-content: center; align-items: center;"">
          <img src=""images/red_deck_2.png"" style=""width: 300px; height: 300px; margin-right: 10px;"" />
          <img src=""images/blue_deck_1.png"" style=""width: 300px; height: 300px;"" />
        </div>","0","5","1","choice","0",""
"","","","","","html-keyboard-response","33","158085","0.0-33.0-0.0-0.0","6006B41E2D5A46B6958A7D3B26E8193B","0199dc20-d2ea-76c4-96b2-fa632d52d4b0","0199dbff-9ef9-7d24-b003-ca5c47ba9671","","null","<div style=""display: flex; justify-content: center; align-items: center;"">
                     <img src=""images/causal/causal_series_5/causal_series_5_d.png"" style=""width: 300px; height: 300px;"" />
                   </div>","null","5","1","D","",""
"","","","","","survey-likert","34","160879","0.0-34.0","6006B41E2D5A46B6958A7D3B26E8193B","0199dc20-d2ea-76c4-96b2-fa632d52d4b0","0199dbff-9ef9-7d24-b003-ca5c47ba9671","","2792","","{""Q0"":4}","5","1","surprise_rating","","[0]"
"","","","","","survey-likert","35","161938","0.0-35.0","6006B41E2D5A46B6958A7D3B26E8193B","0199dc20-d2ea-76c4-96b2-fa632d52d4b0","0199dbff-9ef9-7d24-b003-ca5c47ba9671","","1059","","{""Q0"":0}","5","1","enjoyment_rating","","[0]"
"","","","","","html-keyboard-response","36","167942","0.0-36.0","6006B41E2D5A46B6958A7D3B26E8193B","0199dc20-d2ea-76c4-96b2-fa632d52d4b0","0199dbff-9ef9-7d24-b003-ca5c47ba9671","","null","<div style=""display: flex; justify-content: center; align-items: center;"">
                     <img src=""images/other/blank.png"" style=""width: 300px; height: 300px;"" />
                   </div>","null","0","0","blank","",""
"","","","","","html-keyboard-response","37","173948","0.0-37.0","6006B41E2D5A46B6958A7D3B26E8193B","0199dc20-d2ea-76c4-96b2-fa632d52d4b0","0199dbff-9ef9-7d24-b003-ca5c47ba9671","","null","<div style=""display: flex; justify-content: center; align-items: center;"">
                     <img src=""images/causal/causal_series_10/causal_series_10_a.png"" style=""width: 300px; height: 300px;"" />
                   </div>","null","10","1","A","",""
"","","","","","html-keyboard-response","38","179953","0.0-38.0","6006B41E2D5A46B6958A7D3B26E8193B","0199dc20-d2ea-76c4-96b2-fa632d52d4b0","0199dbff-9ef9-7d24-b003-ca5c47ba9671","","null","<div style=""display: flex; justify-content: center; align-items: center;"">
                     <img src=""images/causal/causal_series_10/causal_series_10_b.png"" style=""width: 300px; height: 300px;"" />
                   </div>","null","10","1","B","",""
"","","","","","html-keyboard-response","39","185960","0.0-39.0","6006B41E2D5A46B6958A7D3B26E8193B","0199dc20-d2ea-76c4-96b2-fa632d52d4b0","0199dbff-9ef9-7d24-b003-ca5c47ba9671","","null","<div style=""display: flex; justify-content: center; align-items: center;"">
                     <img src=""images/causal/causal_series_10/causal_series_10_c.png"" style=""width: 300px; height: 300px;"" />
                   </div>","null","10","1","C","",""
"","","","","","html-button-response","40","186908","0.0-40.0","6006B41E2D5A46B6958A7D3B26E8193B","0199dc20-d2ea-76c4-96b2-fa632d52d4b0","0199dbff-9ef9-7d24-b003-ca5c47ba9671","","948","
        <div style=""display: flex; justify-content: center; align-items: center;"">
          <img src=""images/red_deck_2.png"" style=""width: 300px; height: 300px; margin-right: 10px;"" />
          <img src=""images/blue_deck_1.png"" style=""width: 300px; height: 300px;"" />
        </div>","0","10","1","choice","0",""
"","","","","","html-keyboard-response","41","192912","0.0-41.0-0.0-0.0","6006B41E2D5A46B6958A7D3B26E8193B","0199dc20-d2ea-76c4-96b2-fa632d52d4b0","0199dbff-9ef9-7d24-b003-ca5c47ba9671","","null","<div style=""display: flex; justify-content: center; align-items: center;"">
                     <img src=""images/causal/causal_series_10/causal_series_10_d.png"" style=""width: 300px; height: 300px;"" />
                   </div>","null","10","1","D","",""
"","","","","","survey-likert","42","194978","0.0-42.0","6006B41E2D5A46B6958A7D3B26E8193B","0199dc20-d2ea-76c4-96b2-fa632d52d4b0","0199dbff-9ef9-7d24-b003-ca5c47ba9671","","2066","","{""Q0"":4}","10","1","surprise_rating","","[0]"
"","","","","","survey-likert","43","196354","0.0-43.0","6006B41E2D5A46B6958A7D3B26E8193B","0199dc20-d2ea-76c4-96b2-fa632d52d4b0","0199dbff-9ef9-7d24-b003-ca5c47ba9671","","1375","","{""Q0"":0}","10","1","enjoyment_rating","","[0]"
"","","","","","html-keyboard-response","44","202362","0.0-44.0","6006B41E2D5A46B6958A7D3B26E8193B","0199dc20-d2ea-76c4-96b2-fa632d52d4b0","0199dbff-9ef9-7d24-b003-ca5c47ba9671","","null","<div style=""display: flex; justify-content: center; align-items: center;"">
                     <img src=""images/other/blank.png"" style=""width: 300px; height: 300px;"" />
                   </div>","null","0","0","blank","",""
"","","","","","html-keyboard-response","45","208371","0.0-45.0","6006B41E2D5A46B6958A7D3B26E8193B","0199dc20-d2ea-76c4-96b2-fa632d52d4b0","0199dbff-9ef9-7d24-b003-ca5c47ba9671","","null","<div style=""display: flex; justify-content: center; align-items: center;"">
                     <img src=""images/causal/causal_series_4/causal_series_4_a.png"" style=""width: 300px; height: 300px;"" />
                   </div>","null","4","1","A","",""
"","","","","","html-keyboard-response","46","214376","0.0-46.0","6006B41E2D5A46B6958A7D3B26E8193B","0199dc20-d2ea-76c4-96b2-fa632d52d4b0","0199dbff-9ef9-7d24-b003-ca5c47ba9671","","null","<div style=""display: flex; justify-content: center; align-items: center;"">
                     <img src=""images/causal/causal_series_4/causal_series_4_b.png"" style=""width: 300px; height: 300px;"" />
                   </div>","null","4","1","B","",""
"","","","","","html-keyboard-response","47","220390","0.0-47.0","6006B41E2D5A46B6958A7D3B26E8193B","0199dc20-d2ea-76c4-96b2-fa632d52d4b0","0199dbff-9ef9-7d24-b003-ca5c47ba9671","","null","<div style=""display: flex; justify-content: center; align-items: center;"">
                     <img src=""images/causal/causal_series_4/causal_series_4_c.png"" style=""width: 300px; height: 300px;"" />
                   </div>","null","4","1","C","",""
"","","","","","html-button-response","48","221566","0.0-48.0","6006B41E2D5A46B6958A7D3B26E8193B","0199dc20-d2ea-76c4-96b2-fa632d52d4b0","0199dbff-9ef9-7d24-b003-ca5c47ba9671","","1175","
        <div style=""display: flex; justify-content: center; align-items: center;"">
          <img src=""images/red_deck_2.png"" style=""width: 300px; height: 300px; margin-right: 10px;"" />
          <img src=""images/blue_deck_1.png"" style=""width: 300px; height: 300px;"" />
        </div>","0","4","1","choice","0",""
"","","","","","html-keyboard-response","49","227581","0.0-49.0-0.0-0.0","6006B41E2D5A46B6958A7D3B26E8193B","0199dc20-d2ea-76c4-96b2-fa632d52d4b0","0199dbff-9ef9-7d24-b003-ca5c47ba9671","","null","<div style=""display: flex; justify-content: center; align-items: center;"">
                     <img src=""images/causal/causal_series_4/causal_series_4_d.png"" style=""width: 300px; height: 300px;"" />
                   </div>","null","4","1","D","",""
"","","","","","survey-likert","50","229308","0.0-50.0","6006B41E2D5A46B6958A7D3B26E8193B","0199dc20-d2ea-76c4-96b2-fa632d52d4b0","0199dbff-9ef9-7d24-b003-ca5c47ba9671","","1727","","{""Q0"":4}","4","1","surprise_rating","","[0]"
"","","","","","survey-likert","51","230423","0.0-51.0","6006B41E2D5A46B6958A7D3B26E8193B","0199dc20-d2ea-76c4-96b2-fa632d52d4b0","0199dbff-9ef9-7d24-b003-ca5c47ba9671","","1115","","{""Q0"":0}","4","1","enjoyment_rating","","[0]"
"","","","","","html-keyboard-response","52","236427","0.0-52.0","6006B41E2D5A46B6958A7D3B26E8193B","0199dc20-d2ea-76c4-96b2-fa632d52d4b0","0199dbff-9ef9-7d24-b003-ca5c47ba9671","","null","<div style=""display: flex; justify-content: center; align-items: center;"">
                     <img src=""images/other/blank.png"" style=""width: 300px; height: 300px;"" />
                   </div>","null","0","0","blank","",""
"","","","","","html-keyboard-response","53","242437","0.0-53.0","6006B41E2D5A46B6958A7D3B26E8193B","0199dc20-d2ea-76c4-96b2-fa632d52d4b0","0199dbff-9ef9-7d24-b003-ca5c47ba9671","","null","<div style=""display: flex; justify-content: center; align-items: center;"">
                     <img src=""images/causal/causal_series_2/causal_series_2_a.png"" style=""width: 300px; height: 300px;"" />
                   </div>","null","2","1","A","",""
"","","","","","html-keyboard-response","54","248446","0.0-54.0","6006B41E2D5A46B6958A7D3B26E8193B","0199dc20-d2ea-76c4-96b2-fa632d52d4b0","0199dbff-9ef9-7d24-b003-ca5c47ba9671","","null","<div style=""display: flex; justify-content: center; align-items: center;"">
                     <img src=""images/causal/causal_series_2/causal_series_2_b.png"" style=""width: 300px; height: 300px;"" />
                   </div>","null","2","1","B","",""
"","","","","","html-keyboard-response","55","254452","0.0-55.0","6006B41E2D5A46B6958A7D3B26E8193B","0199dc20-d2ea-76c4-96b2-fa632d52d4b0","0199dbff-9ef9-7d24-b003-ca5c47ba9671","","null","<div style=""display: flex; justify-content: center; align-items: center;"">
                     <img src=""images/causal/causal_series_2/causal_series_2_c.png"" style=""width: 300px; height: 300px;"" />
                   </div>","null","2","1","C","",""
"","","","","","html-button-response","56","255398","0.0-56.0","6006B41E2D5A46B6958A7D3B26E8193B","0199dc20-d2ea-76c4-96b2-fa632d52d4b0","0199dbff-9ef9-7d24-b003-ca5c47ba9671","","944","
        <div style=""display: flex; justify-content: center; align-items: center;"">
          <img src=""images/red_deck_2.png"" style=""width: 300px; height: 300px; margin-right: 10px;"" />
          <img src=""images/blue_deck_1.png"" style=""width: 300px; height: 300px;"" />
        </div>","0","2","1","choice","0",""
"","","","","","html-keyboard-response","57","261403","0.0-57.0-0.0-0.0","6006B41E2D5A46B6958A7D3B26E8193B","0199dc20-d2ea-76c4-96b2-fa632d52d4b0","0199dbff-9ef9-7d24-b003-ca5c47ba9671","","null","<div style=""display: flex; justify-content: center; align-items: center;"">
                     <img src=""images/causal/causal_series_2/causal_series_2_d.png"" style=""width: 300px; height: 300px;"" />
                   </div>","null","2","1","D","",""
"","","","","","survey-likert","58","263053","0.0-58.0","6006B41E2D5A46B6958A7D3B26E8193B","0199dc20-d2ea-76c4-96b2-fa632d52d4b0","0199dbff-9ef9-7d24-b003-ca5c47ba9671","","1649","","{""Q0"":4}","2","1","surprise_rating","","[0]"
"","","","","","survey-likert","59","264158","0.0-59.0","6006B41E2D5A46B6958A7D3B26E8193B","0199dc20-d2ea-76c4-96b2-fa632d52d4b0","0199dbff-9ef9-7d24-b003-ca5c47ba9671","","1105","","{""Q0"":0}","2","1","enjoyment_rating","","[0]"
"","","","","","html-keyboard-response","60","270163","0.0-60.0","6006B41E2D5A46B6958A7D3B26E8193B","0199dc20-d2ea-76c4-96b2-fa632d52d4b0","0199dbff-9ef9-7d24-b003-ca5c47ba9671","","null","<div style=""display: flex; justify-content: center; align-items: center;"">
                     <img src=""images/other/blank.png"" style=""width: 300px; height: 300px;"" />
                   </div>","null","0","0","blank","",""
"","","","","","html-keyboard-response","61","276180","0.0-61.0","6006B41E2D5A46B6958A7D3B26E8193B","0199dc20-d2ea-76c4-96b2-fa632d52d4b0","0199dbff-9ef9-7d24-b003-ca5c47ba9671","","null","<div style=""display: flex; justify-content: center; align-items: center;"">
                     <img src=""images/causal/causal_series_7/causal_series_7_a.png"" style=""width: 300px; height: 300px;"" />
                   </div>","null","7","1","A","",""
"","","","","","html-keyboard-response","62","282191","0.0-62.0","6006B41E2D5A46B6958A7D3B26E8193B","0199dc20-d2ea-76c4-96b2-fa632d52d4b0","0199dbff-9ef9-7d24-b003-ca5c47ba9671","","null","<div style=""display: flex; justify-content: center; align-items: center;"">
                     <img src=""images/causal/causal_series_7/causal_series_7_b.png"" style=""width: 300px; height: 300px;"" />
                   </div>","null","7","1","B","",""
"","","","","","html-keyboard-response","63","288193","0.0-63.0","6006B41E2D5A46B6958A7D3B26E8193B","0199dc20-d2ea-76c4-96b2-fa632d52d4b0","0199dbff-9ef9-7d24-b003-ca5c47ba9671","","null","<div style=""display: flex; justify-content: center; align-items: center;"">
                     <img src=""images/causal/causal_series_7/causal_series_7_c.png"" style=""width: 300px; height: 300px;"" />
                   </div>","null","7","1","C","",""
"","","","","","html-button-response","64","289303","0.0-64.0","6006B41E2D5A46B6958A7D3B26E8193B","0199dc20-d2ea-76c4-96b2-fa632d52d4b0","0199dbff-9ef9-7d24-b003-ca5c47ba9671","","1109","
        <div style=""display: flex; justify-content: center; align-items: center;"">
          <img src=""images/red_deck_2.png"" style=""width: 300px; height: 300px; margin-right: 10px;"" />
          <img src=""images/blue_deck_1.png"" style=""width: 300px; height: 300px;"" />
        </div>","1","7","1","choice","1",""
"","","","","","html-keyboard-response","65","295306","0.0-65.0-1.0-0.0","6006B41E2D5A46B6958A7D3B26E8193B","0199dc20-d2ea-76c4-96b2-fa632d52d4b0","0199dbff-9ef9-7d24-b003-ca5c47ba9671","","null","<div style=""display: flex; justify-content: center; align-items: center;"">
                     <img src=""images/semantic/semantic_series_7/semantic_series_7_d.png"" style=""width: 300px; height: 300px;"" />
                   </div>","null","7","1","D","",""
"","","","","","survey-likert","66","297049","0.0-66.0","6006B41E2D5A46B6958A7D3B26E8193B","0199dc20-d2ea-76c4-96b2-fa632d52d4b0","0199dbff-9ef9-7d24-b003-ca5c47ba9671","","1741","","{""Q0"":4}","7","1","surprise_rating","","[0]"
"","","","","","survey-likert","67","298407","0.0-67.0","6006B41E2D5A46B6958A7D3B26E8193B","0199dc20-d2ea-76c4-96b2-fa632d52d4b0","0199dbff-9ef9-7d24-b003-ca5c47ba9671","","1358","","{""Q0"":0}","7","1","enjoyment_rating","","[0]"
"","","","","","html-keyboard-response","68","304417","0.0-68.0","6006B41E2D5A46B6958A7D3B26E8193B","0199dc20-d2ea-76c4-96b2-fa632d52d4b0","0199dbff-9ef9-7d24-b003-ca5c47ba9671","","null","<div style=""display: flex; justify-content: center; align-items: center;"">
                     <img src=""images/other/blank.png"" style=""width: 300px; height: 300px;"" />
                   </div>","null","0","0","blank","",""
"","","","","","html-keyboard-response","69","310429","0.0-69.0","6006B41E2D5A46B6958A7D3B26E8193B","0199dc20-d2ea-76c4-96b2-fa632d52d4b0","0199dbff-9ef9-7d24-b003-ca5c47ba9671","","null","<div style=""display: flex; justify-content: center; align-items: center;"">
                     <img src=""images/causal/causal_series_8/causal_series_8_a.png"" style=""width: 300px; height: 300px;"" />
                   </div>","null","8","1","A","",""
"","","","","","html-keyboard-response","70","316432","0.0-70.0","6006B41E2D5A46B6958A7D3B26E8193B","0199dc20-d2ea-76c4-96b2-fa632d52d4b0","0199dbff-9ef9-7d24-b003-ca5c47ba9671","","null","<div style=""display: flex; justify-content: center; align-items: center;"">
                     <img src=""images/causal/causal_series_8/causal_series_8_b.png"" style=""width: 300px; height: 300px;"" />
                   </div>","null","8","1","B","",""
"","","","","","html-keyboard-response","71","322434","0.0-71.0","6006B41E2D5A46B6958A7D3B26E8193B","0199dc20-d2ea-76c4-96b2-fa632d52d4b0","0199dbff-9ef9-7d24-b003-ca5c47ba9671","","null","<div style=""display: flex; justify-content: center; align-items: center;"">
                     <img src=""images/causal/causal_series_8/causal_series_8_c.png"" style=""width: 300px; height: 300px;"" />
                   </div>","null","8","1","C","",""
"","","","","","html-button-response","72","323459","0.0-72.0","6006B41E2D5A46B6958A7D3B26E8193B","0199dc20-d2ea-76c4-96b2-fa632d52d4b0","0199dbff-9ef9-7d24-b003-ca5c47ba9671","","1025","
        <div style=""display: flex; justify-content: center; align-items: center;"">
          <img src=""images/red_deck_2.png"" style=""width: 300px; height: 300px; margin-right: 10px;"" />
          <img src=""images/blue_deck_1.png"" style=""width: 300px; height: 300px;"" />
        </div>","0","8","1","choice","0",""
"","","","","","html-keyboard-response","73","329475","0.0-73.0-0.0-0.0","6006B41E2D5A46B6958A7D3B26E8193B","0199dc20-d2ea-76c4-96b2-fa632d52d4b0","0199dbff-9ef9-7d24-b003-ca5c47ba9671","","null","<div style=""display: flex; justify-content: center; align-items: center;"">
                     <img src=""images/causal/causal_series_8/causal_series_8_d.png"" style=""width: 300px; height: 300px;"" />
                   </div>","null","8","1","D","",""
"","","","","","survey-likert","74","331655","0.0-74.0","6006B41E2D5A46B6958A7D3B26E8193B","0199dc20-d2ea-76c4-96b2-fa632d52d4b0","0199dbff-9ef9-7d24-b003-ca5c47ba9671","","2178","","{""Q0"":2}","8","1","surprise_rating","","[0]"
"","","","","","survey-likert","75","332917","0.0-75.0","6006B41E2D5A46B6958A7D3B26E8193B","0199dc20-d2ea-76c4-96b2-fa632d52d4b0","0199dbff-9ef9-7d24-b003-ca5c47ba9671","","1262","","{""Q0"":4}","8","1","enjoyment_rating","","[0]"
"","","","","","html-keyboard-response","76","338920","0.0-76.0","6006B41E2D5A46B6958A7D3B26E8193B","0199dc20-d2ea-76c4-96b2-fa632d52d4b0","0199dbff-9ef9-7d24-b003-ca5c47ba9671","","null","<div style=""display: flex; justify-content: center; align-items: center;"">
                     <img src=""images/other/blank.png"" style=""width: 300px; height: 300px;"" />
                   </div>","null","0","0","blank","",""
"","","","","","html-keyboard-response","77","344934","0.0-77.0","6006B41E2D5A46B6958A7D3B26E8193B","0199dc20-d2ea-76c4-96b2-fa632d52d4b0","0199dbff-9ef9-7d24-b003-ca5c47ba9671","","null","<div style=""display: flex; justify-content: center; align-items: center;"">
                     <img src=""images/causal/causal_series_9/causal_series_9_a.png"" style=""width: 300px; height: 300px;"" />
                   </div>","null","9","1","A","",""
"","","","","","html-keyboard-response","78","350944","0.0-78.0","6006B41E2D5A46B6958A7D3B26E8193B","0199dc20-d2ea-76c4-96b2-fa632d52d4b0","0199dbff-9ef9-7d24-b003-ca5c47ba9671","","null","<div style=""display: flex; justify-content: center; align-items: center;"">
                     <img src=""images/causal/causal_series_9/causal_series_9_b.png"" style=""width: 300px; height: 300px;"" />
                   </div>","null","9","1","B","",""
"","","","","","html-keyboard-response","79","356950","0.0-79.0","6006B41E2D5A46B6958A7D3B26E8193B","0199dc20-d2ea-76c4-96b2-fa632d52d4b0","0199dbff-9ef9-7d24-b003-ca5c47ba9671","","null","<div style=""display: flex; justify-content: center; align-items: center;"">
                     <img src=""images/causal/causal_series_9/causal_series_9_c.png"" style=""width: 300px; height: 300px;"" />
                   </div>","null","9","1","C","",""
"","","","","","html-button-response","80","358204","0.0-80.0","6006B41E2D5A46B6958A7D3B26E8193B","0199dc20-d2ea-76c4-96b2-fa632d52d4b0","0199dbff-9ef9-7d24-b003-ca5c47ba9671","","1253","
        <div style=""display: flex; justify-content: center; align-items: center;"">
          <img src=""images/red_deck_2.png"" style=""width: 300px; height: 300px; margin-right: 10px;"" />
          <img src=""images/blue_deck_1.png"" style=""width: 300px; height: 300px;"" />
        </div>","0","9","1","choice","0",""
"","","","","","html-keyboard-response","81","364215","0.0-81.0-0.0-0.0","6006B41E2D5A46B6958A7D3B26E8193B","0199dc20-d2ea-76c4-96b2-fa632d52d4b0","0199dbff-9ef9-7d24-b003-ca5c47ba9671","","null","<div style=""display: flex; justify-content: center; align-items: center;"">
                     <img src=""images/causal/causal_series_9/causal_series_9_d.png"" style=""width: 300px; height: 300px;"" />
                   </div>","null","9","1","D","",""
"","","","","","survey-likert","82","366175","0.0-82.0","6006B41E2D5A46B6958A7D3B26E8193B","0199dc20-d2ea-76c4-96b2-fa632d52d4b0","0199dbff-9ef9-7d24-b003-ca5c47ba9671","","1959","","{""Q0"":3}","9","1","surprise_rating","","[0]"
"","","","","","survey-likert","83","367505","0.0-83.0","6006B41E2D5A46B6958A7D3B26E8193B","0199dc20-d2ea-76c4-96b2-fa632d52d4b0","0199dbff-9ef9-7d24-b003-ca5c47ba9671","","1330","","{""Q0"":1}","9","1","enjoyment_rating","","[0]"
"","","","","","html-keyboard-response","84","373510","0.0-84.0","6006B41E2D5A46B6958A7D3B26E8193B","0199dc20-d2ea-76c4-96b2-fa632d52d4b0","0199dbff-9ef9-7d24-b003-ca5c47ba9671","","null","<div style=""display: flex; justify-content: center; align-items: center;"">
                     <img src=""images/other/blank.png"" style=""width: 300px; height: 300px;"" />
                   </div>","null","0","0","blank","",""
"","","","","","survey-text","85","392960","0.0-85.0","6006B41E2D5A46B6958A7D3B26E8193B","0199dc20-d2ea-76c4-96b2-fa632d52d4b0","0199dbff-9ef9-7d24-b003-ca5c47ba9671","","19445","","{""Q0"":""Not really. Both cards had a chance to throw a curveball at the end of the sequence. ""}","","","","",""
"","","","","","html-button-response","86","395996","0.0-86.0","6006B41E2D5A46B6958A7D3B26E8193B","0199dc20-d2ea-76c4-96b2-fa632d52d4b0","0199dbff-9ef9-7d24-b003-ca5c47ba9671","","3035","Which color deck do the following sentences continue the story from?","1","","","","",""
"","","","","","html-button-response","87","398861","0.0-87.0","6006B41E2D5A46B6958A7D3B26E8193B","0199dc20-d2ea-76c4-96b2-fa632d52d4b0","0199dbff-9ef9-7d24-b003-ca5c47ba9671","","2865","Which color deck do the following sentences NOT follow the story from?","0","","","","",""
"","","","","","html-button-response","88","401912","0.0-88.0","6006B41E2D5A46B6958A7D3B26E8193B","0199dc20-d2ea-76c4-96b2-fa632d52d4b0","0199dbff-9ef9-7d24-b003-ca5c47ba9671","","3050","Which type of deck did you prefer overall?","0","","","","",""
"","","","","","survey-text","89","406752","0.0-89.0","6006B41E2D5A46B6958A7D3B26E8193B","0199dc20-d2ea-76c4-96b2-fa632d52d4b0","0199dbff-9ef9-7d24-b003-ca5c47ba9671","","4839","","{""Q0"":""male"",""Q1"":""23""}","","","","",""
"","","","","","instructions","90","410388","0.0-90.0","6006B41E2D5A46B6958A7D3B26E8193B","0199dc20-d2ea-76c4-96b2-fa632d52d4b0","0199dbff-9ef9-7d24-b003-ca5c47ba9671","[{""page_index"":0,""viewing_time"":3636}]","3636","","","","","","",""
