"success","timeout","failed_images","failed_audio","failed_video","trial_type","trial_index","time_elapsed","internal_node_id","subject_id","study_id","session_id","view_history","rt","stimulus","response","choice"
"true","false","[]","[]","[]","preload","0","4808","0.0-0.0","5AE8FC890AA2472FA0E98EFA2A4BB2F6","10f4c681-f677-41e3-ae81-72edc0ec64d6","935a6d0c-0ba8-4f12-81d2-6af4ae24cda6","","","","",""
"","","","","","instructions","1","9921","0.0-1.0","5AE8FC890AA2472FA0E98EFA2A4BB2F6","10f4c681-f677-41e3-ae81-72edc0ec64d6","935a6d0c-0ba8-4f12-81d2-6af4ae24cda6","[{""page_index"":0,""viewing_time"":5111}]","5112","","",""
"","","","","","instructions","2","32713","0.0-2.0","5AE8FC890AA2472FA0E98EFA2A4BB2F6","10f4c681-f677-41e3-ae81-72edc0ec64d6","935a6d0c-0ba8-4f12-81d2-6af4ae24cda6","[{""page_index"":0,""viewing_time"":22788}]","22790","","",""
"true","","","","","fullscreen","3","36146","0.0-3.0","5AE8FC890AA2472FA0E98EFA2A4BB2F6","10f4c681-f677-41e3-ae81-72edc0ec64d6","935a6d0c-0ba8-4f12-81d2-6af4ae24cda6","","2410","","",""
"","","","","","instructions","4","56738","0.0-4.0","5AE8FC890AA2472FA0E98EFA2A4BB2F6","10f4c681-f677-41e3-ae81-72edc0ec64d6","935a6d0c-0ba8-4f12-81d2-6af4ae24cda6","[{""page_index"":0,""viewing_time"":20589}]","20590","","",""
"","","","","","html-keyboard-response","5","59754","0.0-5.0","5AE8FC890AA2472FA0E98EFA2A4BB2F6","10f4c681-f677-41e3-ae81-72edc0ec64d6","935a6d0c-0ba8-4f12-81d2-6af4ae24cda6","","null","<div style=""display: flex; justify-content: center; align-items: center;"">
                <img src=""images/causal/causal_series_1/causal_series_1_a.jpg"" style=""width: 300px; height: 300px;"" />
              </div>","null",""
"","","","","","html-button-response","6","62971","0.0-6.0","5AE8FC890AA2472FA0E98EFA2A4BB2F6","10f4c681-f677-41e3-ae81-72edc0ec64d6","935a6d0c-0ba8-4f12-81d2-6af4ae24cda6","","3213","
    <div style=""display: flex; justify-content: center; align-items: center;"">
      <img src=""images/red_deck_2.png"" style=""width: 300px; height: 300px; margin-right: 10px;"" />
      <img src=""images/blue_deck_1.png"" style=""width: 300px; height: 300px;"" />
    </div>","1","1"
"","","","","","html-keyboard-response","7","65982","0.0-7.0-1.0-0.0","5AE8FC890AA2472FA0E98EFA2A4BB2F6","10f4c681-f677-41e3-ae81-72edc0ec64d6","935a6d0c-0ba8-4f12-81d2-6af4ae24cda6","","null","<div style=""display: flex; justify-content: center; align-items: center;"">
                <img src=""images/semantic/semantic_series_18/semantic_series_18_d.jpg"" style=""width: 300px; height: 300px;"" />
              </div>","null",""
"","","","","","html-keyboard-response","8","68998","0.0-7.0-1.0-1.0","5AE8FC890AA2472FA0E98EFA2A4BB2F6","10f4c681-f677-41e3-ae81-72edc0ec64d6","935a6d0c-0ba8-4f12-81d2-6af4ae24cda6","","null","<div style=""display: flex; justify-content: center; align-items: center;"">
                <img src=""images/semantic/semantic_series_1/semantic_series_1_d.jpg"" style=""width: 300px; height: 300px;"" />
              </div>","null",""
"","","","","","html-keyboard-response","9","72014","0.0-7.0-1.0-2.0","5AE8FC890AA2472FA0E98EFA2A4BB2F6","10f4c681-f677-41e3-ae81-72edc0ec64d6","935a6d0c-0ba8-4f12-81d2-6af4ae24cda6","","null","<div style=""display: flex; justify-content: center; align-items: center;"">
                <img src=""images/semantic/semantic_series_2/semantic_series_2_d.jpg"" style=""width: 300px; height: 300px;"" />
              </div>","null",""
"","","","","","html-keyboard-response","10","75032","0.0-8.0","5AE8FC890AA2472FA0E98EFA2A4BB2F6","10f4c681-f677-41e3-ae81-72edc0ec64d6","935a6d0c-0ba8-4f12-81d2-6af4ae24cda6","","null","<div style=""display: flex; justify-content: center; align-items: center;"">
                <img src=""images/other/blank.jpg"" style=""width: 300px; height: 300px;"" />
              </div>","null",""
"","","","","","html-keyboard-response","11","78041","0.0-9.0","5AE8FC890AA2472FA0E98EFA2A4BB2F6","10f4c681-f677-41e3-ae81-72edc0ec64d6","935a6d0c-0ba8-4f12-81d2-6af4ae24cda6","","null","<div style=""display: flex; justify-content: center; align-items: center;"">
                <img src=""images/causal/causal_series_16/causal_series_16_a.jpg"" style=""width: 300px; height: 300px;"" />
              </div>","null",""
"","","","","","html-button-response","12","80097","0.0-10.0","5AE8FC890AA2472FA0E98EFA2A4BB2F6","10f4c681-f677-41e3-ae81-72edc0ec64d6","935a6d0c-0ba8-4f12-81d2-6af4ae24cda6","","2052","
    <div style=""display: flex; justify-content: center; align-items: center;"">
      <img src=""images/red_deck_2.png"" style=""width: 300px; height: 300px; margin-right: 10px;"" />
      <img src=""images/blue_deck_1.png"" style=""width: 300px; height: 300px;"" />
    </div>","1","1"
"","","","","","html-keyboard-response","13","83103","0.0-11.0-1.0-0.0","5AE8FC890AA2472FA0E98EFA2A4BB2F6","10f4c681-f677-41e3-ae81-72edc0ec64d6","935a6d0c-0ba8-4f12-81d2-6af4ae24cda6","","null","<div style=""display: flex; justify-content: center; align-items: center;"">
                <img src=""images/semantic/semantic_series_9/semantic_series_9_d.jpg"" style=""width: 300px; height: 300px;"" />
              </div>","null",""
"","","","","","html-keyboard-response","14","86110","0.0-11.0-1.0-1.0","5AE8FC890AA2472FA0E98EFA2A4BB2F6","10f4c681-f677-41e3-ae81-72edc0ec64d6","935a6d0c-0ba8-4f12-81d2-6af4ae24cda6","","null","<div style=""display: flex; justify-content: center; align-items: center;"">
                <img src=""images/semantic/semantic_series_10/semantic_series_10_d.jpg"" style=""width: 300px; height: 300px;"" />
              </div>","null",""
"","","","","","html-keyboard-response","15","89120","0.0-11.0-1.0-2.0","5AE8FC890AA2472FA0E98EFA2A4BB2F6","10f4c681-f677-41e3-ae81-72edc0ec64d6","935a6d0c-0ba8-4f12-81d2-6af4ae24cda6","","null","<div style=""display: flex; justify-content: center; align-items: center;"">
                <img src=""images/semantic/semantic_series_11/semantic_series_11_d.jpg"" style=""width: 300px; height: 300px;"" />
              </div>","null",""
"","","","","","html-keyboard-response","16","92134","0.0-12.0","5AE8FC890AA2472FA0E98EFA2A4BB2F6","10f4c681-f677-41e3-ae81-72edc0ec64d6","935a6d0c-0ba8-4f12-81d2-6af4ae24cda6","","null","<div style=""display: flex; justify-content: center; align-items: center;"">
                <img src=""images/other/blank.jpg"" style=""width: 300px; height: 300px;"" />
              </div>","null",""
"","","","","","html-keyboard-response","17","95151","0.0-13.0","5AE8FC890AA2472FA0E98EFA2A4BB2F6","10f4c681-f677-41e3-ae81-72edc0ec64d6","935a6d0c-0ba8-4f12-81d2-6af4ae24cda6","","null","<div style=""display: flex; justify-content: center; align-items: center;"">
                <img src=""images/causal/causal_series_12/causal_series_12_a.jpg"" style=""width: 300px; height: 300px;"" />
              </div>","null",""
"","","","","","html-button-response","18","97357","0.0-14.0","5AE8FC890AA2472FA0E98EFA2A4BB2F6","10f4c681-f677-41e3-ae81-72edc0ec64d6","935a6d0c-0ba8-4f12-81d2-6af4ae24cda6","","2203","
    <div style=""display: flex; justify-content: center; align-items: center;"">
      <img src=""images/red_deck_2.png"" style=""width: 300px; height: 300px; margin-right: 10px;"" />
      <img src=""images/blue_deck_1.png"" style=""width: 300px; height: 300px;"" />
    </div>","1","1"
"","","","","","html-keyboard-response","19","100367","0.0-15.0-1.0-0.0","5AE8FC890AA2472FA0E98EFA2A4BB2F6","10f4c681-f677-41e3-ae81-72edc0ec64d6","935a6d0c-0ba8-4f12-81d2-6af4ae24cda6","","null","<div style=""display: flex; justify-content: center; align-items: center;"">
                <img src=""images/semantic/semantic_series_15/semantic_series_15_d.jpg"" style=""width: 300px; height: 300px;"" />
              </div>","null",""
"","","","","","html-keyboard-response","20","103384","0.0-15.0-1.0-1.0","5AE8FC890AA2472FA0E98EFA2A4BB2F6","10f4c681-f677-41e3-ae81-72edc0ec64d6","935a6d0c-0ba8-4f12-81d2-6af4ae24cda6","","null","<div style=""display: flex; justify-content: center; align-items: center;"">
                <img src=""images/semantic/semantic_series_16/semantic_series_16_d.jpg"" style=""width: 300px; height: 300px;"" />
              </div>","null",""
"","","","","","html-keyboard-response","21","106391","0.0-15.0-1.0-2.0","5AE8FC890AA2472FA0E98EFA2A4BB2F6","10f4c681-f677-41e3-ae81-72edc0ec64d6","935a6d0c-0ba8-4f12-81d2-6af4ae24cda6","","null","<div style=""display: flex; justify-content: center; align-items: center;"">
                <img src=""images/semantic/semantic_series_17/semantic_series_17_d.jpg"" style=""width: 300px; height: 300px;"" />
              </div>","null",""
"","","","","","html-keyboard-response","22","109395","0.0-16.0","5AE8FC890AA2472FA0E98EFA2A4BB2F6","10f4c681-f677-41e3-ae81-72edc0ec64d6","935a6d0c-0ba8-4f12-81d2-6af4ae24cda6","","null","<div style=""display: flex; justify-content: center; align-items: center;"">
                <img src=""images/other/blank.jpg"" style=""width: 300px; height: 300px;"" />
              </div>","null",""
"","","","","","html-keyboard-response","23","112402","0.0-17.0","5AE8FC890AA2472FA0E98EFA2A4BB2F6","10f4c681-f677-41e3-ae81-72edc0ec64d6","935a6d0c-0ba8-4f12-81d2-6af4ae24cda6","","null","<div style=""display: flex; justify-content: center; align-items: center;"">
                <img src=""images/causal/causal_series_6/causal_series_6_a.jpg"" style=""width: 300px; height: 300px;"" />
              </div>","null",""
"","","","","","html-button-response","24","113855","0.0-18.0","5AE8FC890AA2472FA0E98EFA2A4BB2F6","10f4c681-f677-41e3-ae81-72edc0ec64d6","935a6d0c-0ba8-4f12-81d2-6af4ae24cda6","","1447","
    <div style=""display: flex; justify-content: center; align-items: center;"">
      <img src=""images/red_deck_2.png"" style=""width: 300px; height: 300px; margin-right: 10px;"" />
      <img src=""images/blue_deck_1.png"" style=""width: 300px; height: 300px;"" />
    </div>","0","0"
"","","","","","html-keyboard-response","25","116861","0.0-19.0-0.0-0.0","5AE8FC890AA2472FA0E98EFA2A4BB2F6","10f4c681-f677-41e3-ae81-72edc0ec64d6","935a6d0c-0ba8-4f12-81d2-6af4ae24cda6","","null","<div style=""display: flex; justify-content: center; align-items: center;"">
                <img src=""images/causal/causal_series_6/causal_series_6_b.jpg"" style=""width: 300px; height: 300px;"" />
              </div>","null",""
"","","","","","html-keyboard-response","26","119867","0.0-19.0-0.0-1.0","5AE8FC890AA2472FA0E98EFA2A4BB2F6","10f4c681-f677-41e3-ae81-72edc0ec64d6","935a6d0c-0ba8-4f12-81d2-6af4ae24cda6","","null","<div style=""display: flex; justify-content: center; align-items: center;"">
                <img src=""images/causal/causal_series_6/causal_series_6_c.jpg"" style=""width: 300px; height: 300px;"" />
              </div>","null",""
"","","","","","html-keyboard-response","27","122875","0.0-19.0-0.0-2.0","5AE8FC890AA2472FA0E98EFA2A4BB2F6","10f4c681-f677-41e3-ae81-72edc0ec64d6","935a6d0c-0ba8-4f12-81d2-6af4ae24cda6","","null","<div style=""display: flex; justify-content: center; align-items: center;"">
                <img src=""images/causal/causal_series_6/causal_series_6_d.jpg"" style=""width: 300px; height: 300px;"" />
              </div>","null",""
"","","","","","html-keyboard-response","28","125881","0.0-20.0","5AE8FC890AA2472FA0E98EFA2A4BB2F6","10f4c681-f677-41e3-ae81-72edc0ec64d6","935a6d0c-0ba8-4f12-81d2-6af4ae24cda6","","null","<div style=""display: flex; justify-content: center; align-items: center;"">
                <img src=""images/other/blank.jpg"" style=""width: 300px; height: 300px;"" />
              </div>","null",""
"","","","","","html-keyboard-response","29","128886","0.0-21.0","5AE8FC890AA2472FA0E98EFA2A4BB2F6","10f4c681-f677-41e3-ae81-72edc0ec64d6","935a6d0c-0ba8-4f12-81d2-6af4ae24cda6","","null","<div style=""display: flex; justify-content: center; align-items: center;"">
                <img src=""images/causal/causal_series_9/causal_series_9_a.jpg"" style=""width: 300px; height: 300px;"" />
              </div>","null",""
"","","","","","html-button-response","30","129880","0.0-22.0","5AE8FC890AA2472FA0E98EFA2A4BB2F6","10f4c681-f677-41e3-ae81-72edc0ec64d6","935a6d0c-0ba8-4f12-81d2-6af4ae24cda6","","991","
    <div style=""display: flex; justify-content: center; align-items: center;"">
      <img src=""images/red_deck_2.png"" style=""width: 300px; height: 300px; margin-right: 10px;"" />
      <img src=""images/blue_deck_1.png"" style=""width: 300px; height: 300px;"" />
    </div>","0","0"
"","","","","","html-keyboard-response","31","132903","0.0-23.0-0.0-0.0","5AE8FC890AA2472FA0E98EFA2A4BB2F6","10f4c681-f677-41e3-ae81-72edc0ec64d6","935a6d0c-0ba8-4f12-81d2-6af4ae24cda6","","null","<div style=""display: flex; justify-content: center; align-items: center;"">
                <img src=""images/causal/causal_series_9/causal_series_9_b.jpg"" style=""width: 300px; height: 300px;"" />
              </div>","null",""
"","","","","","html-keyboard-response","32","135907","0.0-23.0-0.0-1.0","5AE8FC890AA2472FA0E98EFA2A4BB2F6","10f4c681-f677-41e3-ae81-72edc0ec64d6","935a6d0c-0ba8-4f12-81d2-6af4ae24cda6","","null","<div style=""display: flex; justify-content: center; align-items: center;"">
                <img src=""images/causal/causal_series_9/causal_series_9_c.jpg"" style=""width: 300px; height: 300px;"" />
              </div>","null",""
"","","","","","html-keyboard-response","33","138918","0.0-23.0-0.0-2.0","5AE8FC890AA2472FA0E98EFA2A4BB2F6","10f4c681-f677-41e3-ae81-72edc0ec64d6","935a6d0c-0ba8-4f12-81d2-6af4ae24cda6","","null","<div style=""display: flex; justify-content: center; align-items: center;"">
                <img src=""images/causal/causal_series_9/causal_series_9_d.jpg"" style=""width: 300px; height: 300px;"" />
              </div>","null",""
"","","","","","html-keyboard-response","34","141925","0.0-24.0","5AE8FC890AA2472FA0E98EFA2A4BB2F6","10f4c681-f677-41e3-ae81-72edc0ec64d6","935a6d0c-0ba8-4f12-81d2-6af4ae24cda6","","null","<div style=""display: flex; justify-content: center; align-items: center;"">
                <img src=""images/other/blank.jpg"" style=""width: 300px; height: 300px;"" />
              </div>","null",""
"","","","","","html-keyboard-response","35","144928","0.0-25.0","5AE8FC890AA2472FA0E98EFA2A4BB2F6","10f4c681-f677-41e3-ae81-72edc0ec64d6","935a6d0c-0ba8-4f12-81d2-6af4ae24cda6","","null","<div style=""display: flex; justify-content: center; align-items: center;"">
                <img src=""images/causal/causal_series_11/causal_series_11_a.jpg"" style=""width: 300px; height: 300px;"" />
              </div>","null",""
"","","","","","html-button-response","36","145871","0.0-26.0","5AE8FC890AA2472FA0E98EFA2A4BB2F6","10f4c681-f677-41e3-ae81-72edc0ec64d6","935a6d0c-0ba8-4f12-81d2-6af4ae24cda6","","941","
    <div style=""display: flex; justify-content: center; align-items: center;"">
      <img src=""images/red_deck_2.png"" style=""width: 300px; height: 300px; margin-right: 10px;"" />
      <img src=""images/blue_deck_1.png"" style=""width: 300px; height: 300px;"" />
    </div>","1","1"
"","","","","","html-keyboard-response","37","148888","0.0-27.0-1.0-0.0","5AE8FC890AA2472FA0E98EFA2A4BB2F6","10f4c681-f677-41e3-ae81-72edc0ec64d6","935a6d0c-0ba8-4f12-81d2-6af4ae24cda6","","null","<div style=""display: flex; justify-content: center; align-items: center;"">
                <img src=""images/semantic/semantic_series_12/semantic_series_12_d.jpg"" style=""width: 300px; height: 300px;"" />
              </div>","null",""
"","","","","","html-keyboard-response","38","151902","0.0-27.0-1.0-1.0","5AE8FC890AA2472FA0E98EFA2A4BB2F6","10f4c681-f677-41e3-ae81-72edc0ec64d6","935a6d0c-0ba8-4f12-81d2-6af4ae24cda6","","null","<div style=""display: flex; justify-content: center; align-items: center;"">
                <img src=""images/semantic/semantic_series_13/semantic_series_13_d.jpg"" style=""width: 300px; height: 300px;"" />
              </div>","null",""
"","","","","","html-keyboard-response","39","154916","0.0-27.0-1.0-2.0","5AE8FC890AA2472FA0E98EFA2A4BB2F6","10f4c681-f677-41e3-ae81-72edc0ec64d6","935a6d0c-0ba8-4f12-81d2-6af4ae24cda6","","null","<div style=""display: flex; justify-content: center; align-items: center;"">
                <img src=""images/semantic/semantic_series_14/semantic_series_14_d.jpg"" style=""width: 300px; height: 300px;"" />
              </div>","null",""
"","","","","","html-keyboard-response","40","157922","0.0-28.0","5AE8FC890AA2472FA0E98EFA2A4BB2F6","10f4c681-f677-41e3-ae81-72edc0ec64d6","935a6d0c-0ba8-4f12-81d2-6af4ae24cda6","","null","<div style=""display: flex; justify-content: center; align-items: center;"">
                <img src=""images/other/blank.jpg"" style=""width: 300px; height: 300px;"" />
              </div>","null",""
"","","","","","html-keyboard-response","41","160939","0.0-29.0","5AE8FC890AA2472FA0E98EFA2A4BB2F6","10f4c681-f677-41e3-ae81-72edc0ec64d6","935a6d0c-0ba8-4f12-81d2-6af4ae24cda6","","null","<div style=""display: flex; justify-content: center; align-items: center;"">
                <img src=""images/causal/causal_series_3/causal_series_3_a.jpg"" style=""width: 300px; height: 300px;"" />
              </div>","null",""
"","","","","","html-button-response","42","162486","0.0-30.0","5AE8FC890AA2472FA0E98EFA2A4BB2F6","10f4c681-f677-41e3-ae81-72edc0ec64d6","935a6d0c-0ba8-4f12-81d2-6af4ae24cda6","","1544","
    <div style=""display: flex; justify-content: center; align-items: center;"">
      <img src=""images/red_deck_2.png"" style=""width: 300px; height: 300px; margin-right: 10px;"" />
      <img src=""images/blue_deck_1.png"" style=""width: 300px; height: 300px;"" />
    </div>","0","0"
"","","","","","html-keyboard-response","43","165506","0.0-31.0-0.0-0.0","5AE8FC890AA2472FA0E98EFA2A4BB2F6","10f4c681-f677-41e3-ae81-72edc0ec64d6","935a6d0c-0ba8-4f12-81d2-6af4ae24cda6","","null","<div style=""display: flex; justify-content: center; align-items: center;"">
                <img src=""images/causal/causal_series_3/causal_series_3_b.jpg"" style=""width: 300px; height: 300px;"" />
              </div>","null",""
"","","","","","html-keyboard-response","44","168519","0.0-31.0-0.0-1.0","5AE8FC890AA2472FA0E98EFA2A4BB2F6","10f4c681-f677-41e3-ae81-72edc0ec64d6","935a6d0c-0ba8-4f12-81d2-6af4ae24cda6","","null","<div style=""display: flex; justify-content: center; align-items: center;"">
                <img src=""images/causal/causal_series_3/causal_series_3_c.jpg"" style=""width: 300px; height: 300px;"" />
              </div>","null",""
"","","","","","html-keyboard-response","45","171526","0.0-31.0-0.0-2.0","5AE8FC890AA2472FA0E98EFA2A4BB2F6","10f4c681-f677-41e3-ae81-72edc0ec64d6","935a6d0c-0ba8-4f12-81d2-6af4ae24cda6","","null","<div style=""display: flex; justify-content: center; align-items: center;"">
                <img src=""images/causal/causal_series_3/causal_series_3_d.jpg"" style=""width: 300px; height: 300px;"" />
              </div>","null",""
"","","","","","html-keyboard-response","46","174532","0.0-32.0","5AE8FC890AA2472FA0E98EFA2A4BB2F6","10f4c681-f677-41e3-ae81-72edc0ec64d6","935a6d0c-0ba8-4f12-81d2-6af4ae24cda6","","null","<div style=""display: flex; justify-content: center; align-items: center;"">
                <img src=""images/other/blank.jpg"" style=""width: 300px; height: 300px;"" />
              </div>","null",""
"","","","","","html-keyboard-response","47","177541","0.0-33.0","5AE8FC890AA2472FA0E98EFA2A4BB2F6","10f4c681-f677-41e3-ae81-72edc0ec64d6","935a6d0c-0ba8-4f12-81d2-6af4ae24cda6","","null","<div style=""display: flex; justify-content: center; align-items: center;"">
                <img src=""images/causal/causal_series_2/causal_series_2_a.jpg"" style=""width: 300px; height: 300px;"" />
              </div>","null",""
"","","","","","html-button-response","48","178674","0.0-34.0","5AE8FC890AA2472FA0E98EFA2A4BB2F6","10f4c681-f677-41e3-ae81-72edc0ec64d6","935a6d0c-0ba8-4f12-81d2-6af4ae24cda6","","1129","
    <div style=""display: flex; justify-content: center; align-items: center;"">
      <img src=""images/red_deck_2.png"" style=""width: 300px; height: 300px; margin-right: 10px;"" />
      <img src=""images/blue_deck_1.png"" style=""width: 300px; height: 300px;"" />
    </div>","1","1"
"","","","","","html-keyboard-response","49","181677","0.0-35.0-1.0-0.0","5AE8FC890AA2472FA0E98EFA2A4BB2F6","10f4c681-f677-41e3-ae81-72edc0ec64d6","935a6d0c-0ba8-4f12-81d2-6af4ae24cda6","","null","<div style=""display: flex; justify-content: center; align-items: center;"">
                <img src=""images/semantic/semantic_series_3/semantic_series_3_d.jpg"" style=""width: 300px; height: 300px;"" />
              </div>","null",""
"","","","","","html-keyboard-response","50","184694","0.0-35.0-1.0-1.0","5AE8FC890AA2472FA0E98EFA2A4BB2F6","10f4c681-f677-41e3-ae81-72edc0ec64d6","935a6d0c-0ba8-4f12-81d2-6af4ae24cda6","","null","<div style=""display: flex; justify-content: center; align-items: center;"">
                <img src=""images/semantic/semantic_series_4/semantic_series_4_d.jpg"" style=""width: 300px; height: 300px;"" />
              </div>","null",""
"","","","","","html-keyboard-response","51","187707","0.0-35.0-1.0-2.0","5AE8FC890AA2472FA0E98EFA2A4BB2F6","10f4c681-f677-41e3-ae81-72edc0ec64d6","935a6d0c-0ba8-4f12-81d2-6af4ae24cda6","","null","<div style=""display: flex; justify-content: center; align-items: center;"">
                <img src=""images/semantic/semantic_series_5/semantic_series_5_d.jpg"" style=""width: 300px; height: 300px;"" />
              </div>","null",""
"","","","","","html-keyboard-response","52","190714","0.0-36.0","5AE8FC890AA2472FA0E98EFA2A4BB2F6","10f4c681-f677-41e3-ae81-72edc0ec64d6","935a6d0c-0ba8-4f12-81d2-6af4ae24cda6","","null","<div style=""display: flex; justify-content: center; align-items: center;"">
                <img src=""images/other/blank.jpg"" style=""width: 300px; height: 300px;"" />
              </div>","null",""
"","","","","","html-keyboard-response","53","193722","0.0-37.0","5AE8FC890AA2472FA0E98EFA2A4BB2F6","10f4c681-f677-41e3-ae81-72edc0ec64d6","935a6d0c-0ba8-4f12-81d2-6af4ae24cda6","","null","<div style=""display: flex; justify-content: center; align-items: center;"">
                <img src=""images/causal/causal_series_4/causal_series_4_a.jpg"" style=""width: 300px; height: 300px;"" />
              </div>","null",""
"","","","","","html-button-response","54","194885","0.0-38.0","5AE8FC890AA2472FA0E98EFA2A4BB2F6","10f4c681-f677-41e3-ae81-72edc0ec64d6","935a6d0c-0ba8-4f12-81d2-6af4ae24cda6","","1162","
    <div style=""display: flex; justify-content: center; align-items: center;"">
      <img src=""images/red_deck_2.png"" style=""width: 300px; height: 300px; margin-right: 10px;"" />
      <img src=""images/blue_deck_1.png"" style=""width: 300px; height: 300px;"" />
    </div>","0","0"
"","","","","","html-keyboard-response","55","197889","0.0-39.0-0.0-0.0","5AE8FC890AA2472FA0E98EFA2A4BB2F6","10f4c681-f677-41e3-ae81-72edc0ec64d6","935a6d0c-0ba8-4f12-81d2-6af4ae24cda6","","null","<div style=""display: flex; justify-content: center; align-items: center;"">
                <img src=""images/causal/causal_series_4/causal_series_4_b.jpg"" style=""width: 300px; height: 300px;"" />
              </div>","null",""
"","","","","","html-keyboard-response","56","200892","0.0-39.0-0.0-1.0","5AE8FC890AA2472FA0E98EFA2A4BB2F6","10f4c681-f677-41e3-ae81-72edc0ec64d6","935a6d0c-0ba8-4f12-81d2-6af4ae24cda6","","null","<div style=""display: flex; justify-content: center; align-items: center;"">
                <img src=""images/causal/causal_series_4/causal_series_4_c.jpg"" style=""width: 300px; height: 300px;"" />
              </div>","null",""
"","","","","","html-keyboard-response","57","203899","0.0-39.0-0.0-2.0","5AE8FC890AA2472FA0E98EFA2A4BB2F6","10f4c681-f677-41e3-ae81-72edc0ec64d6","935a6d0c-0ba8-4f12-81d2-6af4ae24cda6","","null","<div style=""display: flex; justify-content: center; align-items: center;"">
                <img src=""images/causal/causal_series_4/causal_series_4_d.jpg"" style=""width: 300px; height: 300px;"" />
              </div>","null",""
"","","","","","html-keyboard-response","58","206904","0.0-40.0","5AE8FC890AA2472FA0E98EFA2A4BB2F6","10f4c681-f677-41e3-ae81-72edc0ec64d6","935a6d0c-0ba8-4f12-81d2-6af4ae24cda6","","null","<div style=""display: flex; justify-content: center; align-items: center;"">
                <img src=""images/other/blank.jpg"" style=""width: 300px; height: 300px;"" />
              </div>","null",""
"","","","","","html-keyboard-response","59","209916","0.0-41.0","5AE8FC890AA2472FA0E98EFA2A4BB2F6","10f4c681-f677-41e3-ae81-72edc0ec64d6","935a6d0c-0ba8-4f12-81d2-6af4ae24cda6","","null","<div style=""display: flex; justify-content: center; align-items: center;"">
                <img src=""images/causal/causal_series_13/causal_series_13_a.jpg"" style=""width: 300px; height: 300px;"" />
              </div>","null",""
"","","","","","html-button-response","60","210982","0.0-42.0","5AE8FC890AA2472FA0E98EFA2A4BB2F6","10f4c681-f677-41e3-ae81-72edc0ec64d6","935a6d0c-0ba8-4f12-81d2-6af4ae24cda6","","1063","
    <div style=""display: flex; justify-content: center; align-items: center;"">
      <img src=""images/red_deck_2.png"" style=""width: 300px; height: 300px; margin-right: 10px;"" />
      <img src=""images/blue_deck_1.png"" style=""width: 300px; height: 300px;"" />
    </div>","1","1"
"","","","","","html-keyboard-response","61","213993","0.0-43.0-1.0-0.0","5AE8FC890AA2472FA0E98EFA2A4BB2F6","10f4c681-f677-41e3-ae81-72edc0ec64d6","935a6d0c-0ba8-4f12-81d2-6af4ae24cda6","","null","<div style=""display: flex; justify-content: center; align-items: center;"">
                <img src=""images/semantic/semantic_series_18/semantic_series_18_d.jpg"" style=""width: 300px; height: 300px;"" />
              </div>","null",""
"","","","","","html-keyboard-response","62","217005","0.0-43.0-1.0-1.0","5AE8FC890AA2472FA0E98EFA2A4BB2F6","10f4c681-f677-41e3-ae81-72edc0ec64d6","935a6d0c-0ba8-4f12-81d2-6af4ae24cda6","","null","<div style=""display: flex; justify-content: center; align-items: center;"">
                <img src=""images/semantic/semantic_series_1/semantic_series_1_d.jpg"" style=""width: 300px; height: 300px;"" />
              </div>","null",""
"","","","","","html-keyboard-response","63","220018","0.0-43.0-1.0-2.0","5AE8FC890AA2472FA0E98EFA2A4BB2F6","10f4c681-f677-41e3-ae81-72edc0ec64d6","935a6d0c-0ba8-4f12-81d2-6af4ae24cda6","","null","<div style=""display: flex; justify-content: center; align-items: center;"">
                <img src=""images/semantic/semantic_series_2/semantic_series_2_d.jpg"" style=""width: 300px; height: 300px;"" />
              </div>","null",""
"","","","","","html-keyboard-response","64","223028","0.0-44.0","5AE8FC890AA2472FA0E98EFA2A4BB2F6","10f4c681-f677-41e3-ae81-72edc0ec64d6","935a6d0c-0ba8-4f12-81d2-6af4ae24cda6","","null","<div style=""display: flex; justify-content: center; align-items: center;"">
                <img src=""images/other/blank.jpg"" style=""width: 300px; height: 300px;"" />
              </div>","null",""
"","","","","","html-keyboard-response","65","226038","0.0-45.0","5AE8FC890AA2472FA0E98EFA2A4BB2F6","10f4c681-f677-41e3-ae81-72edc0ec64d6","935a6d0c-0ba8-4f12-81d2-6af4ae24cda6","","null","<div style=""display: flex; justify-content: center; align-items: center;"">
                <img src=""images/causal/causal_series_15/causal_series_15_a.jpg"" style=""width: 300px; height: 300px;"" />
              </div>","null",""
"","","","","","html-button-response","66","227030","0.0-46.0","5AE8FC890AA2472FA0E98EFA2A4BB2F6","10f4c681-f677-41e3-ae81-72edc0ec64d6","935a6d0c-0ba8-4f12-81d2-6af4ae24cda6","","989","
    <div style=""display: flex; justify-content: center; align-items: center;"">
      <img src=""images/red_deck_2.png"" style=""width: 300px; height: 300px; margin-right: 10px;"" />
      <img src=""images/blue_deck_1.png"" style=""width: 300px; height: 300px;"" />
    </div>","1","1"
"","","","","","html-keyboard-response","67","230046","0.0-47.0-1.0-0.0","5AE8FC890AA2472FA0E98EFA2A4BB2F6","10f4c681-f677-41e3-ae81-72edc0ec64d6","935a6d0c-0ba8-4f12-81d2-6af4ae24cda6","","null","<div style=""display: flex; justify-content: center; align-items: center;"">
                <img src=""images/semantic/semantic_series_6/semantic_series_6_d.jpg"" style=""width: 300px; height: 300px;"" />
              </div>","null",""
"","","","","","html-keyboard-response","68","233061","0.0-47.0-1.0-1.0","5AE8FC890AA2472FA0E98EFA2A4BB2F6","10f4c681-f677-41e3-ae81-72edc0ec64d6","935a6d0c-0ba8-4f12-81d2-6af4ae24cda6","","null","<div style=""display: flex; justify-content: center; align-items: center;"">
                <img src=""images/semantic/semantic_series_7/semantic_series_7_d.jpg"" style=""width: 300px; height: 300px;"" />
              </div>","null",""
"","","","","","html-keyboard-response","69","236070","0.0-47.0-1.0-2.0","5AE8FC890AA2472FA0E98EFA2A4BB2F6","10f4c681-f677-41e3-ae81-72edc0ec64d6","935a6d0c-0ba8-4f12-81d2-6af4ae24cda6","","null","<div style=""display: flex; justify-content: center; align-items: center;"">
                <img src=""images/semantic/semantic_series_8/semantic_series_8_d.jpg"" style=""width: 300px; height: 300px;"" />
              </div>","null",""
"","","","","","html-keyboard-response","70","239076","0.0-48.0","5AE8FC890AA2472FA0E98EFA2A4BB2F6","10f4c681-f677-41e3-ae81-72edc0ec64d6","935a6d0c-0ba8-4f12-81d2-6af4ae24cda6","","null","<div style=""display: flex; justify-content: center; align-items: center;"">
                <img src=""images/other/blank.jpg"" style=""width: 300px; height: 300px;"" />
              </div>","null",""
"","","","","","html-keyboard-response","71","242080","0.0-49.0","5AE8FC890AA2472FA0E98EFA2A4BB2F6","10f4c681-f677-41e3-ae81-72edc0ec64d6","935a6d0c-0ba8-4f12-81d2-6af4ae24cda6","","null","<div style=""display: flex; justify-content: center; align-items: center;"">
                <img src=""images/causal/causal_series_14/causal_series_14_a.jpg"" style=""width: 300px; height: 300px;"" />
              </div>","null",""
"","","","","","html-button-response","72","243020","0.0-50.0","5AE8FC890AA2472FA0E98EFA2A4BB2F6","10f4c681-f677-41e3-ae81-72edc0ec64d6","935a6d0c-0ba8-4f12-81d2-6af4ae24cda6","","938","
    <div style=""display: flex; justify-content: center; align-items: center;"">
      <img src=""images/red_deck_2.png"" style=""width: 300px; height: 300px; margin-right: 10px;"" />
      <img src=""images/blue_deck_1.png"" style=""width: 300px; height: 300px;"" />
    </div>","0","0"
"","","","","","html-keyboard-response","73","246024","0.0-51.0-0.0-0.0","5AE8FC890AA2472FA0E98EFA2A4BB2F6","10f4c681-f677-41e3-ae81-72edc0ec64d6","935a6d0c-0ba8-4f12-81d2-6af4ae24cda6","","null","<div style=""display: flex; justify-content: center; align-items: center;"">
                <img src=""images/causal/causal_series_14/causal_series_14_b.jpg"" style=""width: 300px; height: 300px;"" />
              </div>","null",""
"","","","","","html-keyboard-response","74","249028","0.0-51.0-0.0-1.0","5AE8FC890AA2472FA0E98EFA2A4BB2F6","10f4c681-f677-41e3-ae81-72edc0ec64d6","935a6d0c-0ba8-4f12-81d2-6af4ae24cda6","","null","<div style=""display: flex; justify-content: center; align-items: center;"">
                <img src=""images/causal/causal_series_14/causal_series_14_c.jpg"" style=""width: 300px; height: 300px;"" />
              </div>","null",""
"","","","","","html-keyboard-response","75","252042","0.0-51.0-0.0-2.0","5AE8FC890AA2472FA0E98EFA2A4BB2F6","10f4c681-f677-41e3-ae81-72edc0ec64d6","935a6d0c-0ba8-4f12-81d2-6af4ae24cda6","","null","<div style=""display: flex; justify-content: center; align-items: center;"">
                <img src=""images/causal/causal_series_14/causal_series_14_d.jpg"" style=""width: 300px; height: 300px;"" />
              </div>","null",""
"","","","","","html-keyboard-response","76","255046","0.0-52.0","5AE8FC890AA2472FA0E98EFA2A4BB2F6","10f4c681-f677-41e3-ae81-72edc0ec64d6","935a6d0c-0ba8-4f12-81d2-6af4ae24cda6","","null","<div style=""display: flex; justify-content: center; align-items: center;"">
                <img src=""images/other/blank.jpg"" style=""width: 300px; height: 300px;"" />
              </div>","null",""
"","","","","","html-keyboard-response","77","258052","0.0-53.0","5AE8FC890AA2472FA0E98EFA2A4BB2F6","10f4c681-f677-41e3-ae81-72edc0ec64d6","935a6d0c-0ba8-4f12-81d2-6af4ae24cda6","","null","<div style=""display: flex; justify-content: center; align-items: center;"">
                <img src=""images/causal/causal_series_17/causal_series_17_a.jpg"" style=""width: 300px; height: 300px;"" />
              </div>","null",""
"","","","","","html-button-response","78","259169","0.0-54.0","5AE8FC890AA2472FA0E98EFA2A4BB2F6","10f4c681-f677-41e3-ae81-72edc0ec64d6","935a6d0c-0ba8-4f12-81d2-6af4ae24cda6","","1114","
    <div style=""display: flex; justify-content: center; align-items: center;"">
      <img src=""images/red_deck_2.png"" style=""width: 300px; height: 300px; margin-right: 10px;"" />
      <img src=""images/blue_deck_1.png"" style=""width: 300px; height: 300px;"" />
    </div>","1","1"
"","","","","","html-keyboard-response","79","262174","0.0-55.0-1.0-0.0","5AE8FC890AA2472FA0E98EFA2A4BB2F6","10f4c681-f677-41e3-ae81-72edc0ec64d6","935a6d0c-0ba8-4f12-81d2-6af4ae24cda6","","null","<div style=""display: flex; justify-content: center; align-items: center;"">
                <img src=""images/semantic/semantic_series_12/semantic_series_12_d.jpg"" style=""width: 300px; height: 300px;"" />
              </div>","null",""
"","","","","","html-keyboard-response","80","265179","0.0-55.0-1.0-1.0","5AE8FC890AA2472FA0E98EFA2A4BB2F6","10f4c681-f677-41e3-ae81-72edc0ec64d6","935a6d0c-0ba8-4f12-81d2-6af4ae24cda6","","null","<div style=""display: flex; justify-content: center; align-items: center;"">
                <img src=""images/semantic/semantic_series_13/semantic_series_13_d.jpg"" style=""width: 300px; height: 300px;"" />
              </div>","null",""
"","","","","","html-keyboard-response","81","268184","0.0-55.0-1.0-2.0","5AE8FC890AA2472FA0E98EFA2A4BB2F6","10f4c681-f677-41e3-ae81-72edc0ec64d6","935a6d0c-0ba8-4f12-81d2-6af4ae24cda6","","null","<div style=""display: flex; justify-content: center; align-items: center;"">
                <img src=""images/semantic/semantic_series_14/semantic_series_14_d.jpg"" style=""width: 300px; height: 300px;"" />
              </div>","null",""
"","","","","","html-keyboard-response","82","271192","0.0-56.0","5AE8FC890AA2472FA0E98EFA2A4BB2F6","10f4c681-f677-41e3-ae81-72edc0ec64d6","935a6d0c-0ba8-4f12-81d2-6af4ae24cda6","","null","<div style=""display: flex; justify-content: center; align-items: center;"">
                <img src=""images/other/blank.jpg"" style=""width: 300px; height: 300px;"" />
              </div>","null",""
"","","","","","html-keyboard-response","83","274202","0.0-57.0","5AE8FC890AA2472FA0E98EFA2A4BB2F6","10f4c681-f677-41e3-ae81-72edc0ec64d6","935a6d0c-0ba8-4f12-81d2-6af4ae24cda6","","null","<div style=""display: flex; justify-content: center; align-items: center;"">
                <img src=""images/causal/causal_series_8/causal_series_8_a.jpg"" style=""width: 300px; height: 300px;"" />
              </div>","null",""
"","","","","","html-button-response","84","275195","0.0-58.0","5AE8FC890AA2472FA0E98EFA2A4BB2F6","10f4c681-f677-41e3-ae81-72edc0ec64d6","935a6d0c-0ba8-4f12-81d2-6af4ae24cda6","","990","
    <div style=""display: flex; justify-content: center; align-items: center;"">
      <img src=""images/red_deck_2.png"" style=""width: 300px; height: 300px; margin-right: 10px;"" />
      <img src=""images/blue_deck_1.png"" style=""width: 300px; height: 300px;"" />
    </div>","0","0"
"","","","","","html-keyboard-response","85","278213","0.0-59.0-0.0-0.0","5AE8FC890AA2472FA0E98EFA2A4BB2F6","10f4c681-f677-41e3-ae81-72edc0ec64d6","935a6d0c-0ba8-4f12-81d2-6af4ae24cda6","","null","<div style=""display: flex; justify-content: center; align-items: center;"">
                <img src=""images/causal/causal_series_8/causal_series_8_b.jpg"" style=""width: 300px; height: 300px;"" />
              </div>","null",""
"","","","","","html-keyboard-response","86","281221","0.0-59.0-0.0-1.0","5AE8FC890AA2472FA0E98EFA2A4BB2F6","10f4c681-f677-41e3-ae81-72edc0ec64d6","935a6d0c-0ba8-4f12-81d2-6af4ae24cda6","","null","<div style=""display: flex; justify-content: center; align-items: center;"">
                <img src=""images/causal/causal_series_8/causal_series_8_c.jpg"" style=""width: 300px; height: 300px;"" />
              </div>","null",""
"","","","","","html-keyboard-response","87","284236","0.0-59.0-0.0-2.0","5AE8FC890AA2472FA0E98EFA2A4BB2F6","10f4c681-f677-41e3-ae81-72edc0ec64d6","935a6d0c-0ba8-4f12-81d2-6af4ae24cda6","","null","<div style=""display: flex; justify-content: center; align-items: center;"">
                <img src=""images/causal/causal_series_8/causal_series_8_d.jpg"" style=""width: 300px; height: 300px;"" />
              </div>","null",""
"","","","","","html-keyboard-response","88","287239","0.0-60.0","5AE8FC890AA2472FA0E98EFA2A4BB2F6","10f4c681-f677-41e3-ae81-72edc0ec64d6","935a6d0c-0ba8-4f12-81d2-6af4ae24cda6","","null","<div style=""display: flex; justify-content: center; align-items: center;"">
                <img src=""images/other/blank.jpg"" style=""width: 300px; height: 300px;"" />
              </div>","null",""
"","","","","","html-keyboard-response","89","290255","0.0-61.0","5AE8FC890AA2472FA0E98EFA2A4BB2F6","10f4c681-f677-41e3-ae81-72edc0ec64d6","935a6d0c-0ba8-4f12-81d2-6af4ae24cda6","","null","<div style=""display: flex; justify-content: center; align-items: center;"">
                <img src=""images/causal/causal_series_18/causal_series_18_a.jpg"" style=""width: 300px; height: 300px;"" />
              </div>","null",""
"","","","","","html-button-response","90","291026","0.0-62.0","5AE8FC890AA2472FA0E98EFA2A4BB2F6","10f4c681-f677-41e3-ae81-72edc0ec64d6","935a6d0c-0ba8-4f12-81d2-6af4ae24cda6","","768","
    <div style=""display: flex; justify-content: center; align-items: center;"">
      <img src=""images/red_deck_2.png"" style=""width: 300px; height: 300px; margin-right: 10px;"" />
      <img src=""images/blue_deck_1.png"" style=""width: 300px; height: 300px;"" />
    </div>","0","0"
"","","","","","html-keyboard-response","91","294041","0.0-63.0-0.0-0.0","5AE8FC890AA2472FA0E98EFA2A4BB2F6","10f4c681-f677-41e3-ae81-72edc0ec64d6","935a6d0c-0ba8-4f12-81d2-6af4ae24cda6","","null","<div style=""display: flex; justify-content: center; align-items: center;"">
                <img src=""images/causal/causal_series_18/causal_series_18_b.jpg"" style=""width: 300px; height: 300px;"" />
              </div>","null",""
"","","","","","html-keyboard-response","92","297058","0.0-63.0-0.0-1.0","5AE8FC890AA2472FA0E98EFA2A4BB2F6","10f4c681-f677-41e3-ae81-72edc0ec64d6","935a6d0c-0ba8-4f12-81d2-6af4ae24cda6","","null","<div style=""display: flex; justify-content: center; align-items: center;"">
                <img src=""images/causal/causal_series_18/causal_series_18_c.jpg"" style=""width: 300px; height: 300px;"" />
              </div>","null",""
"","","","","","html-keyboard-response","93","300075","0.0-63.0-0.0-2.0","5AE8FC890AA2472FA0E98EFA2A4BB2F6","10f4c681-f677-41e3-ae81-72edc0ec64d6","935a6d0c-0ba8-4f12-81d2-6af4ae24cda6","","null","<div style=""display: flex; justify-content: center; align-items: center;"">
                <img src=""images/causal/causal_series_18/causal_series_18_d.jpg"" style=""width: 300px; height: 300px;"" />
              </div>","null",""
"","","","","","html-keyboard-response","94","303079","0.0-64.0","5AE8FC890AA2472FA0E98EFA2A4BB2F6","10f4c681-f677-41e3-ae81-72edc0ec64d6","935a6d0c-0ba8-4f12-81d2-6af4ae24cda6","","null","<div style=""display: flex; justify-content: center; align-items: center;"">
                <img src=""images/other/blank.jpg"" style=""width: 300px; height: 300px;"" />
              </div>","null",""
"","","","","","html-keyboard-response","95","306087","0.0-65.0","5AE8FC890AA2472FA0E98EFA2A4BB2F6","10f4c681-f677-41e3-ae81-72edc0ec64d6","935a6d0c-0ba8-4f12-81d2-6af4ae24cda6","","null","<div style=""display: flex; justify-content: center; align-items: center;"">
                <img src=""images/causal/causal_series_7/causal_series_7_a.jpg"" style=""width: 300px; height: 300px;"" />
              </div>","null",""
"","","","","","html-button-response","96","307441","0.0-66.0","5AE8FC890AA2472FA0E98EFA2A4BB2F6","10f4c681-f677-41e3-ae81-72edc0ec64d6","935a6d0c-0ba8-4f12-81d2-6af4ae24cda6","","1350","
    <div style=""display: flex; justify-content: center; align-items: center;"">
      <img src=""images/red_deck_2.png"" style=""width: 300px; height: 300px; margin-right: 10px;"" />
      <img src=""images/blue_deck_1.png"" style=""width: 300px; height: 300px;"" />
    </div>","0","0"
"","","","","","html-keyboard-response","97","310457","0.0-67.0-0.0-0.0","5AE8FC890AA2472FA0E98EFA2A4BB2F6","10f4c681-f677-41e3-ae81-72edc0ec64d6","935a6d0c-0ba8-4f12-81d2-6af4ae24cda6","","null","<div style=""display: flex; justify-content: center; align-items: center;"">
                <img src=""images/causal/causal_series_7/causal_series_7_b.jpg"" style=""width: 300px; height: 300px;"" />
              </div>","null",""
"","","","","","html-keyboard-response","98","313468","0.0-67.0-0.0-1.0","5AE8FC890AA2472FA0E98EFA2A4BB2F6","10f4c681-f677-41e3-ae81-72edc0ec64d6","935a6d0c-0ba8-4f12-81d2-6af4ae24cda6","","null","<div style=""display: flex; justify-content: center; align-items: center;"">
                <img src=""images/causal/causal_series_7/causal_series_7_c.jpg"" style=""width: 300px; height: 300px;"" />
              </div>","null",""
"","","","","","html-keyboard-response","99","316479","0.0-67.0-0.0-2.0","5AE8FC890AA2472FA0E98EFA2A4BB2F6","10f4c681-f677-41e3-ae81-72edc0ec64d6","935a6d0c-0ba8-4f12-81d2-6af4ae24cda6","","null","<div style=""display: flex; justify-content: center; align-items: center;"">
                <img src=""images/causal/causal_series_7/causal_series_7_d.jpg"" style=""width: 300px; height: 300px;"" />
              </div>","null",""
"","","","","","html-keyboard-response","100","319482","0.0-68.0","5AE8FC890AA2472FA0E98EFA2A4BB2F6","10f4c681-f677-41e3-ae81-72edc0ec64d6","935a6d0c-0ba8-4f12-81d2-6af4ae24cda6","","null","<div style=""display: flex; justify-content: center; align-items: center;"">
                <img src=""images/other/blank.jpg"" style=""width: 300px; height: 300px;"" />
              </div>","null",""
"","","","","","html-keyboard-response","101","322490","0.0-69.0","5AE8FC890AA2472FA0E98EFA2A4BB2F6","10f4c681-f677-41e3-ae81-72edc0ec64d6","935a6d0c-0ba8-4f12-81d2-6af4ae24cda6","","null","<div style=""display: flex; justify-content: center; align-items: center;"">
                <img src=""images/causal/causal_series_10/causal_series_10_a.jpg"" style=""width: 300px; height: 300px;"" />
              </div>","null",""
"","","","","","html-button-response","102","323324","0.0-70.0","5AE8FC890AA2472FA0E98EFA2A4BB2F6","10f4c681-f677-41e3-ae81-72edc0ec64d6","935a6d0c-0ba8-4f12-81d2-6af4ae24cda6","","831","
    <div style=""display: flex; justify-content: center; align-items: center;"">
      <img src=""images/red_deck_2.png"" style=""width: 300px; height: 300px; margin-right: 10px;"" />
      <img src=""images/blue_deck_1.png"" style=""width: 300px; height: 300px;"" />
    </div>","0","0"
"","","","","","html-keyboard-response","103","326332","0.0-71.0-0.0-0.0","5AE8FC890AA2472FA0E98EFA2A4BB2F6","10f4c681-f677-41e3-ae81-72edc0ec64d6","935a6d0c-0ba8-4f12-81d2-6af4ae24cda6","","null","<div style=""display: flex; justify-content: center; align-items: center;"">
                <img src=""images/causal/causal_series_10/causal_series_10_b.jpg"" style=""width: 300px; height: 300px;"" />
              </div>","null",""
"","","","","","html-keyboard-response","104","329340","0.0-71.0-0.0-1.0","5AE8FC890AA2472FA0E98EFA2A4BB2F6","10f4c681-f677-41e3-ae81-72edc0ec64d6","935a6d0c-0ba8-4f12-81d2-6af4ae24cda6","","null","<div style=""display: flex; justify-content: center; align-items: center;"">
                <img src=""images/causal/causal_series_10/causal_series_10_c.jpg"" style=""width: 300px; height: 300px;"" />
              </div>","null",""
"","","","","","html-keyboard-response","105","332344","0.0-71.0-0.0-2.0","5AE8FC890AA2472FA0E98EFA2A4BB2F6","10f4c681-f677-41e3-ae81-72edc0ec64d6","935a6d0c-0ba8-4f12-81d2-6af4ae24cda6","","null","<div style=""display: flex; justify-content: center; align-items: center;"">
                <img src=""images/causal/causal_series_10/causal_series_10_d.jpg"" style=""width: 300px; height: 300px;"" />
              </div>","null",""
"","","","","","html-keyboard-response","106","335359","0.0-72.0","5AE8FC890AA2472FA0E98EFA2A4BB2F6","10f4c681-f677-41e3-ae81-72edc0ec64d6","935a6d0c-0ba8-4f12-81d2-6af4ae24cda6","","null","<div style=""display: flex; justify-content: center; align-items: center;"">
                <img src=""images/other/blank.jpg"" style=""width: 300px; height: 300px;"" />
              </div>","null",""
"","","","","","html-keyboard-response","107","338372","0.0-73.0","5AE8FC890AA2472FA0E98EFA2A4BB2F6","10f4c681-f677-41e3-ae81-72edc0ec64d6","935a6d0c-0ba8-4f12-81d2-6af4ae24cda6","","null","<div style=""display: flex; justify-content: center; align-items: center;"">
                <img src=""images/causal/causal_series_5/causal_series_5_a.jpg"" style=""width: 300px; height: 300px;"" />
              </div>","null",""
"","","","","","html-button-response","108","339419","0.0-74.0","5AE8FC890AA2472FA0E98EFA2A4BB2F6","10f4c681-f677-41e3-ae81-72edc0ec64d6","935a6d0c-0ba8-4f12-81d2-6af4ae24cda6","","1043","
    <div style=""display: flex; justify-content: center; align-items: center;"">
      <img src=""images/red_deck_2.png"" style=""width: 300px; height: 300px; margin-right: 10px;"" />
      <img src=""images/blue_deck_1.png"" style=""width: 300px; height: 300px;"" />
    </div>","1","1"
"","","","","","html-keyboard-response","109","342427","0.0-75.0-1.0-0.0","5AE8FC890AA2472FA0E98EFA2A4BB2F6","10f4c681-f677-41e3-ae81-72edc0ec64d6","935a6d0c-0ba8-4f12-81d2-6af4ae24cda6","","null","<div style=""display: flex; justify-content: center; align-items: center;"">
                <img src=""images/semantic/semantic_series_12/semantic_series_12_d.jpg"" style=""width: 300px; height: 300px;"" />
              </div>","null",""
"","","","","","html-keyboard-response","110","345435","0.0-75.0-1.0-1.0","5AE8FC890AA2472FA0E98EFA2A4BB2F6","10f4c681-f677-41e3-ae81-72edc0ec64d6","935a6d0c-0ba8-4f12-81d2-6af4ae24cda6","","null","<div style=""display: flex; justify-content: center; align-items: center;"">
                <img src=""images/semantic/semantic_series_13/semantic_series_13_d.jpg"" style=""width: 300px; height: 300px;"" />
              </div>","null",""
"","","","","","html-keyboard-response","111","348447","0.0-75.0-1.0-2.0","5AE8FC890AA2472FA0E98EFA2A4BB2F6","10f4c681-f677-41e3-ae81-72edc0ec64d6","935a6d0c-0ba8-4f12-81d2-6af4ae24cda6","","null","<div style=""display: flex; justify-content: center; align-items: center;"">
                <img src=""images/semantic/semantic_series_14/semantic_series_14_d.jpg"" style=""width: 300px; height: 300px;"" />
              </div>","null",""
"","","","","","html-keyboard-response","112","351462","0.0-76.0","5AE8FC890AA2472FA0E98EFA2A4BB2F6","10f4c681-f677-41e3-ae81-72edc0ec64d6","935a6d0c-0ba8-4f12-81d2-6af4ae24cda6","","null","<div style=""display: flex; justify-content: center; align-items: center;"">
                <img src=""images/other/blank.jpg"" style=""width: 300px; height: 300px;"" />
              </div>","null",""
"","","","","","survey-text","113","387733","0.0-77.0","5AE8FC890AA2472FA0E98EFA2A4BB2F6","10f4c681-f677-41e3-ae81-72edc0ec64d6","935a6d0c-0ba8-4f12-81d2-6af4ae24cda6","","36251","","{""Q0"":""The red deck was a continuation of the last story shown and the blue deck was a random selection.""}",""
"","","","","","survey-text","114","427273","0.0-78.0","5AE8FC890AA2472FA0E98EFA2A4BB2F6","10f4c681-f677-41e3-ae81-72edc0ec64d6","935a6d0c-0ba8-4f12-81d2-6af4ae24cda6","","39523","","{""Q0"":""Both! I enjoyed seeing the story play out when it ended on something cute or interesting and also enjoyed seeing random images in anticipation of what it was going to land on next.""}",""
"","","","","","html-button-response","115","438220","0.0-79.0","5AE8FC890AA2472FA0E98EFA2A4BB2F6","10f4c681-f677-41e3-ae81-72edc0ec64d6","935a6d0c-0ba8-4f12-81d2-6af4ae24cda6","","10944","Which color deck does the fourth image continue the story from the series?","1",""
"","","","","","html-button-response","116","450394","0.0-80.0","5AE8FC890AA2472FA0E98EFA2A4BB2F6","10f4c681-f677-41e3-ae81-72edc0ec64d6","935a6d0c-0ba8-4f12-81d2-6af4ae24cda6","","12165","Which color deck does the fourth image not follow the story from the series?","0",""
"","","","","","survey-text","117","456194","0.0-81.0","5AE8FC890AA2472FA0E98EFA2A4BB2F6","10f4c681-f677-41e3-ae81-72edc0ec64d6","935a6d0c-0ba8-4f12-81d2-6af4ae24cda6","","5775","","{""Q0"":""Female"",""Q1"":""26""}",""
"","","","","","instructions","118","462334","0.0-82.0","5AE8FC890AA2472FA0E98EFA2A4BB2F6","10f4c681-f677-41e3-ae81-72edc0ec64d6","935a6d0c-0ba8-4f12-81d2-6af4ae24cda6","[{""page_index"":0,""viewing_time"":6136}]","6137","","",""
