"success","timeout","failed_images","failed_audio","failed_video","trial_type","trial_index","time_elapsed","internal_node_id","subject_id","study_id","session_id","view_history","rt","stimulus","response","choice"
"true","false","[]","[]","[]","preload","0","1389","0.0-0.0","51F71C531F4E4EB5A4686654C67B0FEA","98b13278-68ca-4c11-9553-56900ea4f721","683bf07d-1a26-40b1-9cff-5abdc1eed0ee","","","","",""
"","","","","","instructions","1","3501","0.0-1.0","51F71C531F4E4EB5A4686654C67B0FEA","98b13278-68ca-4c11-9553-56900ea4f721","683bf07d-1a26-40b1-9cff-5abdc1eed0ee","[{""page_index"":0,""viewing_time"":2110}]","2111","","",""
"","","","","","instructions","2","52833","0.0-2.0","51F71C531F4E4EB5A4686654C67B0FEA","98b13278-68ca-4c11-9553-56900ea4f721","683bf07d-1a26-40b1-9cff-5abdc1eed0ee","[{""page_index"":0,""viewing_time"":49332}]","49332","","",""
"true","","","","","fullscreen","3","61836","0.0-3.0","51F71C531F4E4EB5A4686654C67B0FEA","98b13278-68ca-4c11-9553-56900ea4f721","683bf07d-1a26-40b1-9cff-5abdc1eed0ee","","7999","","",""
"","","","","","instructions","4","75761","0.0-4.0","51F71C531F4E4EB5A4686654C67B0FEA","98b13278-68ca-4c11-9553-56900ea4f721","683bf07d-1a26-40b1-9cff-5abdc1eed0ee","[{""page_index"":0,""viewing_time"":13923}]","13924","","",""
"","","","","","html-keyboard-response","5","78764","0.0-5.0","51F71C531F4E4EB5A4686654C67B0FEA","98b13278-68ca-4c11-9553-56900ea4f721","683bf07d-1a26-40b1-9cff-5abdc1eed0ee","","null","<div style=""display: flex; justify-content: center; align-items: center;"">
                <img src=""images/causal/causal_series_14/causal_series_14_a.jpg"" style=""width: 300px; height: 300px;"" />
              </div>","null",""
"","","","","","html-keyboard-response","6","81767","0.0-6.0","51F71C531F4E4EB5A4686654C67B0FEA","98b13278-68ca-4c11-9553-56900ea4f721","683bf07d-1a26-40b1-9cff-5abdc1eed0ee","","null","<div style=""display: flex; justify-content: center; align-items: center;"">
                <img src=""images/causal/causal_series_14/causal_series_14_b.jpg"" style=""width: 300px; height: 300px;"" />
              </div>","null",""
"","","","","","html-keyboard-response","7","84770","0.0-7.0","51F71C531F4E4EB5A4686654C67B0FEA","98b13278-68ca-4c11-9553-56900ea4f721","683bf07d-1a26-40b1-9cff-5abdc1eed0ee","","null","<div style=""display: flex; justify-content: center; align-items: center;"">
                <img src=""images/causal/causal_series_14/causal_series_14_c.jpg"" style=""width: 300px; height: 300px;"" />
              </div>","null",""
"","","","","","html-button-response","8","87252","0.0-8.0","51F71C531F4E4EB5A4686654C67B0FEA","98b13278-68ca-4c11-9553-56900ea4f721","683bf07d-1a26-40b1-9cff-5abdc1eed0ee","","2480","
    <div style=""display: flex; justify-content: center; align-items: center;"">
      <img src=""images/red_deck_2.png"" style=""width: 300px; height: 300px; margin-right: 10px;"" />
      <img src=""images/blue_deck_1.png"" style=""width: 300px; height: 300px;"" />
    </div>","1","1"
"","","","","","html-keyboard-response","9","90256","0.0-9.0-1.0-0.0","51F71C531F4E4EB5A4686654C67B0FEA","98b13278-68ca-4c11-9553-56900ea4f721","683bf07d-1a26-40b1-9cff-5abdc1eed0ee","","null","<div style=""display: flex; justify-content: center; align-items: center;"">
                <img src=""images/semantic/semantic_series_13/semantic_series_13_d.jpg"" style=""width: 300px; height: 300px;"" />
              </div>","null",""
"","","","","","html-keyboard-response","10","93258","0.0-10.0","51F71C531F4E4EB5A4686654C67B0FEA","98b13278-68ca-4c11-9553-56900ea4f721","683bf07d-1a26-40b1-9cff-5abdc1eed0ee","","null","<div style=""display: flex; justify-content: center; align-items: center;"">
                <img src=""images/other/blank.jpg"" style=""width: 300px; height: 300px;"" />
              </div>","null",""
"","","","","","html-keyboard-response","11","96261","0.0-11.0","51F71C531F4E4EB5A4686654C67B0FEA","98b13278-68ca-4c11-9553-56900ea4f721","683bf07d-1a26-40b1-9cff-5abdc1eed0ee","","null","<div style=""display: flex; justify-content: center; align-items: center;"">
                <img src=""images/causal/causal_series_12/causal_series_12_a.jpg"" style=""width: 300px; height: 300px;"" />
              </div>","null",""
"","","","","","html-keyboard-response","12","99262","0.0-12.0","51F71C531F4E4EB5A4686654C67B0FEA","98b13278-68ca-4c11-9553-56900ea4f721","683bf07d-1a26-40b1-9cff-5abdc1eed0ee","","null","<div style=""display: flex; justify-content: center; align-items: center;"">
                <img src=""images/causal/causal_series_12/causal_series_12_b.jpg"" style=""width: 300px; height: 300px;"" />
              </div>","null",""
"","","","","","html-keyboard-response","13","102265","0.0-13.0","51F71C531F4E4EB5A4686654C67B0FEA","98b13278-68ca-4c11-9553-56900ea4f721","683bf07d-1a26-40b1-9cff-5abdc1eed0ee","","null","<div style=""display: flex; justify-content: center; align-items: center;"">
                <img src=""images/causal/causal_series_12/causal_series_12_c.jpg"" style=""width: 300px; height: 300px;"" />
              </div>","null",""
"","","","","","html-button-response","14","103085","0.0-14.0","51F71C531F4E4EB5A4686654C67B0FEA","98b13278-68ca-4c11-9553-56900ea4f721","683bf07d-1a26-40b1-9cff-5abdc1eed0ee","","818","
    <div style=""display: flex; justify-content: center; align-items: center;"">
      <img src=""images/red_deck_2.png"" style=""width: 300px; height: 300px; margin-right: 10px;"" />
      <img src=""images/blue_deck_1.png"" style=""width: 300px; height: 300px;"" />
    </div>","0","0"
"","","","","","html-keyboard-response","15","106084","0.0-15.0-0.0-0.0","51F71C531F4E4EB5A4686654C67B0FEA","98b13278-68ca-4c11-9553-56900ea4f721","683bf07d-1a26-40b1-9cff-5abdc1eed0ee","","null","<div style=""display: flex; justify-content: center; align-items: center;"">
                <img src=""images/causal/causal_series_12/causal_series_12_d.jpg"" style=""width: 300px; height: 300px;"" />
              </div>","null",""
"","","","","","html-keyboard-response","16","109084","0.0-16.0","51F71C531F4E4EB5A4686654C67B0FEA","98b13278-68ca-4c11-9553-56900ea4f721","683bf07d-1a26-40b1-9cff-5abdc1eed0ee","","null","<div style=""display: flex; justify-content: center; align-items: center;"">
                <img src=""images/other/blank.jpg"" style=""width: 300px; height: 300px;"" />
              </div>","null",""
"","","","","","html-keyboard-response","17","112084","0.0-17.0","51F71C531F4E4EB5A4686654C67B0FEA","98b13278-68ca-4c11-9553-56900ea4f721","683bf07d-1a26-40b1-9cff-5abdc1eed0ee","","null","<div style=""display: flex; justify-content: center; align-items: center;"">
                <img src=""images/causal/causal_series_13/causal_series_13_a.jpg"" style=""width: 300px; height: 300px;"" />
              </div>","null",""
"","","","","","html-keyboard-response","18","115084","0.0-18.0","51F71C531F4E4EB5A4686654C67B0FEA","98b13278-68ca-4c11-9553-56900ea4f721","683bf07d-1a26-40b1-9cff-5abdc1eed0ee","","null","<div style=""display: flex; justify-content: center; align-items: center;"">
                <img src=""images/causal/causal_series_13/causal_series_13_b.jpg"" style=""width: 300px; height: 300px;"" />
              </div>","null",""
"","","","","","html-keyboard-response","19","118085","0.0-19.0","51F71C531F4E4EB5A4686654C67B0FEA","98b13278-68ca-4c11-9553-56900ea4f721","683bf07d-1a26-40b1-9cff-5abdc1eed0ee","","null","<div style=""display: flex; justify-content: center; align-items: center;"">
                <img src=""images/causal/causal_series_13/causal_series_13_c.jpg"" style=""width: 300px; height: 300px;"" />
              </div>","null",""
"","","","","","html-button-response","20","120322","0.0-20.0","51F71C531F4E4EB5A4686654C67B0FEA","98b13278-68ca-4c11-9553-56900ea4f721","683bf07d-1a26-40b1-9cff-5abdc1eed0ee","","2237","
    <div style=""display: flex; justify-content: center; align-items: center;"">
      <img src=""images/red_deck_2.png"" style=""width: 300px; height: 300px; margin-right: 10px;"" />
      <img src=""images/blue_deck_1.png"" style=""width: 300px; height: 300px;"" />
    </div>","0","0"
"","","","","","html-keyboard-response","21","123324","0.0-21.0-0.0-0.0","51F71C531F4E4EB5A4686654C67B0FEA","98b13278-68ca-4c11-9553-56900ea4f721","683bf07d-1a26-40b1-9cff-5abdc1eed0ee","","null","<div style=""display: flex; justify-content: center; align-items: center;"">
                <img src=""images/causal/causal_series_13/causal_series_13_d.jpg"" style=""width: 300px; height: 300px;"" />
              </div>","null",""
"","","","","","html-keyboard-response","22","126326","0.0-22.0","51F71C531F4E4EB5A4686654C67B0FEA","98b13278-68ca-4c11-9553-56900ea4f721","683bf07d-1a26-40b1-9cff-5abdc1eed0ee","","null","<div style=""display: flex; justify-content: center; align-items: center;"">
                <img src=""images/other/blank.jpg"" style=""width: 300px; height: 300px;"" />
              </div>","null",""
"","","","","","html-keyboard-response","23","129329","0.0-23.0","51F71C531F4E4EB5A4686654C67B0FEA","98b13278-68ca-4c11-9553-56900ea4f721","683bf07d-1a26-40b1-9cff-5abdc1eed0ee","","null","<div style=""display: flex; justify-content: center; align-items: center;"">
                <img src=""images/causal/causal_series_5/causal_series_5_a.jpg"" style=""width: 300px; height: 300px;"" />
              </div>","null",""
"","","","","","html-keyboard-response","24","132330","0.0-24.0","51F71C531F4E4EB5A4686654C67B0FEA","98b13278-68ca-4c11-9553-56900ea4f721","683bf07d-1a26-40b1-9cff-5abdc1eed0ee","","null","<div style=""display: flex; justify-content: center; align-items: center;"">
                <img src=""images/causal/causal_series_5/causal_series_5_b.jpg"" style=""width: 300px; height: 300px;"" />
              </div>","null",""
"","","","","","html-keyboard-response","25","135331","0.0-25.0","51F71C531F4E4EB5A4686654C67B0FEA","98b13278-68ca-4c11-9553-56900ea4f721","683bf07d-1a26-40b1-9cff-5abdc1eed0ee","","null","<div style=""display: flex; justify-content: center; align-items: center;"">
                <img src=""images/causal/causal_series_5/causal_series_5_c.jpg"" style=""width: 300px; height: 300px;"" />
              </div>","null",""
"","","","","","html-button-response","26","136520","0.0-26.0","51F71C531F4E4EB5A4686654C67B0FEA","98b13278-68ca-4c11-9553-56900ea4f721","683bf07d-1a26-40b1-9cff-5abdc1eed0ee","","1188","
    <div style=""display: flex; justify-content: center; align-items: center;"">
      <img src=""images/red_deck_2.png"" style=""width: 300px; height: 300px; margin-right: 10px;"" />
      <img src=""images/blue_deck_1.png"" style=""width: 300px; height: 300px;"" />
    </div>","1","1"
"","","","","","html-keyboard-response","27","139522","0.0-27.0-1.0-0.0","51F71C531F4E4EB5A4686654C67B0FEA","98b13278-68ca-4c11-9553-56900ea4f721","683bf07d-1a26-40b1-9cff-5abdc1eed0ee","","null","<div style=""display: flex; justify-content: center; align-items: center;"">
                <img src=""images/semantic/semantic_series_4/semantic_series_4_d.jpg"" style=""width: 300px; height: 300px;"" />
              </div>","null",""
"","","","","","html-keyboard-response","28","142524","0.0-28.0","51F71C531F4E4EB5A4686654C67B0FEA","98b13278-68ca-4c11-9553-56900ea4f721","683bf07d-1a26-40b1-9cff-5abdc1eed0ee","","null","<div style=""display: flex; justify-content: center; align-items: center;"">
                <img src=""images/other/blank.jpg"" style=""width: 300px; height: 300px;"" />
              </div>","null",""
"","","","","","html-keyboard-response","29","145525","0.0-29.0","51F71C531F4E4EB5A4686654C67B0FEA","98b13278-68ca-4c11-9553-56900ea4f721","683bf07d-1a26-40b1-9cff-5abdc1eed0ee","","null","<div style=""display: flex; justify-content: center; align-items: center;"">
                <img src=""images/causal/causal_series_17/causal_series_17_a.jpg"" style=""width: 300px; height: 300px;"" />
              </div>","null",""
"","","","","","html-keyboard-response","30","148528","0.0-30.0","51F71C531F4E4EB5A4686654C67B0FEA","98b13278-68ca-4c11-9553-56900ea4f721","683bf07d-1a26-40b1-9cff-5abdc1eed0ee","","null","<div style=""display: flex; justify-content: center; align-items: center;"">
                <img src=""images/causal/causal_series_17/causal_series_17_b.jpg"" style=""width: 300px; height: 300px;"" />
              </div>","null",""
"","","","","","html-keyboard-response","31","151530","0.0-31.0","51F71C531F4E4EB5A4686654C67B0FEA","98b13278-68ca-4c11-9553-56900ea4f721","683bf07d-1a26-40b1-9cff-5abdc1eed0ee","","null","<div style=""display: flex; justify-content: center; align-items: center;"">
                <img src=""images/causal/causal_series_17/causal_series_17_c.jpg"" style=""width: 300px; height: 300px;"" />
              </div>","null",""
"","","","","","html-button-response","32","152756","0.0-32.0","51F71C531F4E4EB5A4686654C67B0FEA","98b13278-68ca-4c11-9553-56900ea4f721","683bf07d-1a26-40b1-9cff-5abdc1eed0ee","","1225","
    <div style=""display: flex; justify-content: center; align-items: center;"">
      <img src=""images/red_deck_2.png"" style=""width: 300px; height: 300px; margin-right: 10px;"" />
      <img src=""images/blue_deck_1.png"" style=""width: 300px; height: 300px;"" />
    </div>","0","0"
"","","","","","html-keyboard-response","33","155758","0.0-33.0-0.0-0.0","51F71C531F4E4EB5A4686654C67B0FEA","98b13278-68ca-4c11-9553-56900ea4f721","683bf07d-1a26-40b1-9cff-5abdc1eed0ee","","null","<div style=""display: flex; justify-content: center; align-items: center;"">
                <img src=""images/causal/causal_series_17/causal_series_17_d.jpg"" style=""width: 300px; height: 300px;"" />
              </div>","null",""
"","","","","","html-keyboard-response","34","158759","0.0-34.0","51F71C531F4E4EB5A4686654C67B0FEA","98b13278-68ca-4c11-9553-56900ea4f721","683bf07d-1a26-40b1-9cff-5abdc1eed0ee","","null","<div style=""display: flex; justify-content: center; align-items: center;"">
                <img src=""images/other/blank.jpg"" style=""width: 300px; height: 300px;"" />
              </div>","null",""
"","","","","","html-keyboard-response","35","161761","0.0-35.0","51F71C531F4E4EB5A4686654C67B0FEA","98b13278-68ca-4c11-9553-56900ea4f721","683bf07d-1a26-40b1-9cff-5abdc1eed0ee","","null","<div style=""display: flex; justify-content: center; align-items: center;"">
                <img src=""images/causal/causal_series_4/causal_series_4_a.jpg"" style=""width: 300px; height: 300px;"" />
              </div>","null",""
"","","","","","html-keyboard-response","36","164763","0.0-36.0","51F71C531F4E4EB5A4686654C67B0FEA","98b13278-68ca-4c11-9553-56900ea4f721","683bf07d-1a26-40b1-9cff-5abdc1eed0ee","","null","<div style=""display: flex; justify-content: center; align-items: center;"">
                <img src=""images/causal/causal_series_4/causal_series_4_b.jpg"" style=""width: 300px; height: 300px;"" />
              </div>","null",""
"","","","","","html-keyboard-response","37","167766","0.0-37.0","51F71C531F4E4EB5A4686654C67B0FEA","98b13278-68ca-4c11-9553-56900ea4f721","683bf07d-1a26-40b1-9cff-5abdc1eed0ee","","null","<div style=""display: flex; justify-content: center; align-items: center;"">
                <img src=""images/causal/causal_series_4/causal_series_4_c.jpg"" style=""width: 300px; height: 300px;"" />
              </div>","null",""
"","","","","","html-button-response","38","168732","0.0-38.0","51F71C531F4E4EB5A4686654C67B0FEA","98b13278-68ca-4c11-9553-56900ea4f721","683bf07d-1a26-40b1-9cff-5abdc1eed0ee","","964","
    <div style=""display: flex; justify-content: center; align-items: center;"">
      <img src=""images/red_deck_2.png"" style=""width: 300px; height: 300px; margin-right: 10px;"" />
      <img src=""images/blue_deck_1.png"" style=""width: 300px; height: 300px;"" />
    </div>","1","1"
"","","","","","html-keyboard-response","39","171734","0.0-39.0-1.0-0.0","51F71C531F4E4EB5A4686654C67B0FEA","98b13278-68ca-4c11-9553-56900ea4f721","683bf07d-1a26-40b1-9cff-5abdc1eed0ee","","null","<div style=""display: flex; justify-content: center; align-items: center;"">
                <img src=""images/semantic/semantic_series_3/semantic_series_3_d.jpg"" style=""width: 300px; height: 300px;"" />
              </div>","null",""
"","","","","","html-keyboard-response","40","174736","0.0-40.0","51F71C531F4E4EB5A4686654C67B0FEA","98b13278-68ca-4c11-9553-56900ea4f721","683bf07d-1a26-40b1-9cff-5abdc1eed0ee","","null","<div style=""display: flex; justify-content: center; align-items: center;"">
                <img src=""images/other/blank.jpg"" style=""width: 300px; height: 300px;"" />
              </div>","null",""
"","","","","","html-keyboard-response","41","177739","0.0-41.0","51F71C531F4E4EB5A4686654C67B0FEA","98b13278-68ca-4c11-9553-56900ea4f721","683bf07d-1a26-40b1-9cff-5abdc1eed0ee","","null","<div style=""display: flex; justify-content: center; align-items: center;"">
                <img src=""images/causal/causal_series_1/causal_series_1_a.jpg"" style=""width: 300px; height: 300px;"" />
              </div>","null",""
"","","","","","html-keyboard-response","42","180741","0.0-42.0","51F71C531F4E4EB5A4686654C67B0FEA","98b13278-68ca-4c11-9553-56900ea4f721","683bf07d-1a26-40b1-9cff-5abdc1eed0ee","","null","<div style=""display: flex; justify-content: center; align-items: center;"">
                <img src=""images/causal/causal_series_1/causal_series_1_b.jpg"" style=""width: 300px; height: 300px;"" />
              </div>","null",""
"","","","","","html-keyboard-response","43","183742","0.0-43.0","51F71C531F4E4EB5A4686654C67B0FEA","98b13278-68ca-4c11-9553-56900ea4f721","683bf07d-1a26-40b1-9cff-5abdc1eed0ee","","null","<div style=""display: flex; justify-content: center; align-items: center;"">
                <img src=""images/causal/causal_series_1/causal_series_1_c.jpg"" style=""width: 300px; height: 300px;"" />
              </div>","null",""
"","","","","","html-button-response","44","184483","0.0-44.0","51F71C531F4E4EB5A4686654C67B0FEA","98b13278-68ca-4c11-9553-56900ea4f721","683bf07d-1a26-40b1-9cff-5abdc1eed0ee","","738","
    <div style=""display: flex; justify-content: center; align-items: center;"">
      <img src=""images/red_deck_2.png"" style=""width: 300px; height: 300px; margin-right: 10px;"" />
      <img src=""images/blue_deck_1.png"" style=""width: 300px; height: 300px;"" />
    </div>","0","0"
"","","","","","html-keyboard-response","45","187485","0.0-45.0-0.0-0.0","51F71C531F4E4EB5A4686654C67B0FEA","98b13278-68ca-4c11-9553-56900ea4f721","683bf07d-1a26-40b1-9cff-5abdc1eed0ee","","null","<div style=""display: flex; justify-content: center; align-items: center;"">
                <img src=""images/causal/causal_series_1/causal_series_1_d.jpg"" style=""width: 300px; height: 300px;"" />
              </div>","null",""
"","","","","","html-keyboard-response","46","190488","0.0-46.0","51F71C531F4E4EB5A4686654C67B0FEA","98b13278-68ca-4c11-9553-56900ea4f721","683bf07d-1a26-40b1-9cff-5abdc1eed0ee","","null","<div style=""display: flex; justify-content: center; align-items: center;"">
                <img src=""images/other/blank.jpg"" style=""width: 300px; height: 300px;"" />
              </div>","null",""
"","","","","","html-keyboard-response","47","193490","0.0-47.0","51F71C531F4E4EB5A4686654C67B0FEA","98b13278-68ca-4c11-9553-56900ea4f721","683bf07d-1a26-40b1-9cff-5abdc1eed0ee","","null","<div style=""display: flex; justify-content: center; align-items: center;"">
                <img src=""images/causal/causal_series_16/causal_series_16_a.jpg"" style=""width: 300px; height: 300px;"" />
              </div>","null",""
"","","","","","html-keyboard-response","48","196493","0.0-48.0","51F71C531F4E4EB5A4686654C67B0FEA","98b13278-68ca-4c11-9553-56900ea4f721","683bf07d-1a26-40b1-9cff-5abdc1eed0ee","","null","<div style=""display: flex; justify-content: center; align-items: center;"">
                <img src=""images/causal/causal_series_16/causal_series_16_b.jpg"" style=""width: 300px; height: 300px;"" />
              </div>","null",""
"","","","","","html-keyboard-response","49","199496","0.0-49.0","51F71C531F4E4EB5A4686654C67B0FEA","98b13278-68ca-4c11-9553-56900ea4f721","683bf07d-1a26-40b1-9cff-5abdc1eed0ee","","null","<div style=""display: flex; justify-content: center; align-items: center;"">
                <img src=""images/causal/causal_series_16/causal_series_16_c.jpg"" style=""width: 300px; height: 300px;"" />
              </div>","null",""
"","","","","","html-button-response","50","200332","0.0-50.0","51F71C531F4E4EB5A4686654C67B0FEA","98b13278-68ca-4c11-9553-56900ea4f721","683bf07d-1a26-40b1-9cff-5abdc1eed0ee","","834","
    <div style=""display: flex; justify-content: center; align-items: center;"">
      <img src=""images/red_deck_2.png"" style=""width: 300px; height: 300px; margin-right: 10px;"" />
      <img src=""images/blue_deck_1.png"" style=""width: 300px; height: 300px;"" />
    </div>","0","0"
"","","","","","html-keyboard-response","51","203334","0.0-51.0-0.0-0.0","51F71C531F4E4EB5A4686654C67B0FEA","98b13278-68ca-4c11-9553-56900ea4f721","683bf07d-1a26-40b1-9cff-5abdc1eed0ee","","null","<div style=""display: flex; justify-content: center; align-items: center;"">
                <img src=""images/causal/causal_series_16/causal_series_16_d.jpg"" style=""width: 300px; height: 300px;"" />
              </div>","null",""
"","","","","","html-keyboard-response","52","206336","0.0-52.0","51F71C531F4E4EB5A4686654C67B0FEA","98b13278-68ca-4c11-9553-56900ea4f721","683bf07d-1a26-40b1-9cff-5abdc1eed0ee","","null","<div style=""display: flex; justify-content: center; align-items: center;"">
                <img src=""images/other/blank.jpg"" style=""width: 300px; height: 300px;"" />
              </div>","null",""
"","","","","","html-keyboard-response","53","209339","0.0-53.0","51F71C531F4E4EB5A4686654C67B0FEA","98b13278-68ca-4c11-9553-56900ea4f721","683bf07d-1a26-40b1-9cff-5abdc1eed0ee","","null","<div style=""display: flex; justify-content: center; align-items: center;"">
                <img src=""images/causal/causal_series_18/causal_series_18_a.jpg"" style=""width: 300px; height: 300px;"" />
              </div>","null",""
"","","","","","html-keyboard-response","54","212342","0.0-54.0","51F71C531F4E4EB5A4686654C67B0FEA","98b13278-68ca-4c11-9553-56900ea4f721","683bf07d-1a26-40b1-9cff-5abdc1eed0ee","","null","<div style=""display: flex; justify-content: center; align-items: center;"">
                <img src=""images/causal/causal_series_18/causal_series_18_b.jpg"" style=""width: 300px; height: 300px;"" />
              </div>","null",""
"","","","","","html-keyboard-response","55","215345","0.0-55.0","51F71C531F4E4EB5A4686654C67B0FEA","98b13278-68ca-4c11-9553-56900ea4f721","683bf07d-1a26-40b1-9cff-5abdc1eed0ee","","null","<div style=""display: flex; justify-content: center; align-items: center;"">
                <img src=""images/causal/causal_series_18/causal_series_18_c.jpg"" style=""width: 300px; height: 300px;"" />
              </div>","null",""
"","","","","","html-button-response","56","216735","0.0-56.0","51F71C531F4E4EB5A4686654C67B0FEA","98b13278-68ca-4c11-9553-56900ea4f721","683bf07d-1a26-40b1-9cff-5abdc1eed0ee","","1389","
    <div style=""display: flex; justify-content: center; align-items: center;"">
      <img src=""images/red_deck_2.png"" style=""width: 300px; height: 300px; margin-right: 10px;"" />
      <img src=""images/blue_deck_1.png"" style=""width: 300px; height: 300px;"" />
    </div>","1","1"
"","","","","","html-keyboard-response","57","219738","0.0-57.0-1.0-0.0","51F71C531F4E4EB5A4686654C67B0FEA","98b13278-68ca-4c11-9553-56900ea4f721","683bf07d-1a26-40b1-9cff-5abdc1eed0ee","","null","<div style=""display: flex; justify-content: center; align-items: center;"">
                <img src=""images/semantic/semantic_series_17/semantic_series_17_d.jpg"" style=""width: 300px; height: 300px;"" />
              </div>","null",""
"","","","","","html-keyboard-response","58","222740","0.0-58.0","51F71C531F4E4EB5A4686654C67B0FEA","98b13278-68ca-4c11-9553-56900ea4f721","683bf07d-1a26-40b1-9cff-5abdc1eed0ee","","null","<div style=""display: flex; justify-content: center; align-items: center;"">
                <img src=""images/other/blank.jpg"" style=""width: 300px; height: 300px;"" />
              </div>","null",""
"","","","","","html-keyboard-response","59","225743","0.0-59.0","51F71C531F4E4EB5A4686654C67B0FEA","98b13278-68ca-4c11-9553-56900ea4f721","683bf07d-1a26-40b1-9cff-5abdc1eed0ee","","null","<div style=""display: flex; justify-content: center; align-items: center;"">
                <img src=""images/causal/causal_series_15/causal_series_15_a.jpg"" style=""width: 300px; height: 300px;"" />
              </div>","null",""
"","","","","","html-keyboard-response","60","228746","0.0-60.0","51F71C531F4E4EB5A4686654C67B0FEA","98b13278-68ca-4c11-9553-56900ea4f721","683bf07d-1a26-40b1-9cff-5abdc1eed0ee","","null","<div style=""display: flex; justify-content: center; align-items: center;"">
                <img src=""images/causal/causal_series_15/causal_series_15_b.jpg"" style=""width: 300px; height: 300px;"" />
              </div>","null",""
"","","","","","html-keyboard-response","61","231749","0.0-61.0","51F71C531F4E4EB5A4686654C67B0FEA","98b13278-68ca-4c11-9553-56900ea4f721","683bf07d-1a26-40b1-9cff-5abdc1eed0ee","","null","<div style=""display: flex; justify-content: center; align-items: center;"">
                <img src=""images/causal/causal_series_15/causal_series_15_c.jpg"" style=""width: 300px; height: 300px;"" />
              </div>","null",""
"","","","","","html-button-response","62","232404","0.0-62.0","51F71C531F4E4EB5A4686654C67B0FEA","98b13278-68ca-4c11-9553-56900ea4f721","683bf07d-1a26-40b1-9cff-5abdc1eed0ee","","654","
    <div style=""display: flex; justify-content: center; align-items: center;"">
      <img src=""images/red_deck_2.png"" style=""width: 300px; height: 300px; margin-right: 10px;"" />
      <img src=""images/blue_deck_1.png"" style=""width: 300px; height: 300px;"" />
    </div>","0","0"
"","","","","","html-keyboard-response","63","235407","0.0-63.0-0.0-0.0","51F71C531F4E4EB5A4686654C67B0FEA","98b13278-68ca-4c11-9553-56900ea4f721","683bf07d-1a26-40b1-9cff-5abdc1eed0ee","","null","<div style=""display: flex; justify-content: center; align-items: center;"">
                <img src=""images/causal/causal_series_15/causal_series_15_d.jpg"" style=""width: 300px; height: 300px;"" />
              </div>","null",""
"","","","","","html-keyboard-response","64","238409","0.0-64.0","51F71C531F4E4EB5A4686654C67B0FEA","98b13278-68ca-4c11-9553-56900ea4f721","683bf07d-1a26-40b1-9cff-5abdc1eed0ee","","null","<div style=""display: flex; justify-content: center; align-items: center;"">
                <img src=""images/other/blank.jpg"" style=""width: 300px; height: 300px;"" />
              </div>","null",""
"","","","","","html-keyboard-response","65","241412","0.0-65.0","51F71C531F4E4EB5A4686654C67B0FEA","98b13278-68ca-4c11-9553-56900ea4f721","683bf07d-1a26-40b1-9cff-5abdc1eed0ee","","null","<div style=""display: flex; justify-content: center; align-items: center;"">
                <img src=""images/causal/causal_series_8/causal_series_8_a.jpg"" style=""width: 300px; height: 300px;"" />
              </div>","null",""
"","","","","","html-keyboard-response","66","244414","0.0-66.0","51F71C531F4E4EB5A4686654C67B0FEA","98b13278-68ca-4c11-9553-56900ea4f721","683bf07d-1a26-40b1-9cff-5abdc1eed0ee","","null","<div style=""display: flex; justify-content: center; align-items: center;"">
                <img src=""images/causal/causal_series_8/causal_series_8_b.jpg"" style=""width: 300px; height: 300px;"" />
              </div>","null",""
"","","","","","html-keyboard-response","67","247418","0.0-67.0","51F71C531F4E4EB5A4686654C67B0FEA","98b13278-68ca-4c11-9553-56900ea4f721","683bf07d-1a26-40b1-9cff-5abdc1eed0ee","","null","<div style=""display: flex; justify-content: center; align-items: center;"">
                <img src=""images/causal/causal_series_8/causal_series_8_c.jpg"" style=""width: 300px; height: 300px;"" />
              </div>","null",""
"","","","","","html-button-response","68","248823","0.0-68.0","51F71C531F4E4EB5A4686654C67B0FEA","98b13278-68ca-4c11-9553-56900ea4f721","683bf07d-1a26-40b1-9cff-5abdc1eed0ee","","1404","
    <div style=""display: flex; justify-content: center; align-items: center;"">
      <img src=""images/red_deck_2.png"" style=""width: 300px; height: 300px; margin-right: 10px;"" />
      <img src=""images/blue_deck_1.png"" style=""width: 300px; height: 300px;"" />
    </div>","1","1"
"","","","","","html-keyboard-response","69","251825","0.0-69.0-1.0-0.0","51F71C531F4E4EB5A4686654C67B0FEA","98b13278-68ca-4c11-9553-56900ea4f721","683bf07d-1a26-40b1-9cff-5abdc1eed0ee","","null","<div style=""display: flex; justify-content: center; align-items: center;"">
                <img src=""images/semantic/semantic_series_7/semantic_series_7_d.jpg"" style=""width: 300px; height: 300px;"" />
              </div>","null",""
"","","","","","html-keyboard-response","70","254828","0.0-70.0","51F71C531F4E4EB5A4686654C67B0FEA","98b13278-68ca-4c11-9553-56900ea4f721","683bf07d-1a26-40b1-9cff-5abdc1eed0ee","","null","<div style=""display: flex; justify-content: center; align-items: center;"">
                <img src=""images/other/blank.jpg"" style=""width: 300px; height: 300px;"" />
              </div>","null",""
"","","","","","html-keyboard-response","71","257831","0.0-71.0","51F71C531F4E4EB5A4686654C67B0FEA","98b13278-68ca-4c11-9553-56900ea4f721","683bf07d-1a26-40b1-9cff-5abdc1eed0ee","","null","<div style=""display: flex; justify-content: center; align-items: center;"">
                <img src=""images/causal/causal_series_6/causal_series_6_a.jpg"" style=""width: 300px; height: 300px;"" />
              </div>","null",""
"","","","","","html-keyboard-response","72","260833","0.0-72.0","51F71C531F4E4EB5A4686654C67B0FEA","98b13278-68ca-4c11-9553-56900ea4f721","683bf07d-1a26-40b1-9cff-5abdc1eed0ee","","null","<div style=""display: flex; justify-content: center; align-items: center;"">
                <img src=""images/causal/causal_series_6/causal_series_6_b.jpg"" style=""width: 300px; height: 300px;"" />
              </div>","null",""
"","","","","","html-keyboard-response","73","263836","0.0-73.0","51F71C531F4E4EB5A4686654C67B0FEA","98b13278-68ca-4c11-9553-56900ea4f721","683bf07d-1a26-40b1-9cff-5abdc1eed0ee","","null","<div style=""display: flex; justify-content: center; align-items: center;"">
                <img src=""images/causal/causal_series_6/causal_series_6_c.jpg"" style=""width: 300px; height: 300px;"" />
              </div>","null",""
"","","","","","html-button-response","74","264650","0.0-74.0","51F71C531F4E4EB5A4686654C67B0FEA","98b13278-68ca-4c11-9553-56900ea4f721","683bf07d-1a26-40b1-9cff-5abdc1eed0ee","","813","
    <div style=""display: flex; justify-content: center; align-items: center;"">
      <img src=""images/red_deck_2.png"" style=""width: 300px; height: 300px; margin-right: 10px;"" />
      <img src=""images/blue_deck_1.png"" style=""width: 300px; height: 300px;"" />
    </div>","1","1"
"","","","","","html-keyboard-response","75","267652","0.0-75.0-1.0-0.0","51F71C531F4E4EB5A4686654C67B0FEA","98b13278-68ca-4c11-9553-56900ea4f721","683bf07d-1a26-40b1-9cff-5abdc1eed0ee","","null","<div style=""display: flex; justify-content: center; align-items: center;"">
                <img src=""images/semantic/semantic_series_5/semantic_series_5_d.jpg"" style=""width: 300px; height: 300px;"" />
              </div>","null",""
"","","","","","html-keyboard-response","76","270655","0.0-76.0","51F71C531F4E4EB5A4686654C67B0FEA","98b13278-68ca-4c11-9553-56900ea4f721","683bf07d-1a26-40b1-9cff-5abdc1eed0ee","","null","<div style=""display: flex; justify-content: center; align-items: center;"">
                <img src=""images/other/blank.jpg"" style=""width: 300px; height: 300px;"" />
              </div>","null",""
"","","","","","html-keyboard-response","77","273657","0.0-77.0","51F71C531F4E4EB5A4686654C67B0FEA","98b13278-68ca-4c11-9553-56900ea4f721","683bf07d-1a26-40b1-9cff-5abdc1eed0ee","","null","<div style=""display: flex; justify-content: center; align-items: center;"">
                <img src=""images/causal/causal_series_3/causal_series_3_a.jpg"" style=""width: 300px; height: 300px;"" />
              </div>","null",""
"","","","","","html-keyboard-response","78","276659","0.0-78.0","51F71C531F4E4EB5A4686654C67B0FEA","98b13278-68ca-4c11-9553-56900ea4f721","683bf07d-1a26-40b1-9cff-5abdc1eed0ee","","null","<div style=""display: flex; justify-content: center; align-items: center;"">
                <img src=""images/causal/causal_series_3/causal_series_3_b.jpg"" style=""width: 300px; height: 300px;"" />
              </div>","null",""
"","","","","","html-keyboard-response","79","279661","0.0-79.0","51F71C531F4E4EB5A4686654C67B0FEA","98b13278-68ca-4c11-9553-56900ea4f721","683bf07d-1a26-40b1-9cff-5abdc1eed0ee","","null","<div style=""display: flex; justify-content: center; align-items: center;"">
                <img src=""images/causal/causal_series_3/causal_series_3_c.jpg"" style=""width: 300px; height: 300px;"" />
              </div>","null",""
"","","","","","html-button-response","80","280633","0.0-80.0","51F71C531F4E4EB5A4686654C67B0FEA","98b13278-68ca-4c11-9553-56900ea4f721","683bf07d-1a26-40b1-9cff-5abdc1eed0ee","","971","
    <div style=""display: flex; justify-content: center; align-items: center;"">
      <img src=""images/red_deck_2.png"" style=""width: 300px; height: 300px; margin-right: 10px;"" />
      <img src=""images/blue_deck_1.png"" style=""width: 300px; height: 300px;"" />
    </div>","0","0"
"","","","","","html-keyboard-response","81","283636","0.0-81.0-0.0-0.0","51F71C531F4E4EB5A4686654C67B0FEA","98b13278-68ca-4c11-9553-56900ea4f721","683bf07d-1a26-40b1-9cff-5abdc1eed0ee","","null","<div style=""display: flex; justify-content: center; align-items: center;"">
                <img src=""images/causal/causal_series_3/causal_series_3_d.jpg"" style=""width: 300px; height: 300px;"" />
              </div>","null",""
"","","","","","html-keyboard-response","82","286639","0.0-82.0","51F71C531F4E4EB5A4686654C67B0FEA","98b13278-68ca-4c11-9553-56900ea4f721","683bf07d-1a26-40b1-9cff-5abdc1eed0ee","","null","<div style=""display: flex; justify-content: center; align-items: center;"">
                <img src=""images/other/blank.jpg"" style=""width: 300px; height: 300px;"" />
              </div>","null",""
"","","","","","html-keyboard-response","83","289641","0.0-83.0","51F71C531F4E4EB5A4686654C67B0FEA","98b13278-68ca-4c11-9553-56900ea4f721","683bf07d-1a26-40b1-9cff-5abdc1eed0ee","","null","<div style=""display: flex; justify-content: center; align-items: center;"">
                <img src=""images/causal/causal_series_9/causal_series_9_a.jpg"" style=""width: 300px; height: 300px;"" />
              </div>","null",""
"","","","","","html-keyboard-response","84","292644","0.0-84.0","51F71C531F4E4EB5A4686654C67B0FEA","98b13278-68ca-4c11-9553-56900ea4f721","683bf07d-1a26-40b1-9cff-5abdc1eed0ee","","null","<div style=""display: flex; justify-content: center; align-items: center;"">
                <img src=""images/causal/causal_series_9/causal_series_9_b.jpg"" style=""width: 300px; height: 300px;"" />
              </div>","null",""
"","","","","","html-keyboard-response","85","295646","0.0-85.0","51F71C531F4E4EB5A4686654C67B0FEA","98b13278-68ca-4c11-9553-56900ea4f721","683bf07d-1a26-40b1-9cff-5abdc1eed0ee","","null","<div style=""display: flex; justify-content: center; align-items: center;"">
                <img src=""images/causal/causal_series_9/causal_series_9_c.jpg"" style=""width: 300px; height: 300px;"" />
              </div>","null",""
"","","","","","html-button-response","86","296513","0.0-86.0","51F71C531F4E4EB5A4686654C67B0FEA","98b13278-68ca-4c11-9553-56900ea4f721","683bf07d-1a26-40b1-9cff-5abdc1eed0ee","","865","
    <div style=""display: flex; justify-content: center; align-items: center;"">
      <img src=""images/red_deck_2.png"" style=""width: 300px; height: 300px; margin-right: 10px;"" />
      <img src=""images/blue_deck_1.png"" style=""width: 300px; height: 300px;"" />
    </div>","1","1"
"","","","","","html-keyboard-response","87","299516","0.0-87.0-1.0-0.0","51F71C531F4E4EB5A4686654C67B0FEA","98b13278-68ca-4c11-9553-56900ea4f721","683bf07d-1a26-40b1-9cff-5abdc1eed0ee","","null","<div style=""display: flex; justify-content: center; align-items: center;"">
                <img src=""images/semantic/semantic_series_8/semantic_series_8_d.jpg"" style=""width: 300px; height: 300px;"" />
              </div>","null",""
"","","","","","html-keyboard-response","88","302518","0.0-88.0","51F71C531F4E4EB5A4686654C67B0FEA","98b13278-68ca-4c11-9553-56900ea4f721","683bf07d-1a26-40b1-9cff-5abdc1eed0ee","","null","<div style=""display: flex; justify-content: center; align-items: center;"">
                <img src=""images/other/blank.jpg"" style=""width: 300px; height: 300px;"" />
              </div>","null",""
"","","","","","html-keyboard-response","89","305521","0.0-89.0","51F71C531F4E4EB5A4686654C67B0FEA","98b13278-68ca-4c11-9553-56900ea4f721","683bf07d-1a26-40b1-9cff-5abdc1eed0ee","","null","<div style=""display: flex; justify-content: center; align-items: center;"">
                <img src=""images/causal/causal_series_11/causal_series_11_a.jpg"" style=""width: 300px; height: 300px;"" />
              </div>","null",""
"","","","","","html-keyboard-response","90","308523","0.0-90.0","51F71C531F4E4EB5A4686654C67B0FEA","98b13278-68ca-4c11-9553-56900ea4f721","683bf07d-1a26-40b1-9cff-5abdc1eed0ee","","null","<div style=""display: flex; justify-content: center; align-items: center;"">
                <img src=""images/causal/causal_series_11/causal_series_11_b.jpg"" style=""width: 300px; height: 300px;"" />
              </div>","null",""
"","","","","","html-keyboard-response","91","311526","0.0-91.0","51F71C531F4E4EB5A4686654C67B0FEA","98b13278-68ca-4c11-9553-56900ea4f721","683bf07d-1a26-40b1-9cff-5abdc1eed0ee","","null","<div style=""display: flex; justify-content: center; align-items: center;"">
                <img src=""images/causal/causal_series_11/causal_series_11_c.jpg"" style=""width: 300px; height: 300px;"" />
              </div>","null",""
"","","","","","html-button-response","92","312287","0.0-92.0","51F71C531F4E4EB5A4686654C67B0FEA","98b13278-68ca-4c11-9553-56900ea4f721","683bf07d-1a26-40b1-9cff-5abdc1eed0ee","","759","
    <div style=""display: flex; justify-content: center; align-items: center;"">
      <img src=""images/red_deck_2.png"" style=""width: 300px; height: 300px; margin-right: 10px;"" />
      <img src=""images/blue_deck_1.png"" style=""width: 300px; height: 300px;"" />
    </div>","0","0"
"","","","","","html-keyboard-response","93","315290","0.0-93.0-0.0-0.0","51F71C531F4E4EB5A4686654C67B0FEA","98b13278-68ca-4c11-9553-56900ea4f721","683bf07d-1a26-40b1-9cff-5abdc1eed0ee","","null","<div style=""display: flex; justify-content: center; align-items: center;"">
                <img src=""images/causal/causal_series_11/causal_series_11_d.jpg"" style=""width: 300px; height: 300px;"" />
              </div>","null",""
"","","","","","html-keyboard-response","94","318292","0.0-94.0","51F71C531F4E4EB5A4686654C67B0FEA","98b13278-68ca-4c11-9553-56900ea4f721","683bf07d-1a26-40b1-9cff-5abdc1eed0ee","","null","<div style=""display: flex; justify-content: center; align-items: center;"">
                <img src=""images/other/blank.jpg"" style=""width: 300px; height: 300px;"" />
              </div>","null",""
"","","","","","html-keyboard-response","95","321294","0.0-95.0","51F71C531F4E4EB5A4686654C67B0FEA","98b13278-68ca-4c11-9553-56900ea4f721","683bf07d-1a26-40b1-9cff-5abdc1eed0ee","","null","<div style=""display: flex; justify-content: center; align-items: center;"">
                <img src=""images/causal/causal_series_2/causal_series_2_a.jpg"" style=""width: 300px; height: 300px;"" />
              </div>","null",""
"","","","","","html-keyboard-response","96","324296","0.0-96.0","51F71C531F4E4EB5A4686654C67B0FEA","98b13278-68ca-4c11-9553-56900ea4f721","683bf07d-1a26-40b1-9cff-5abdc1eed0ee","","null","<div style=""display: flex; justify-content: center; align-items: center;"">
                <img src=""images/causal/causal_series_2/causal_series_2_b.jpg"" style=""width: 300px; height: 300px;"" />
              </div>","null",""
"","","","","","html-keyboard-response","97","327297","0.0-97.0","51F71C531F4E4EB5A4686654C67B0FEA","98b13278-68ca-4c11-9553-56900ea4f721","683bf07d-1a26-40b1-9cff-5abdc1eed0ee","","null","<div style=""display: flex; justify-content: center; align-items: center;"">
                <img src=""images/causal/causal_series_2/causal_series_2_c.jpg"" style=""width: 300px; height: 300px;"" />
              </div>","null",""
"","","","","","html-button-response","98","329035","0.0-98.0","51F71C531F4E4EB5A4686654C67B0FEA","98b13278-68ca-4c11-9553-56900ea4f721","683bf07d-1a26-40b1-9cff-5abdc1eed0ee","","1736","
    <div style=""display: flex; justify-content: center; align-items: center;"">
      <img src=""images/red_deck_2.png"" style=""width: 300px; height: 300px; margin-right: 10px;"" />
      <img src=""images/blue_deck_1.png"" style=""width: 300px; height: 300px;"" />
    </div>","1","1"
"","","","","","html-keyboard-response","99","332038","0.0-99.0-1.0-0.0","51F71C531F4E4EB5A4686654C67B0FEA","98b13278-68ca-4c11-9553-56900ea4f721","683bf07d-1a26-40b1-9cff-5abdc1eed0ee","","null","<div style=""display: flex; justify-content: center; align-items: center;"">
                <img src=""images/semantic/semantic_series_1/semantic_series_1_d.jpg"" style=""width: 300px; height: 300px;"" />
              </div>","null",""
"","","","","","html-keyboard-response","100","335040","0.0-100.0","51F71C531F4E4EB5A4686654C67B0FEA","98b13278-68ca-4c11-9553-56900ea4f721","683bf07d-1a26-40b1-9cff-5abdc1eed0ee","","null","<div style=""display: flex; justify-content: center; align-items: center;"">
                <img src=""images/other/blank.jpg"" style=""width: 300px; height: 300px;"" />
              </div>","null",""
"","","","","","html-keyboard-response","101","338042","0.0-101.0","51F71C531F4E4EB5A4686654C67B0FEA","98b13278-68ca-4c11-9553-56900ea4f721","683bf07d-1a26-40b1-9cff-5abdc1eed0ee","","null","<div style=""display: flex; justify-content: center; align-items: center;"">
                <img src=""images/causal/causal_series_7/causal_series_7_a.jpg"" style=""width: 300px; height: 300px;"" />
              </div>","null",""
"","","","","","html-keyboard-response","102","341043","0.0-102.0","51F71C531F4E4EB5A4686654C67B0FEA","98b13278-68ca-4c11-9553-56900ea4f721","683bf07d-1a26-40b1-9cff-5abdc1eed0ee","","null","<div style=""display: flex; justify-content: center; align-items: center;"">
                <img src=""images/causal/causal_series_7/causal_series_7_b.jpg"" style=""width: 300px; height: 300px;"" />
              </div>","null",""
"","","","","","html-keyboard-response","103","344045","0.0-103.0","51F71C531F4E4EB5A4686654C67B0FEA","98b13278-68ca-4c11-9553-56900ea4f721","683bf07d-1a26-40b1-9cff-5abdc1eed0ee","","null","<div style=""display: flex; justify-content: center; align-items: center;"">
                <img src=""images/causal/causal_series_7/causal_series_7_c.jpg"" style=""width: 300px; height: 300px;"" />
              </div>","null",""
"","","","","","html-button-response","104","345034","0.0-104.0","51F71C531F4E4EB5A4686654C67B0FEA","98b13278-68ca-4c11-9553-56900ea4f721","683bf07d-1a26-40b1-9cff-5abdc1eed0ee","","988","
    <div style=""display: flex; justify-content: center; align-items: center;"">
      <img src=""images/red_deck_2.png"" style=""width: 300px; height: 300px; margin-right: 10px;"" />
      <img src=""images/blue_deck_1.png"" style=""width: 300px; height: 300px;"" />
    </div>","0","0"
"","","","","","html-keyboard-response","105","348037","0.0-105.0-0.0-0.0","51F71C531F4E4EB5A4686654C67B0FEA","98b13278-68ca-4c11-9553-56900ea4f721","683bf07d-1a26-40b1-9cff-5abdc1eed0ee","","null","<div style=""display: flex; justify-content: center; align-items: center;"">
                <img src=""images/causal/causal_series_7/causal_series_7_d.jpg"" style=""width: 300px; height: 300px;"" />
              </div>","null",""
"","","","","","html-keyboard-response","106","351040","0.0-106.0","51F71C531F4E4EB5A4686654C67B0FEA","98b13278-68ca-4c11-9553-56900ea4f721","683bf07d-1a26-40b1-9cff-5abdc1eed0ee","","null","<div style=""display: flex; justify-content: center; align-items: center;"">
                <img src=""images/other/blank.jpg"" style=""width: 300px; height: 300px;"" />
              </div>","null",""
"","","","","","html-keyboard-response","107","354043","0.0-107.0","51F71C531F4E4EB5A4686654C67B0FEA","98b13278-68ca-4c11-9553-56900ea4f721","683bf07d-1a26-40b1-9cff-5abdc1eed0ee","","null","<div style=""display: flex; justify-content: center; align-items: center;"">
                <img src=""images/causal/causal_series_10/causal_series_10_a.jpg"" style=""width: 300px; height: 300px;"" />
              </div>","null",""
"","","","","","html-keyboard-response","108","357045","0.0-108.0","51F71C531F4E4EB5A4686654C67B0FEA","98b13278-68ca-4c11-9553-56900ea4f721","683bf07d-1a26-40b1-9cff-5abdc1eed0ee","","null","<div style=""display: flex; justify-content: center; align-items: center;"">
                <img src=""images/causal/causal_series_10/causal_series_10_b.jpg"" style=""width: 300px; height: 300px;"" />
              </div>","null",""
"","","","","","html-keyboard-response","109","360047","0.0-109.0","51F71C531F4E4EB5A4686654C67B0FEA","98b13278-68ca-4c11-9553-56900ea4f721","683bf07d-1a26-40b1-9cff-5abdc1eed0ee","","null","<div style=""display: flex; justify-content: center; align-items: center;"">
                <img src=""images/causal/causal_series_10/causal_series_10_c.jpg"" style=""width: 300px; height: 300px;"" />
              </div>","null",""
"","","","","","html-button-response","110","360921","0.0-110.0","51F71C531F4E4EB5A4686654C67B0FEA","98b13278-68ca-4c11-9553-56900ea4f721","683bf07d-1a26-40b1-9cff-5abdc1eed0ee","","873","
    <div style=""display: flex; justify-content: center; align-items: center;"">
      <img src=""images/red_deck_2.png"" style=""width: 300px; height: 300px; margin-right: 10px;"" />
      <img src=""images/blue_deck_1.png"" style=""width: 300px; height: 300px;"" />
    </div>","0","0"
"","","","","","html-keyboard-response","111","363923","0.0-111.0-0.0-0.0","51F71C531F4E4EB5A4686654C67B0FEA","98b13278-68ca-4c11-9553-56900ea4f721","683bf07d-1a26-40b1-9cff-5abdc1eed0ee","","null","<div style=""display: flex; justify-content: center; align-items: center;"">
                <img src=""images/causal/causal_series_10/causal_series_10_d.jpg"" style=""width: 300px; height: 300px;"" />
              </div>","null",""
"","","","","","html-keyboard-response","112","366926","0.0-112.0","51F71C531F4E4EB5A4686654C67B0FEA","98b13278-68ca-4c11-9553-56900ea4f721","683bf07d-1a26-40b1-9cff-5abdc1eed0ee","","null","<div style=""display: flex; justify-content: center; align-items: center;"">
                <img src=""images/other/blank.jpg"" style=""width: 300px; height: 300px;"" />
              </div>","null",""
"","","","","","survey-text","113","380507","0.0-113.0","51F71C531F4E4EB5A4686654C67B0FEA","98b13278-68ca-4c11-9553-56900ea4f721","683bf07d-1a26-40b1-9cff-5abdc1eed0ee","","13576","","{""Q0"":""Blue felt more calming to me""}",""
"","","","","","survey-text","114","384828","0.0-114.0","51F71C531F4E4EB5A4686654C67B0FEA","98b13278-68ca-4c11-9553-56900ea4f721","683bf07d-1a26-40b1-9cff-5abdc1eed0ee","","4318","","{""Q0"":""Blue""}",""
"","","","","","html-button-response","115","394803","0.0-115.0","51F71C531F4E4EB5A4686654C67B0FEA","98b13278-68ca-4c11-9553-56900ea4f721","683bf07d-1a26-40b1-9cff-5abdc1eed0ee","","9973","Which color deck does the fourth image continue the story from the series?","0",""
"","","","","","html-button-response","116","399758","0.0-116.0","51F71C531F4E4EB5A4686654C67B0FEA","98b13278-68ca-4c11-9553-56900ea4f721","683bf07d-1a26-40b1-9cff-5abdc1eed0ee","","4955","Which color deck does the fourth image not follow the story from the series?","1",""
"","","","","","survey-text","117","404795","0.0-117.0","51F71C531F4E4EB5A4686654C67B0FEA","98b13278-68ca-4c11-9553-56900ea4f721","683bf07d-1a26-40b1-9cff-5abdc1eed0ee","","5035","","{""Q0"":""Female"",""Q1"":""29""}",""
"","","","","","instructions","118","408739","0.0-118.0","51F71C531F4E4EB5A4686654C67B0FEA","98b13278-68ca-4c11-9553-56900ea4f721","683bf07d-1a26-40b1-9cff-5abdc1eed0ee","[{""page_index"":0,""viewing_time"":3943}]","3943","","",""
